Time (s)   roll (deg)   Delta
0.00041	-7.77804	11.27051
0.00464	-7.77804	11.27051
0.00892	-7.77804	11.27051
0.01321	-7.77804	11.27051
0.01741	-7.77804	11.27051
0.02160	-7.75607	11.27051
0.02578	-7.75607	11.27051
0.02997	-7.75607	11.27051
0.03415	-7.75607	11.27051
0.03841	-7.75607	11.27051
0.04270	-7.75607	11.27051
0.04690	-7.75607	11.27051
0.05108	-7.75607	11.27051
0.05527	-7.75607	11.27051
0.05945	-7.75607	11.27051
0.06364	-7.75607	11.27051
0.06782	-7.73410	11.27051
0.07212	-7.75607	11.27051
0.07633	-7.73410	11.27051
0.08052	-7.73410	11.27051
0.08471	-7.75607	11.27051
0.08889	-7.75607	11.27051
0.09308	-7.75607	11.27051
0.09726	-7.75607	11.27051
0.10180	-7.75607	11.27051
0.10601	-7.75607	11.27051
0.11019	-7.75607	11.27051
0.11438	-7.75607	11.27051
0.11856	-7.75607	11.27051
0.12275	-7.75607	11.27051
0.12693	-7.75607	11.27051
0.13120	-7.77804	11.27051
0.13548	-7.77804	11.27051
0.13969	-7.77804	11.27051
0.14387	-7.77804	11.27051
0.14806	-7.77804	11.27051
0.15225	-7.80002	11.27051
0.15644	-7.80002	11.27051
0.16069	-7.82199	11.27051
0.16501	-7.82199	11.27051
0.16921	-7.82199	11.27051
0.17341	-7.82199	11.27051
0.17759	-7.84396	11.27051
0.18178	-7.84396	11.27051
0.18596	-7.86593	11.27051
0.19014	-7.86593	11.27051
0.19444	-7.88791	11.27051
0.19864	-7.88791	11.27051
0.20293	-7.88791	11.27051
0.20712	-7.90988	11.27051
0.21130	-7.90988	11.27051
0.21549	-7.95382	11.27051
0.21967	-7.95382	11.27051
0.22410	-7.97580	11.27051
0.22832	-7.97580	11.27051
0.23251	-7.99777	11.27051
0.23670	-7.99777	11.27051
0.24089	-8.01974	11.27051
0.24508	-8.06369	11.27051
0.24926	-8.06369	11.27051
0.25353	-8.06369	11.27051
0.25781	-8.08566	11.27051
0.26200	-8.10763	11.27051
0.26619	-8.12961	11.27051
0.27037	-8.15158	11.27051
0.27456	-8.17355	11.27051
0.27874	-8.17355	11.27051
0.28300	-8.19552	11.27051
0.28727	-8.21750	11.27051
0.29148	-8.26144	11.27051
0.29567	-8.28341	11.27051
0.29986	-8.30539	11.27051
0.30415	-8.30539	11.27051
0.30831	-8.32736	11.27051
0.31249	-8.34933	11.27051
0.31679	-8.39328	11.27051
0.32099	-8.41525	11.27051
0.32518	-8.45920	11.27051
0.32937	-8.45920	11.27051
0.33355	-8.48117	11.27051
0.33774	-8.52511	11.27051
0.34192	-8.54709	11.27051
0.34633	-8.59103	11.27051
0.35054	-8.61300	11.27051
0.35473	-8.61300	11.27051
0.35894	-8.63498	11.27051
0.36312	-8.67892	11.27051
0.36731	-8.70089	11.27051
0.37149	-8.74484	11.27051
0.37578	-8.78879	11.27051
0.38005	-8.78879	11.27051
0.38425	-8.83273	11.27051
0.38844	-8.87668	11.27051
0.39263	-8.89865	11.27051
0.39682	-8.94259	11.27051
0.40100	-8.96457	11.27051
0.40536	-9.03048	11.27051
0.40964	-9.03048	11.27051
0.41383	-9.07443	11.27051
0.41802	-9.11838	11.27051
0.42220	-9.16232	11.27051
0.42639	-9.20627	11.27051
0.43057	-9.20627	11.27051
0.43475	-9.27218	11.27051
0.43907	-9.27218	11.27051
0.44328	-9.31613	11.27051
0.44748	-9.38205	11.27051
0.45166	-9.40402	11.27051
0.45585	-9.46994	11.27051
0.46003	-9.46994	11.27051
0.46423	-9.51388	11.27051
0.46864	-9.55783	11.27051
0.47286	-9.60177	11.27051
0.47704	-9.64572	11.27051
0.48125	-9.71164	11.27051
0.48544	-9.75558	11.27051
0.48962	-9.75558	11.27051
0.49381	-9.79953	11.27051
0.49808	-9.84347	11.27051
0.50234	-9.90939	11.27051
0.50664	-9.95334	11.27051
0.51083	-9.99728	11.27051
0.51501	-9.99728	11.27051
0.51920	-10.06320	11.27051
0.52338	-10.10714	11.27051
0.52763	-10.15109	11.27051
0.53190	-10.21701	11.27051
0.53610	-10.26095	11.27051
0.54029	-10.32687	11.27051
0.54448	-10.32687	11.27051
0.54866	-10.37082	11.27051
0.55285	-10.41476	11.27051
0.55703	-10.48068	11.27051
0.56133	-10.52463	11.27051
0.56553	-10.52463	11.27051
0.56971	-10.59054	11.27051
0.57390	-10.63449	11.27051
0.57808	-10.70041	11.27051
0.58227	-10.76632	11.27051
0.58645	-10.81027	11.27051
0.59084	-10.81027	11.27051
0.59505	-10.87619	11.27051
0.59924	-10.92013	11.27051
0.60342	-10.98605	11.27051
0.60772	-11.03000	11.27051
0.61191	-11.09591	11.27051
0.61609	-11.13986	11.27051
0.62038	-11.13986	11.27051
0.62464	-11.20578	11.27051
0.62883	-11.27170	11.27051
0.63302	-11.31564	11.27051
0.63720	-11.38156	11.27051
0.64139	-11.38156	11.27051
0.64557	-11.42550	11.27051
0.64982	-11.49142	11.27051
0.65409	-11.53537	11.27051
0.65829	-11.60129	11.27051
0.66248	-11.66720	11.27051
0.66667	-11.71115	11.27051
0.67085	-11.71115	11.27051
0.67503	-11.77707	11.27051
0.67922	-11.84298	11.27051
0.68351	-11.90890	11.27051
0.68771	-11.95285	11.27051
0.69190	-11.99679	11.27051
0.69609	-12.06271	11.27051
0.70028	-12.06271	11.27051
0.70447	-12.12863	11.27051
0.70875	-12.19455	11.27051
0.71317	-12.23849	11.27051
0.71738	-12.30441	11.27051
0.72157	-12.37033	11.27051
0.72575	-12.37033	11.27051
0.72994	-12.43625	11.27051
0.73412	-12.48019	11.27051
0.73831	-12.52414	11.27051
0.74258	-12.59006	11.27051
0.74684	-12.65597	11.27051
0.75103	-12.65597	11.27051
0.75521	-12.72189	11.27051
0.75940	-12.76584	11.27051
0.76358	-12.83175	11.27051
0.76777	-12.89767	11.27051
0.77201	-12.96359	11.27051
0.77630	-13.00754	11.27051
0.78050	-13.00754	11.27051
0.78469	-13.05148	11.27051
0.78887	-13.11740	11.27051
0.79306	-13.18332	11.27051
0.79725	-13.22726	11.27051
0.80143	-13.29318	11.27051
0.80572	-13.29318	11.27051
0.81002	-13.33713	11.27051
0.81421	-13.40304	11.27051
0.81840	-13.46896	11.27051
0.82258	-13.53488	11.27051
0.82676	-13.53488	11.27051
0.83095	-13.57882	11.27051
0.83533	-13.64474	11.27051
0.83955	-13.71066	11.27051
0.84374	-13.75461	11.27051
0.84792	-13.82052	11.27051
0.85211	-13.82052	11.27051
0.85630	-13.86447	11.27051
0.86050	-13.93039	11.27051
0.86477	-13.97433	11.27051
0.86902	-14.01828	11.27051
0.87323	-14.08420	11.27051
0.87741	-14.12814	11.27051
0.88160	-14.12814	11.27051
0.88578	-14.19406	11.27051
0.88997	-14.25998	11.27051
0.89421	-14.30392	11.27051
0.89848	-14.36984	11.27051
0.90268	-14.39181	11.27051
0.90687	-14.45773	11.27051
0.91116	-14.45773	11.27051
0.91534	-14.52365	11.27051
0.91953	-14.56759	11.27051
0.92371	-14.61154	11.27051
0.92801	-14.67746	11.27051
0.93224	-14.67746	11.27051
0.93643	-14.72140	11.27051
0.94062	-14.78732	11.27051
0.94481	-14.83127	11.27051
0.94899	-14.87521	11.27051
0.95318	-14.91916	11.27051
0.95758	-14.98507	11.27051
0.96181	-14.98507	11.27051
0.96599	-15.02902	11.27051
0.97022	-15.07297	11.27051
0.97441	-15.11691	11.27051
0.97860	-15.18283	11.27051
0.98279	-15.22677	11.27051
0.98707	-15.27072	11.27051
0.99131	-15.27072	11.27051
0.99551	-15.31466	11.27051
0.99971	-15.35861	11.27051
1.00389	-15.40256	11.27051
1.00808	-15.44650	11.27051
1.01238	-15.49045	11.27051
1.01664	-15.49045	11.27051
1.02089	-15.55636	11.27051
1.02510	-15.57834	11.27051
1.02929	-15.64425	11.27051
1.03347	-15.66623	11.27051
1.03766	-15.71017	11.27051
1.04184	-15.71017	11.27051
1.04603	-15.75412	11.27051
1.05031	-15.82004	11.27051
1.05452	-15.86398	11.27051
1.05871	-15.90793	11.27051
1.06290	-15.92990	11.27051
1.06708	-15.92990	11.27051
1.07126	-15.99582	11.27051
1.07545	-16.01779	11.27051
1.07982	-16.06173	11.27051
1.08404	-16.10568	11.27051
1.08824	-16.14963	11.27051
1.09243	-16.14963	11.27051
1.09661	-16.19357	11.27051
1.10080	-16.23752	11.27051
1.10498	-16.28146	11.27051
1.10926	-16.32541	11.27051
1.11361	-16.32541	11.27051
1.11780	-16.39132	11.27051
1.12198	-16.39132	11.27051
1.12617	-16.43527	11.27051
1.13035	-16.45724	11.27051
1.13453	-16.50119	11.27051
1.13879	-16.54513	11.27051
1.14304	-16.54513	11.27051
1.14724	-16.56711	11.27051
1.15143	-16.61105	11.27051
1.15561	-16.65500	11.27051
1.15980	-16.67697	11.27051
1.16401	-16.72091	11.27051
1.16822	-16.74289	11.27051
1.17252	-16.74289	11.27051
1.17673	-16.78683	11.27051
1.18092	-16.80881	11.27051
1.18510	-16.85275	11.27051
1.18929	-16.89670	11.27051
1.19348	-16.89670	11.27051
1.19766	-16.91867	11.27051
1.20206	-16.96261	11.27051
1.20628	-16.96261	11.27051
1.21047	-17.00656	11.27051
1.21476	-17.02853	11.27051
1.21894	-17.07248	11.27051
1.22312	-17.07248	11.27051
1.22731	-17.09445	11.27051
1.23159	-17.13839	11.27051
1.23584	-17.16037	11.27051
1.24004	-17.18234	11.27051
1.24423	-17.20431	11.27051
1.24842	-17.22629	11.27051
1.25260	-17.22629	11.27051
1.25679	-17.27023	11.27051
1.26104	-17.29220	11.27051
1.26530	-17.31418	11.27051
1.26950	-17.33615	11.27051
1.27369	-17.35812	11.27051
1.27788	-17.35812	11.27051
1.28206	-17.38009	11.27051
1.28625	-17.40207	11.27051
1.29043	-17.42404	11.27051
1.29472	-17.44601	11.27051
1.29893	-17.46798	11.27051
1.30313	-17.48996	11.27051
1.30732	-17.48996	11.27051
1.31150	-17.51193	11.27051
1.31579	-17.53390	11.27051
1.31997	-17.53390	11.27051
1.32438	-17.57785	11.27051
1.32860	-17.57785	11.27051
1.33279	-17.57785	11.27051
1.33697	-17.59982	11.27051
1.34116	-17.62179	11.27051
1.34535	-17.62179	11.27051
1.34953	-17.64377	11.27051
1.35381	-17.64377	11.27051
1.35806	-17.66574	11.27051
1.36227	-17.68771	11.27051
1.36647	-17.68771	11.27051
1.37065	-17.70968	11.27051
1.37485	-17.70968	11.27051
1.37904	-17.73166	11.27051
1.38329	-17.73166	11.27051
1.38754	-17.73166	11.27051
1.39175	-17.75363	11.27051
1.39594	-17.75363	11.27051
1.40013	-17.77560	11.27051
1.40431	-17.77560	11.27051
1.40850	-17.77560	11.27051
1.41269	-17.79757	11.27051
1.41708	-17.79757	11.27051
1.42130	-17.79757	11.27051
1.42550	-17.81955	11.27051
1.42968	-17.81955	11.27051
1.43387	-17.81955	11.27051
1.43806	-17.81955	11.27051
1.44225	-17.81955	11.27051
1.44667	-17.81955	11.27051
1.45089	-17.84152	11.27051
1.45508	-17.84152	11.27051
1.45927	-17.84152	11.27051
1.46346	-17.84152	11.27051
1.46764	-17.84152	11.27051
1.47183	-17.86349	11.27051
1.47611	-17.84152	11.27051
1.48036	-17.84152	11.27051
1.48457	-17.84152	11.27051
1.48877	-17.84152	11.27051
1.49296	-17.86349	11.27051
1.49715	-17.84152	11.27051
1.50134	-17.84152	11.27051
1.50560	-17.84152	11.27051
1.50987	-17.84152	11.27051
1.51407	-17.84152	11.27051
1.51836	-17.84152	11.27051
1.52255	-17.84152	11.27051
1.52674	-17.84152	11.27051
1.53092	-17.84152	11.27051
1.53511	-17.84152	11.27051
1.53940	-17.84152	11.27051
1.54362	-17.84152	11.27051
1.54781	-17.81955	11.27051
1.55200	-17.81955	11.27051
1.55619	-17.81955	11.27051
1.56038	-17.81955	11.27051
1.56456	-17.79757	11.27051
1.56895	-17.79757	11.27051
1.57318	-17.79757	11.27051
1.57737	-17.77560	11.27051
1.58156	-17.77560	11.27051
1.58575	-17.77560	11.27051
1.58993	-17.75363	11.27051
1.59412	-17.75363	11.27051
1.59840	-17.75363	11.27051
1.60264	-17.73166	11.27051
1.60685	-17.73166	11.27051
1.61104	-17.70968	11.27051
1.61522	-17.70968	11.27051
1.61951	-17.70968	11.27051
1.62369	-17.68771	11.27051
1.62794	-17.66574	11.27051
1.63222	-17.66574	11.27051
1.63642	-17.66574	11.27051
1.64061	-17.64377	11.27051
1.64480	-17.64377	11.27051
1.64898	-17.62179	11.27051
1.65316	-17.62179	11.27051
1.65735	-17.59982	11.27051
1.66163	-17.57785	11.27051
1.66584	-17.57785	11.27051
1.67003	-17.55588	11.27051
1.67421	-17.55588	11.27051
1.67840	-17.53390	11.27051
1.68258	-17.53390	11.27051
1.68676	-17.51193	11.27051
1.69113	-17.48996	11.27051
1.69535	-17.48996	11.27051
1.69953	-17.48996	11.27051
1.70372	-17.44601	11.27051
1.70791	-17.44601	11.27051
1.71210	-17.42404	11.27051
1.71629	-17.40207	11.27051
1.72070	-17.38009	11.27051
1.72495	-17.38009	11.27051
1.72914	-17.38009	11.27051
1.73332	-17.35812	11.27051
1.73751	-17.33615	11.27051
1.74172	-17.31418	11.27051
1.74590	-17.29220	11.27051
1.75016	-17.29220	11.27051
1.75443	-17.27023	11.27051
1.75864	-17.27023	11.27051
1.76283	-17.24826	11.27051
1.76701	-17.22629	11.27051
1.77120	-17.20431	11.27051
1.77539	-17.18234	11.27051
1.77957	-17.18234	11.27051
1.78385	-17.16037	11.27051
1.78807	-17.13839	11.27051
1.79227	-17.11642	11.27051
1.79646	-17.09445	11.27051
1.80064	-17.07248	11.27051
1.80483	-17.07248	11.27051
1.80901	-17.05050	11.27051
1.81339	-17.02853	11.27051
1.81761	-17.00656	11.27051
1.82190	-16.98459	11.27051
1.82609	-16.96261	11.27051
1.83027	-16.96261	11.27051
1.83446	-16.94064	11.27051
1.83864	-16.91867	11.27051
1.84291	-16.87472	11.27051
1.84715	-16.85275	11.27051
1.85134	-16.83078	11.27051
1.85554	-16.83078	11.27051
1.85975	-16.80881	11.27051
1.86393	-16.78683	11.27051
1.86812	-16.76486	11.27051
1.87238	-16.74289	11.27051
1.87664	-16.72091	11.27051
1.88085	-16.72091	11.27051
1.88503	-16.67697	11.27051
1.88923	-16.67697	11.27051
1.89342	-16.65500	11.27051
1.89761	-16.61105	11.27051
1.90180	-16.58908	11.27051
1.90609	-16.58908	11.27051
1.91030	-16.56711	11.27051
1.91449	-16.54513	11.27051
1.91867	-16.52316	11.27051
1.92296	-16.47922	11.27051
1.92716	-16.45724	11.27051
1.93136	-16.43527	11.27051
1.93576	-16.43527	11.27051
1.93999	-16.41330	11.27051
1.94419	-16.39132	11.27051
1.94838	-16.36935	11.27051
1.95257	-16.32541	11.27051
1.95675	-16.30343	11.27051
1.96094	-16.30343	11.27051
1.96522	-16.28146	11.27051
1.96947	-16.25949	11.27051
1.97367	-16.23752	11.27051
1.97786	-16.19357	11.27051
1.98205	-16.17160	11.27051
1.98623	-16.14963	11.27051
1.99042	-16.14963	11.27051
1.99466	-16.12765	11.27051
1.99892	-16.08371	11.27051
2.00312	-16.06173	11.27051
2.00731	-16.03976	11.27051
2.01150	-15.99582	11.27051
2.01569	-15.99582	11.27051
2.01987	-15.97384	11.27051
2.02416	-15.95187	11.27051
2.02841	-15.92990	11.27051
2.03262	-15.88595	11.27051
2.03681	-15.86398	11.27051
2.04099	-15.86398	11.27051
2.04518	-15.84201	11.27051
2.04936	-15.82004	11.27051
2.05355	-15.77609	11.27051
2.05793	-15.75412	11.27051
2.06215	-15.73214	11.27051
2.06634	-15.71017	11.27051
2.07052	-15.71017	11.27051
2.07471	-15.66623	11.27051
2.07890	-15.64425	11.27051
2.08308	-15.62228	11.27051
2.08737	-15.60031	11.27051
2.09162	-15.55636	11.27051
2.09581	-15.55636	11.27051
2.10000	-15.53439	11.27051
2.10420	-15.51242	11.27051
2.10839	-15.49045	11.27051
2.11258	-15.44650	11.27051
2.11682	-15.44650	11.27051
2.12110	-15.42453	11.27051
2.12540	-15.40256	11.27051
2.12959	-15.35861	11.27051
2.13377	-15.33664	11.27051
2.13796	-15.31466	11.27051
2.14214	-15.29269	11.27051
2.14632	-15.29269	11.27051
2.15061	-15.27072	11.27051
2.15483	-15.22677	11.27051
2.15902	-15.20480	11.27051
2.16323	-15.18283	11.27051
2.16742	-15.16086	11.27051
2.17161	-15.16086	11.27051
2.17580	-15.13888	11.27051
2.18019	-15.11691	11.27051
2.18442	-15.09494	11.27051
2.18862	-15.07297	11.27051
2.19281	-15.02902	11.27051
2.19700	-15.02902	11.27051
2.20118	-15.00705	11.27051
2.20537	-14.98507	11.27051
2.20964	-14.96310	11.27051
2.21389	-14.94113	11.27051
2.21808	-14.91916	11.27051
2.22227	-14.91916	11.27051
2.22658	-14.89718	11.27051
2.23078	-14.87521	11.27051
2.23497	-14.85324	11.27051
2.23925	-14.83127	11.27051
2.24351	-14.78732	11.27051
2.24772	-14.76535	11.27051
2.25191	-14.76535	11.27051
2.25610	-14.74338	11.27051
2.26030	-14.72140	11.27051
2.26449	-14.69943	11.27051
2.26867	-14.67746	11.27051
2.27296	-14.65548	11.27051
2.27717	-14.63351	11.27051
2.28136	-14.63351	11.27051
2.28555	-14.61154	11.27051
2.28974	-14.58957	11.27051
2.29392	-14.56759	11.27051
2.29811	-14.54562	11.27051
2.30251	-14.52365	11.27051
2.30673	-14.52365	11.27051
2.31093	-14.50168	11.27051
2.31511	-14.47970	11.27051
2.31930	-14.47970	11.27051
2.32348	-14.43576	11.27051
2.32777	-14.41379	11.27051
2.33205	-14.41379	11.27051
2.33631	-14.39181	11.27051
2.34052	-14.39181	11.27051
2.34471	-14.36984	11.27051
2.34890	-14.34787	11.27051
2.35308	-14.32589	11.27051
2.35726	-14.32589	11.27051
2.36155	-14.28195	11.27051
2.36582	-14.28195	11.27051
2.37003	-14.25998	11.27051
2.37423	-14.23800	11.27051
2.37842	-14.21603	11.27051
2.38260	-14.21603	11.27051
2.38679	-14.19406	11.27051
2.39097	-14.17209	11.27051
2.39526	-14.17209	11.27051
2.39948	-14.15011	11.27051
2.40366	-14.12814	11.27051
2.40785	-14.12814	11.27051
2.41205	-14.10617	11.27051
2.41625	-14.10617	11.27051
2.42043	-14.08420	11.27051
2.42481	-14.06222	11.27051
2.42913	-14.04025	11.27051
2.43331	-14.04025	11.27051
2.43752	-14.04025	11.27051
2.44172	-14.01828	11.27051
2.44591	-14.01828	11.27051
2.45010	-13.99631	11.27051
2.45439	-13.97433	11.27051
2.45865	-13.95236	11.27051
2.46285	-13.95236	11.27051
2.46704	-13.95236	11.27051
2.47123	-13.93039	11.27051
2.47542	-13.90841	11.27051
2.47961	-13.90841	11.27051
2.48388	-13.88644	11.27051
2.48815	-13.88644	11.27051
2.49233	-13.88644	11.27051
2.49652	-13.86447	11.27051
2.50071	-13.84250	11.27051
2.50490	-13.84250	11.27051
2.50908	-13.82052	11.27051
2.51327	-13.82052	11.27051
2.51756	-13.82052	11.27051
2.52179	-13.79855	11.27051
2.52598	-13.79855	11.27051
2.53027	-13.79855	11.27051
2.53446	-13.77658	11.27051
2.53864	-13.77658	11.27051
2.54283	-13.77658	11.27051
2.54721	-13.75461	11.27051
2.55143	-13.73263	11.27051
2.55563	-13.73263	11.27051
2.55981	-13.73263	11.27051
2.56400	-13.71066	11.27051
2.56820	-13.71066	11.27051
2.57238	-13.71066	11.27051
2.57667	-13.71066	11.27051
2.58092	-13.68869	11.27051
2.58511	-13.68869	11.27051
2.58930	-13.66672	11.27051
2.59349	-13.66672	11.27051
2.59767	-13.66672	11.27051
2.60186	-13.66672	11.27051
2.60611	-13.66672	11.27051
2.61037	-13.64474	11.27051
2.61457	-13.64474	11.27051
2.61876	-13.64474	11.27051
2.62295	-13.64474	11.27051
2.62713	-13.62277	11.27051
2.63142	-13.62277	11.27051
2.63560	-13.62277	11.27051
2.63989	-13.62277	11.27051
2.64411	-13.62277	11.27051
2.64831	-13.60080	11.27051
2.65249	-13.60080	11.27051
2.65668	-13.60080	11.27051
2.66087	-13.60080	11.27051
2.66505	-13.60080	11.27051
2.66942	-13.57882	11.27051
2.67364	-13.57882	11.27051
2.67783	-13.57882	11.27051
2.68202	-13.57882	11.27051
2.68620	-13.57882	11.27051
2.69039	-13.57882	11.27051
2.69457	-13.57882	11.27051
2.69886	-13.57882	11.27051
2.70310	-13.57882	11.27051
2.70731	-13.57882	11.27051
2.71149	-13.55685	11.27051
2.71568	-13.55685	11.27051
2.71986	-13.55685	11.27051
2.72405	-13.55685	11.27051
2.72831	-13.55685	11.27051
2.73267	-13.57882	11.27051
2.73687	-13.55685	11.27051
2.74106	-13.55685	11.27051
2.74527	-13.55685	11.27051
2.74946	-13.57882	11.27051
2.75365	-13.57882	11.27051
2.75783	-13.55685	11.27051
2.76213	-13.55685	11.27051
2.76634	-13.57882	11.27051
2.77053	-13.55685	11.27051
2.77472	-13.55685	11.27051
2.77890	-13.55685	11.27051
2.78309	-13.55685	11.27051
2.78728	-13.55685	11.27051
2.79167	-13.57882	11.27051
2.79589	-13.57882	11.27051
2.80009	-13.57882	11.27051
2.80429	-13.57882	11.27051
2.80848	-13.57882	11.27051
2.81267	-13.57882	11.27051
2.81685	-13.57882	11.27051
2.82113	-13.57882	11.27051
2.82538	-13.57882	11.27051
2.82957	-13.60080	11.27051
2.83386	-13.60080	11.27051
2.83805	-13.60080	11.27051
2.84223	-13.60080	11.27051
2.84642	-13.62277	11.27051
2.85067	-13.62277	11.27051
2.85493	-13.62277	11.27051
2.85915	-13.62277	11.27051
2.86335	-13.62277	11.27051
2.86754	-13.62277	11.27051
2.87174	-13.62277	11.27051
2.87592	-13.64474	11.27051
2.88011	-13.64474	11.27051
2.88441	-13.64474	11.27051
2.88863	-13.64474	11.27051
2.89282	-13.64474	11.27051
2.89701	-13.66672	11.27051
2.90120	-13.66672	11.27051
2.90538	-13.66672	11.27051
2.90957	-13.68869	11.27051
2.91395	-13.68869	11.27051
2.91817	-13.68869	11.27051
2.92236	-13.68869	11.27051
2.92655	-13.68869	11.27051
2.93074	-13.71066	11.27051
2.93503	-13.71066	11.27051
2.93921	-13.71066	11.27051
2.94350	-13.73263	11.27051
2.94775	-13.73263	11.27051
2.95195	-13.73263	11.27051
2.95614	-13.73263	11.27051
2.96031	-13.75461	11.27051
2.96450	-13.75461	11.27051
2.96868	-13.75461	11.27051
2.97293	-13.75461	11.27051
2.97719	-13.77658	11.27051
2.98139	-13.77658	11.27051
2.98558	-13.77658	11.27051
2.98976	-13.79855	11.27051
2.99395	-13.79855	11.27051
2.99814	-13.79855	11.27051
3.00233	-13.82052	11.27051
3.00664	-13.82052	11.27051
3.01087	-13.84250	11.27051
3.01507	-13.84250	11.27051
3.01926	-13.84250	11.27051
3.02345	-13.84250	11.27051
3.02763	-13.86447	11.27051
3.03182	-13.86447	11.27051
3.03633	-13.88644	11.27051
3.04055	-13.88644	11.27051
3.04475	-13.88644	11.27051
3.04893	-13.90841	11.27051
3.05312	-13.90841	11.27051
3.05730	-13.90841	11.27051
3.06149	-13.93039	11.27051
3.06576	-13.93039	11.27051
3.07000	-13.93039	11.27051
3.07421	-13.95236	11.27051
3.07839	-13.95236	11.27051
3.08258	-13.97433	11.27051
3.08677	-13.97433	11.27051
3.09095	-13.97433	11.27051
3.09520	-14.01828	11.27051
3.09945	-14.01828	11.27051
3.10366	-14.01828	11.27051
3.10785	-14.04025	11.27051
3.11203	-14.04025	11.27051
3.11624	-14.04025	11.27051
3.12042	-14.04025	11.27051
3.12461	-14.06222	11.27051
3.12890	-14.06222	11.27051
3.13310	-14.08420	11.27051
3.13741	-14.08420	11.27051
3.14160	-14.10617	11.27051
3.14578	-14.10617	11.27051
3.14997	-14.10617	11.27051
3.15415	-14.12814	11.27051
3.15853	-14.12814	11.27051
3.16281	-14.15011	11.27051
3.16700	-14.15011	11.27051
3.17120	-14.15011	11.27051
3.17539	-14.15011	11.27051
3.17958	-14.17209	11.27051
3.18376	-14.17209	11.27051
3.18805	-14.19406	11.27051
3.19230	-14.21603	11.27051
3.19650	-14.21603	11.27051
3.20069	-14.21603	11.27051
3.20488	-14.23800	11.27051
3.20907	-14.23800	11.27051
3.21325	-14.23800	11.27051
3.21751	-14.25998	11.27051
3.22179	-14.25998	11.27051
3.22600	-14.25998	11.27051
3.23019	-14.28195	11.27051
3.23437	-14.30392	11.27051
3.23866	-14.30392	11.27051
3.24285	-14.30392	11.27051
3.24703	-14.32589	11.27051
3.25132	-14.32589	11.27051
3.25555	-14.32589	11.27051
3.25974	-14.32589	11.27051
3.26393	-14.34787	11.27051
3.26812	-14.34787	11.27051
3.27231	-14.36984	11.27051
3.27649	-14.39181	11.27051
3.28089	-14.39181	11.27051
3.28511	-14.39181	11.27051
3.28930	-14.39181	11.27051
3.29349	-14.41379	11.27051
3.29767	-14.43576	11.27051
3.30186	-14.43576	11.27051
3.30605	-14.43576	11.27051
3.31036	-14.43576	11.27051
3.31461	-14.45773	11.27051
3.31881	-14.45773	11.27051
3.32300	-14.47970	11.27051
3.32718	-14.47970	11.27051
3.33137	-14.47970	11.27051
3.33555	-14.50168	11.27051
3.33993	-14.50168	11.27051
3.34420	-14.52365	11.27051
3.34840	-14.52365	11.27051
3.35259	-14.54562	11.27051
3.35678	-14.54562	11.27051
3.36099	-14.54562	11.27051
3.36517	-14.54562	11.27051
3.36937	-14.58957	11.27051
3.37367	-14.56759	11.27051
3.37788	-14.58957	11.27051
3.38207	-14.58957	11.27051
3.38625	-14.58957	11.27051
3.39044	-14.61154	11.27051
3.39463	-14.63351	11.27051
3.39881	-14.63351	11.27051
3.40319	-14.63351	11.27051
3.40743	-14.63351	11.27051
3.41162	-14.65548	11.27051
3.41581	-14.65548	11.27051
3.41999	-14.67746	11.27051
3.42419	-14.67746	11.27051
3.42838	-14.69943	11.27051
3.43266	-14.69943	11.27051
3.43690	-14.69943	11.27051
3.44123	-14.72140	11.27051
3.44542	-14.69943	11.27051
3.44961	-14.72140	11.27051
3.45379	-14.74338	11.27051
3.45798	-14.74338	11.27051
3.46225	-14.76535	11.27051
3.46652	-14.76535	11.27051
3.47073	-14.76535	11.27051
3.47492	-14.76535	11.27051
3.47910	-14.78732	11.27051
3.48331	-14.78732	11.27051
3.48750	-14.78732	11.27051
3.49169	-14.78732	11.27051
3.49597	-14.80929	11.27051
3.50021	-14.80929	11.27051
3.50440	-14.83127	11.27051
3.50859	-14.83127	11.27051
3.51278	-14.83127	11.27051
3.51697	-14.83127	11.27051
3.52115	-14.85324	11.27051
3.52555	-14.85324	11.27051
3.52977	-14.85324	11.27051
3.53395	-14.87521	11.27051
3.53814	-14.87521	11.27051
3.54244	-14.87521	11.27051
3.54662	-14.89718	11.27051
3.55081	-14.89718	11.27051
3.55509	-14.89718	11.27051
3.55934	-14.91916	11.27051
3.56354	-14.91916	11.27051
3.56772	-14.91916	11.27051
3.57191	-14.91916	11.27051
3.57609	-14.94113	11.27051
3.58029	-14.94113	11.27051
3.58454	-14.94113	11.27051
3.58881	-14.94113	11.27051
3.59301	-14.96310	11.27051
3.59720	-14.96310	11.27051
3.60139	-14.96310	11.27051
3.60557	-14.96310	11.27051
3.60976	-14.98507	11.27051
3.61394	-14.98507	11.27051
3.61823	-14.98507	11.27051
3.62245	-14.98507	11.27051
3.62664	-14.98507	11.27051
3.63083	-15.00705	11.27051
3.63501	-15.00705	11.27051
3.63920	-15.00705	11.27051
3.64348	-15.02902	11.27051
3.64786	-15.02902	11.27051
3.65208	-15.02902	11.27051
3.65628	-15.05099	11.27051
3.66047	-15.05099	11.27051
3.66465	-15.05099	11.27051
3.66884	-15.05099	11.27051
3.67302	-15.05099	11.27051
3.67731	-15.07297	11.27051
3.68156	-15.07297	11.27051
3.68575	-15.07297	11.27051
3.68994	-15.09494	11.27051
3.69413	-15.09494	11.27051
3.69831	-15.09494	11.27051
3.70249	-15.09494	11.27051
3.70674	-15.09494	11.27051
3.71100	-15.11691	11.27051
3.71520	-15.11691	11.27051
3.71940	-15.11691	11.27051
3.72359	-15.11691	11.27051
3.72777	-15.11691	11.27051
3.73196	-15.11691	11.27051
3.73614	-15.13888	11.27051
3.74041	-15.13888	11.27051
3.74473	-15.13888	11.27051
3.74891	-15.16086	11.27051
3.75310	-15.16086	11.27051
3.75728	-15.13888	11.27051
3.76147	-15.16086	11.27051
3.76565	-15.16086	11.27051
3.77003	-15.16086	11.27051
3.77426	-15.18283	11.27051
3.77845	-15.18283	11.27051
3.78263	-15.18283	11.27051
3.78682	-15.18283	11.27051
3.79102	-15.18283	11.27051
3.79523	-15.18283	11.27051
3.80004	-15.18283	11.27051
3.80433	-15.18283	11.27051
3.80853	-15.20480	11.27051
3.81272	-15.20480	11.27051
3.81691	-15.20480	11.27051
3.82110	-15.20480	11.27051
3.82528	-15.20480	11.27051
3.82954	-15.22677	11.27051
3.83379	-15.22677	11.27051
3.83798	-15.22677	11.27051
3.84216	-15.22677	11.27051
3.84642	-15.22677	11.27051
3.85059	-15.22677	11.27051
3.85476	-15.22677	11.27051
3.85893	-15.22677	11.27051
3.86323	-15.24875	11.27051
3.86743	-15.24875	11.27051
3.87161	-15.24875	11.27051
3.87578	-15.24875	11.27051
3.87996	-15.24875	11.27051
3.88413	-15.24875	11.27051
3.88830	-15.24875	11.27051
3.89263	-15.24875	11.27051
3.89683	-15.24875	11.27051
3.90101	-15.27072	11.27051
3.90518	-15.27072	11.27051
3.90935	-15.24875	11.27051
3.91352	-15.24875	11.27051
3.91769	-15.27072	11.27051
3.92202	-15.27072	11.27051
3.92627	-15.27072	11.27051
3.93046	-15.27072	11.27051
3.93465	-15.27072	11.27051
3.93884	-15.27072	11.27051
3.94302	-15.27072	11.27051
3.94731	-15.27072	11.27051
3.95156	-15.29269	11.27051
3.95582	-15.27072	11.27051
3.96003	-15.29269	11.27051
3.96423	-15.29269	11.27051
3.96841	-15.27072	11.27051
3.97260	-15.29269	11.27051
3.97678	-15.29269	11.27051
3.98097	-15.29269	11.27051
3.98525	-15.29269	11.27051
3.98947	-15.29269	11.27051
3.99366	-15.29269	11.27051
3.99784	-15.29269	11.27051
4.00203	-15.29269	11.27051
4.00621	-15.29269	11.27051
4.01039	-15.29269	11.27051
4.01476	-15.29269	11.27051
4.01898	-15.29269	11.27051
4.02317	-15.29269	11.27051
4.02736	-15.29269	11.27051
4.03154	-15.29269	11.27051
4.03573	-15.29269	11.27051
4.03991	-15.27072	11.27051
4.04421	-15.27072	11.27051
4.04856	-15.29269	11.27051
4.05275	-15.27072	11.27051
4.05693	-15.29269	11.27051
4.06112	-15.29269	11.27051
4.06530	-15.27072	11.27051
4.06949	-15.27072	11.27051
4.07373	-15.27072	11.27051
4.07799	-15.27072	11.27051
4.08219	-15.27072	11.27051
4.08638	-15.27072	11.27051
4.09057	-15.27072	11.27051
4.09475	-15.27072	11.27051
4.09893	-15.27072	11.27051
4.10312	-15.27072	11.27051
4.10741	-15.24875	11.27051
4.11163	-15.24875	11.27051
4.11582	-15.27072	11.27051
4.12000	-15.24875	11.27051
4.12421	-15.24875	11.27051
4.12839	-15.24875	11.27051
4.13258	-15.24875	11.27051
4.13698	-15.24875	11.27051
4.14120	-15.22677	11.27051
4.14539	-15.22677	11.27051
4.14968	-15.22677	11.27051
4.15387	-15.22677	11.27051
4.15805	-15.22677	11.27051
4.16224	-15.20480	11.27051
4.16657	-15.20480	11.27051
4.17082	-15.20480	11.27051
4.17502	-15.20480	11.27051
4.17921	-15.20480	11.27051
4.18339	-15.20480	11.27051
4.18758	-15.20480	11.27051
4.19176	-15.18283	11.27051
4.19601	-15.18283	11.27051
4.20028	-15.18283	11.27051
4.20449	-15.18283	11.27051
4.20868	-15.16086	11.27051
4.21286	-15.16086	11.27051
4.21705	-15.16086	11.27051
4.22124	-15.13888	11.27051
4.22542	-15.13888	11.27051
4.22971	-15.13888	11.27051
4.23392	-15.13888	11.27051
4.23811	-15.13888	11.27051
4.24230	-15.11691	11.27051
4.24648	-15.11691	11.27051
4.25077	-15.11691	11.27051
4.25495	-15.11691	11.27051
4.25933	-15.09494	11.27051
4.26356	-15.09494	11.27051
4.26775	-15.09494	11.27051
4.27194	-15.07297	11.27051
4.27613	-15.07297	11.27051
4.28031	-15.07297	11.27051
4.28450	-15.07297	11.27051
4.28879	-15.07297	11.27051
4.29304	-15.05099	11.27051
4.29724	-15.05099	11.27051
4.30143	-15.02902	11.27051
4.30561	-15.02902	11.27051
4.30980	-15.02902	11.27051
4.31399	-15.02902	11.27051
4.31824	-15.00705	11.27051
4.32251	-15.02902	11.27051
4.32672	-15.00705	11.27051
4.33091	-14.98507	11.27051
4.33510	-14.98507	11.27051
4.33928	-14.98507	11.27051
4.34347	-14.98507	11.27051
4.34766	-14.98507	11.27051
4.35205	-14.96310	11.27051
4.35628	-14.96310	11.27051
4.36047	-14.94113	11.27051
4.36467	-14.94113	11.27051
4.36886	-14.94113	11.27051
4.37305	-14.94113	11.27051
4.37724	-14.91916	11.27051
4.38165	-14.91916	11.27051
4.38588	-14.89718	11.27051
4.39007	-14.89718	11.27051
4.39426	-14.89718	11.27051
4.39844	-14.87521	11.27051
4.40263	-14.87521	11.27051
4.40682	-14.87521	11.27051
4.41110	-14.87521	11.27051
4.41534	-14.87521	11.27051
4.41954	-14.85324	11.27051
4.42374	-14.85324	11.27051
4.42793	-14.83127	11.27051
4.43212	-14.83127	11.27051
4.43631	-14.83127	11.27051
4.44058	-14.83127	11.27051
4.44485	-14.80929	11.27051
4.44905	-14.80929	11.27051
4.45335	-14.80929	11.27051
4.45753	-14.78732	11.27051
4.46172	-14.78732	11.27051
4.46590	-14.78732	11.27051
4.47009	-14.78732	11.27051
4.47438	-14.76535	11.27051
4.47859	-14.76535	11.27051
4.48278	-14.76535	11.27051
4.48700	-14.76535	11.27051
4.49119	-14.74338	11.27051
4.49538	-14.74338	11.27051
4.49957	-14.74338	11.27051
4.50397	-14.74338	11.27051
4.50821	-14.72140	11.27051
4.51240	-14.72140	11.27051
4.51658	-14.72140	11.27051
4.52078	-14.72140	11.27051
4.52496	-14.72140	11.27051
4.52915	-14.69943	11.27051
4.53343	-14.69943	11.27051
4.53771	-14.69943	11.27051
4.54191	-14.67746	11.27051
4.54610	-14.67746	11.27051
4.55029	-14.67746	11.27051
4.55457	-14.67746	11.27051
4.55876	-14.67746	11.27051
4.56302	-14.65548	11.27051
4.56729	-14.65548	11.27051
4.57150	-14.65548	11.27051
4.57569	-14.65548	11.27051
4.57988	-14.65548	11.27051
4.58406	-14.63351	11.27051
4.58825	-14.63351	11.27051
4.59244	-14.63351	11.27051
4.59674	-14.61154	11.27051
4.60095	-14.61154	11.27051
4.60514	-14.61154	11.27051
4.60933	-14.61154	11.27051
4.61352	-14.61154	11.27051
4.61771	-14.61154	11.27051
4.62190	-14.58957	11.27051
4.62633	-14.58957	11.27051
4.63054	-14.58957	11.27051
4.63473	-14.58957	11.27051
4.63892	-14.58957	11.27051
4.64311	-14.58957	11.27051
4.64729	-14.56759	11.27051
4.65148	-14.56759	11.27051
4.65589	-14.56759	11.27051
4.66014	-14.56759	11.27051
4.66432	-14.56759	11.27051
4.66850	-14.56759	11.27051
4.67269	-14.56759	11.27051
4.67688	-14.56759	11.27051
4.68106	-14.54562	11.27051
4.68532	-14.54562	11.27051
4.68960	-14.54562	11.27051
4.69380	-14.54562	11.27051
4.69798	-14.52365	11.27051
4.70217	-14.52365	11.27051
4.70635	-14.52365	11.27051
4.71054	-14.52365	11.27051
4.71472	-14.52365	11.27051
4.71902	-14.52365	11.27051
4.72324	-14.50168	11.27051
4.72742	-14.50168	11.27051
4.73161	-14.52365	11.27051
4.73580	-14.50168	11.27051
4.73998	-14.50168	11.27051
4.74417	-14.50168	11.27051
4.74854	-14.50168	11.27051
4.75274	-14.47970	11.27051
4.75704	-14.47970	11.27051
4.76122	-14.47970	11.27051
4.76541	-14.50168	11.27051
4.76959	-14.47970	11.27051
4.77378	-14.47970	11.27051
4.77806	-14.47970	11.27051
4.78232	-14.47970	11.27051
4.78652	-14.47970	11.27051
4.79070	-14.47970	11.27051
4.79489	-14.47970	11.27051
4.79907	-14.45773	11.27051
4.80326	-14.45773	11.27051
4.80752	-14.45773	11.27051
4.81180	-14.45773	11.27051
4.81600	-14.45773	11.27051
4.82021	-14.45773	11.27051
4.82440	-14.45773	11.27051
4.82858	-14.45773	11.27051
4.83277	-14.45773	11.27051
4.83695	-14.45773	11.27051
4.84126	-14.45773	11.27051
4.84546	-14.45773	11.27051
4.84965	-14.43576	11.27051
4.85383	-14.45773	11.27051
4.85812	-14.43576	11.27051
4.86237	-14.43576	11.27051
4.86655	-14.43576	11.27051
4.87099	-14.45773	11.27051
4.87520	-14.43576	11.27051
4.87939	-14.43576	11.27051
4.88357	-14.43576	11.27051
4.88776	-14.45773	11.27051
4.89195	-14.45773	11.27051
4.89613	-14.43576	11.27051
4.90042	-14.43576	11.27051
4.90469	-14.43576	11.27051
4.90889	-14.43576	11.27051
4.91307	-14.43576	11.27051
4.91726	-14.43576	11.27051
4.92145	-14.43576	11.27051
4.92563	-14.45773	11.27051
4.92989	-14.45773	11.27051
4.93417	-14.43576	11.27051
4.93837	-14.43576	11.27051
4.94256	-14.45773	11.27051
4.94674	-14.45773	11.27051
4.95093	-14.45773	11.27051
4.95511	-14.45773	11.27051
4.95940	-14.45773	11.27051
4.96369	-14.45773	11.27051
4.96789	-14.45773	11.27051
4.97208	-14.45773	11.27051
4.97628	-14.47970	11.27051
4.98046	-14.45773	11.27051
4.98465	-14.47970	11.27051
4.98883	-14.47970	11.27051
4.99324	-14.47970	11.27051
4.99745	-14.47970	11.27051
5.00163	-14.47970	11.27051
5.00582	-14.47970	11.27051
5.01000	-14.47970	11.27051
5.01419	-14.47970	11.27051
5.01837	-14.50168	11.27051
5.02265	-14.50168	11.27051
5.02690	-14.50168	11.27051
5.03110	-14.50168	11.27051
5.03529	-14.50168	11.27051
5.03948	-14.50168	11.27051
5.04366	-14.50168	11.27051
5.04785	-14.50168	11.27051
5.05209	-14.50168	11.27051
5.05638	-14.52365	11.27051
5.06068	-14.52365	11.27051
5.06487	-14.52365	11.27051
5.06905	-14.52365	11.27051
5.07324	-14.52365	11.27051
5.07742	-14.52365	11.27051
5.08161	-14.54562	11.27051
5.08590	-14.54562	11.27051
5.09012	-14.54562	11.27051
5.09430	-14.54562	11.27051
5.09849	-14.54562	11.27051
5.10267	-14.54562	11.27051
5.10686	-14.56759	11.27051
5.11104	-14.56759	11.27051
5.11543	-14.56759	11.27051
5.11964	-14.56759	11.27051
5.12383	-14.56759	11.27051
5.12802	-14.58957	11.27051
5.13221	-14.58957	11.27051
5.13639	-14.58957	11.27051
5.14058	-14.58957	11.27051
5.14486	-14.58957	11.27051
5.14911	-14.61154	11.27051
5.15332	-14.61154	11.27051
5.15750	-14.61154	11.27051
5.16180	-14.61154	11.27051
5.16601	-14.61154	11.27051
5.17019	-14.61154	11.27051
5.17444	-14.63351	11.27051
5.17872	-14.63351	11.27051
5.18292	-14.63351	11.27051
5.18711	-14.63351	11.27051
5.19129	-14.65548	11.27051
5.19548	-14.63351	11.27051
5.19966	-14.65548	11.27051
5.20385	-14.65548	11.27051
5.20815	-14.65548	11.27051
5.21233	-14.65548	11.27051
5.21651	-14.65548	11.27051
5.22070	-14.65548	11.27051
5.22489	-14.67746	11.27051
5.22907	-14.67746	11.27051
5.23325	-14.67746	11.27051
5.23767	-14.67746	11.27051
5.24188	-14.67746	11.27051
5.24607	-14.69943	11.27051
5.25025	-14.69943	11.27051
5.25444	-14.69943	11.27051
5.25862	-14.69943	11.27051
5.26291	-14.69943	11.27051
5.26718	-14.69943	11.27051
5.27144	-14.69943	11.27051
5.27563	-14.69943	11.27051
5.27982	-14.72140	11.27051
5.28401	-14.72140	11.27051
5.28820	-14.72140	11.27051
5.29239	-14.72140	11.27051
5.29663	-14.72140	11.27051
5.30091	-14.72140	11.27051
5.30511	-14.74338	11.27051
5.30930	-14.72140	11.27051
5.31349	-14.72140	11.27051
5.31767	-14.74338	11.27051
5.32186	-14.74338	11.27051
5.32604	-14.74338	11.27051
5.33033	-14.74338	11.27051
5.33454	-14.74338	11.27051
5.33872	-14.74338	11.27051
5.34291	-14.74338	11.27051
5.34710	-14.74338	11.27051
5.35128	-14.74338	11.27051
5.35546	-14.76535	11.27051
5.35986	-14.74338	11.27051
5.36422	-14.74338	11.27051
5.36841	-14.76535	11.27051
5.37260	-14.76535	11.27051
5.37679	-14.76535	11.27051
5.38098	-14.76535	11.27051
5.38517	-14.76535	11.27051
5.38944	-14.76535	11.27051
5.39371	-14.76535	11.27051
5.39791	-14.76535	11.27051
5.40209	-14.78732	11.27051
5.40628	-14.76535	11.27051
5.41047	-14.76535	11.27051
5.41466	-14.76535	11.27051
5.41891	-14.78732	11.27051
5.42319	-14.76535	11.27051
5.42739	-14.78732	11.27051
5.43157	-14.78732	11.27051
5.43576	-14.78732	11.27051
5.43994	-14.78732	11.27051
5.44413	-14.78732	11.27051
5.44831	-14.78732	11.27051
5.45260	-14.78732	11.27051
5.45682	-14.76535	11.27051
5.46101	-14.78732	11.27051
5.46530	-14.78732	11.27051
5.46949	-14.78732	11.27051
5.47367	-14.78732	11.27051
5.47786	-14.76535	11.27051
5.48226	-14.78732	11.27051
5.48651	-14.78732	11.27051
5.49071	-14.76535	11.27051
5.49490	-14.76535	11.27051
5.49909	-14.78732	11.27051
5.50328	-14.78732	11.27051
5.50746	-14.78732	11.27051
5.51174	-14.78732	11.27051
5.51599	-14.76535	11.27051
5.52020	-14.78732	11.27051
5.52439	-14.78732	11.27051
5.52858	-14.76535	11.27051
5.53276	-14.76535	11.27051
5.53696	-14.76535	11.27051
5.54121	-14.78732	11.27051
5.54548	-14.78732	11.27051
5.54968	-14.76535	11.27051
5.55386	-14.76535	11.27051
5.55805	-14.76535	11.27051
5.56223	-14.76535	11.27051
5.56652	-14.76535	11.27051
5.57070	-14.76535	11.27051
5.57500	-14.76535	11.27051
5.57920	-14.76535	11.27051
5.58339	-14.76535	11.27051
5.58757	-14.76535	11.27051
5.59176	-14.76535	11.27051
5.59595	-14.76535	11.27051
5.60013	-14.76535	11.27051
5.60455	-14.76535	11.27051
5.60877	-14.74338	11.27051
5.61296	-14.74338	11.27051
5.61715	-14.74338	11.27051
5.62134	-14.74338	11.27051
5.62553	-14.74338	11.27051
5.62971	-14.74338	11.27051
5.63399	-14.74338	11.27051
5.63826	-14.74338	11.27051
5.64246	-14.76535	11.27051
5.64665	-14.72140	11.27051
5.65083	-14.74338	11.27051
5.65502	-14.74338	11.27051
5.65920	-14.72140	11.27051
5.66344	-14.74338	11.27051
5.66782	-14.72140	11.27051
5.67202	-14.72140	11.27051
5.67622	-14.72140	11.27051
5.68041	-14.72140	11.27051
5.68459	-14.72140	11.27051
5.68878	-14.72140	11.27051
5.69296	-14.72140	11.27051
5.69726	-14.72140	11.27051
5.70146	-14.72140	11.27051
5.70567	-14.72140	11.27051
5.70986	-14.69943	11.27051
5.71404	-14.69943	11.27051
5.71823	-14.69943	11.27051
5.72241	-14.69943	11.27051
5.72683	-14.69943	11.27051
5.73104	-14.69943	11.27051
5.73522	-14.69943	11.27051
5.73942	-14.69943	11.27051
5.74360	-14.69943	11.27051
5.74779	-14.69943	11.27051
5.75197	-14.67746	11.27051
5.75626	-14.67746	11.27051
5.76052	-14.69943	11.27051
5.76471	-14.67746	11.27051
5.76900	-14.67746	11.27051
5.77318	-14.67746	11.27051
5.77737	-14.67746	11.27051
5.78155	-14.67746	11.27051
5.78579	-14.67746	11.27051
5.79006	-14.67746	11.27051
5.79426	-14.67746	11.27051
5.79844	-14.67746	11.27051
5.80263	-14.67746	11.27051
5.80683	-14.67746	11.27051
5.81102	-14.65548	11.27051
5.81520	-14.65548	11.27051
5.81950	-14.67746	11.27051
5.82372	-14.65548	11.27051
5.82792	-14.65548	11.27051
5.83210	-14.65548	11.27051
5.83631	-14.65548	11.27051
5.84050	-14.65548	11.27051
5.84468	-14.65548	11.27051
5.84907	-14.65548	11.27051
5.85329	-14.65548	11.27051
5.85748	-14.65548	11.27051
5.86167	-14.63351	11.27051
5.86587	-14.63351	11.27051
5.87016	-14.63351	11.27051
5.87435	-14.63351	11.27051
5.87862	-14.63351	11.27051
5.88287	-14.63351	11.27051
5.88708	-14.63351	11.27051
5.89126	-14.63351	11.27051
5.89545	-14.63351	11.27051
5.89963	-14.63351	11.27051
5.90383	-14.61154	11.27051
5.90809	-14.61154	11.27051
5.91236	-14.63351	11.27051
5.91657	-14.61154	11.27051
5.92077	-14.61154	11.27051
5.92496	-14.61154	11.27051
5.92914	-14.61154	11.27051
5.93333	-14.58957	11.27051
5.93751	-14.61154	11.27051
5.94180	-14.61154	11.27051
5.94601	-14.58957	11.27051
5.95020	-14.58957	11.27051
5.95439	-14.58957	11.27051
5.95857	-14.58957	11.27051
5.96275	-14.58957	11.27051
5.96694	-14.58957	11.27051
5.97143	-14.58957	11.27051
5.97566	-14.58957	11.27051
5.97985	-14.58957	11.27051
5.98403	-14.58957	11.27051
5.98823	-14.56759	11.27051
5.99242	-14.58957	11.27051
5.99660	-14.58957	11.27051
6.00087	-14.58957	11.27051
6.00514	-14.56759	11.27051
6.00934	-14.58957	11.27051
6.01353	-14.56759	11.27051
6.01771	-14.56759	11.27051
6.02191	-14.56759	11.27051
6.02609	-14.56759	11.27051
6.03034	-14.56759	11.27051
6.03460	-14.56759	11.27051
6.03881	-14.56759	11.27051
6.04301	-14.56759	11.27051
6.04719	-14.56759	11.27051
6.05138	-14.56759	11.27051
6.05557	-14.54562	11.27051
6.05976	-14.56759	11.27051
6.06405	-14.54562	11.27051
6.06827	-14.56759	11.27051
6.07257	-14.56759	11.27051
6.07675	-14.56759	11.27051
6.08094	-14.56759	11.27051
6.08512	-14.56759	11.27051
6.08930	-14.54562	11.27051
6.09369	-14.56759	11.27051
6.09792	-14.54562	11.27051
6.10212	-14.54562	11.27051
6.10632	-14.56759	11.27051
6.11050	-14.54562	11.27051
6.11469	-14.54562	11.27051
6.11888	-14.56759	11.27051
6.12317	-14.54562	11.27051
6.12742	-14.54562	11.27051
6.13161	-14.54562	11.27051
6.13580	-14.54562	11.27051
6.13999	-14.54562	11.27051
6.14419	-14.54562	11.27051
6.14837	-14.56759	11.27051
6.15262	-14.54562	11.27051
6.15688	-14.54562	11.27051
6.16109	-14.56759	11.27051
6.16534	-14.54562	11.27051
6.16955	-14.54562	11.27051
6.17386	-14.54562	11.27051
6.17805	-14.54562	11.27051
6.18224	-14.54562	11.27051
6.18655	-14.54562	11.27051
6.19079	-14.56759	11.27051
6.19498	-14.54562	11.27051
6.19917	-14.56759	11.27051
6.20336	-14.56759	11.27051
6.20756	-14.56759	11.27051
6.21174	-14.56759	11.27051
6.21615	-14.56759	11.27051
6.22035	-14.56759	11.27051
6.22456	-14.56759	11.27051
6.22875	-14.56759	11.27051
6.23294	-14.56759	11.27051
6.23712	-14.56759	11.27051
6.24131	-14.56759	11.27051
6.24558	-14.56759	11.27051
6.24982	-14.58957	11.27051
6.25403	-14.56759	11.27051
6.25822	-14.56759	11.27051
6.26241	-14.58957	11.27051
6.26659	-14.56759	11.27051
6.27078	-14.58957	11.27051
6.27513	-14.58957	11.27051
6.27938	-14.58957	11.27051
6.28359	-14.58957	11.27051
6.28778	-14.58957	11.27051
6.29196	-14.58957	11.27051
6.29615	-14.58957	11.27051
6.30031	-14.58957	11.27051
6.30451	-14.58957	11.27051
6.30881	-14.58957	11.27051
6.31302	-14.58957	11.27051
6.31722	-14.58957	11.27051
6.32141	-14.61154	11.27051
6.32560	-14.58957	11.27051
6.32978	-14.61154	11.27051
6.33397	-14.58957	11.27051
6.33835	-14.61154	11.27051
6.34257	-14.61154	11.27051
6.34677	-14.61154	11.27051
6.35096	-14.61154	11.27051
6.35514	-14.61154	11.27051
6.35933	-14.61154	11.27051
6.36357	-14.61154	11.27051
6.36786	-14.61154	11.27051
6.37212	-14.61154	11.27051
6.37643	-14.61154	11.27051
6.38062	-14.61154	11.27051
6.38480	-14.61154	11.27051
6.38899	-14.61154	11.27051
6.39317	-14.61154	11.27051
6.39742	-14.61154	11.27051
6.40168	-14.61154	11.27051
6.40591	-14.61154	11.27051
6.41011	-14.61154	11.27051
6.41430	-14.61154	11.27051
6.41849	-14.61154	11.27051
6.42268	-14.61154	11.27051
6.42686	-14.61154	11.27051
6.43115	-14.61154	11.27051
6.43536	-14.61154	11.27051
6.43957	-14.61154	11.27051
6.44376	-14.61154	11.27051
6.44796	-14.61154	11.27051
6.45214	-14.61154	11.27051
6.45631	-14.61154	11.27051
6.46070	-14.61154	11.27051
6.46492	-14.61154	11.27051
6.46911	-14.61154	11.27051
6.47330	-14.61154	11.27051
6.47760	-14.61154	11.27051
6.48179	-14.61154	11.27051
6.48601	-14.61154	11.27051
6.49030	-14.61154	11.27051
6.49455	-14.61154	11.27051
6.49874	-14.61154	11.27051
6.50294	-14.61154	11.27051
6.50715	-14.61154	11.27051
6.51134	-14.61154	11.27051
6.51553	-14.58957	11.27051
6.51978	-14.61154	11.27051
6.52405	-14.61154	11.27051
6.52827	-14.58957	11.27051
6.53246	-14.58957	11.27051
6.53665	-14.58957	11.27051
6.54083	-14.61154	11.27051
6.54502	-14.61154	11.27051
6.54921	-14.61154	11.27051
6.55351	-14.61154	11.27051
6.55773	-14.58957	11.27051
6.56192	-14.58957	11.27051
6.56610	-14.58957	11.27051
6.57029	-14.58957	11.27051
6.57447	-14.58957	11.27051
6.57876	-14.58957	11.27051
6.58315	-14.58957	11.27051
6.58738	-14.58957	11.27051
6.59157	-14.58957	11.27051
6.59575	-14.58957	11.27051
6.59994	-14.58957	11.27051
6.60412	-14.58957	11.27051
6.60832	-14.56759	11.27051
6.61260	-14.56759	11.27051
6.61686	-14.56759	11.27051
6.62107	-14.56759	11.27051
6.62525	-14.56759	11.27051
6.62944	-14.54562	11.27051
6.63362	-14.54562	11.27051
6.63781	-14.54562	11.27051
6.64206	-14.56759	11.27051
6.64632	-14.54562	11.27051
6.65053	-14.54562	11.27051
6.65472	-14.54562	11.27051
6.65890	-14.54562	11.27051
6.66309	-14.54562	11.27051
6.66727	-14.54562	11.27051
6.67146	-14.54562	11.27051
6.67574	-14.54562	11.27051
6.68006	-14.52365	11.27051
6.68426	-14.52365	11.27051
6.68845	-14.52365	11.27051
6.69263	-14.52365	11.27051
6.69682	-14.52365	11.27051
6.70100	-14.52365	11.27051
6.70540	-14.50168	11.27051
6.70963	-14.50168	11.27051
6.71382	-14.52365	11.27051
6.71801	-14.50168	11.27051
6.72220	-14.50168	11.27051
6.72639	-14.50168	11.27051
6.73057	-14.50168	11.27051
6.73484	-14.50168	11.27051
6.73910	-14.50168	11.27051
6.74330	-14.47970	11.27051
6.74749	-14.47970	11.27051
6.75168	-14.47970	11.27051
6.75586	-14.47970	11.27051
6.76005	-14.47970	11.27051
6.76430	-14.47970	11.27051
6.76856	-14.47970	11.27051
6.77277	-14.47970	11.27051
6.77696	-14.45773	11.27051
6.78125	-14.45773	11.27051
6.78543	-14.45773	11.27051
6.78962	-14.43576	11.27051
6.79380	-14.45773	11.27051
6.79808	-14.43576	11.27051
6.80230	-14.43576	11.27051
6.80651	-14.43576	11.27051
6.81070	-14.43576	11.27051
6.81490	-14.43576	11.27051
6.81909	-14.43576	11.27051
6.82327	-14.41379	11.27051
6.82765	-14.41379	11.27051
6.83188	-14.41379	11.27051
6.83608	-14.41379	11.27051
6.84028	-14.41379	11.27051
6.84447	-14.41379	11.27051
6.84866	-14.41379	11.27051
6.85285	-14.39181	11.27051
6.85713	-14.39181	11.27051
6.86139	-14.39181	11.27051
6.86560	-14.39181	11.27051
6.86980	-14.39181	11.27051
6.87399	-14.39181	11.27051
6.87818	-14.36984	11.27051
6.88247	-14.36984	11.27051
6.88673	-14.36984	11.27051
6.89099	-14.36984	11.27051
6.89520	-14.36984	11.27051
6.89938	-14.36984	11.27051
6.90357	-14.36984	11.27051
6.90778	-14.34787	11.27051
6.91196	-14.34787	11.27051
6.91616	-14.34787	11.27051
6.92043	-14.34787	11.27051
6.92464	-14.34787	11.27051
6.92883	-14.34787	11.27051
6.93302	-14.32589	11.27051
6.93720	-14.32589	11.27051
6.94139	-14.32589	11.27051
6.94557	-14.32589	11.27051
6.94996	-14.32589	11.27051
6.95418	-14.32589	11.27051
6.95837	-14.32589	11.27051
6.96256	-14.32589	11.27051
6.96674	-14.30392	11.27051
6.97093	-14.30392	11.27051
6.97511	-14.30392	11.27051
6.97940	-14.30392	11.27051
6.98375	-14.30392	11.27051
6.98795	-14.30392	11.27051
6.99214	-14.30392	11.27051
6.99631	-14.30392	11.27051
7.00049	-14.30392	11.27051
7.00469	-14.30392	11.27051
7.00899	-14.30392	11.27051
7.01327	-14.28195	11.27051
7.01748	-14.30392	11.27051
7.02168	-14.28195	11.27051
7.02587	-14.28195	11.27051
7.03005	-14.28195	11.27051
7.03424	-14.28195	11.27051
7.03843	-14.28195	11.27051
7.04271	-14.28195	11.27051
7.04693	-14.28195	11.27051
7.05113	-14.28195	11.27051
7.05532	-14.28195	11.27051
7.05950	-14.25998	11.27051
7.06369	-14.25998	11.27051
7.06787	-14.28195	11.27051
7.07228	-14.25998	11.27051
7.07651	-14.25998	11.27051
7.08069	-14.28195	11.27051
7.08498	-14.25998	11.27051
7.08917	-14.25998	11.27051
7.09335	-14.25998	11.27051
7.09754	-14.25998	11.27051
7.10182	-14.25998	11.27051
7.10610	-14.25998	11.27051
7.11029	-14.25998	11.27051
7.11449	-14.25998	11.27051
7.11867	-14.25998	11.27051
7.12287	-14.25998	11.27051
7.12706	-14.23800	11.27051
7.13131	-14.23800	11.27051
7.13557	-14.23800	11.27051
7.13979	-14.25998	11.27051
7.14398	-14.23800	11.27051
7.14816	-14.23800	11.27051
7.15231	-14.23800	11.27051
7.15650	-14.23800	11.27051
7.16069	-14.23800	11.27051
7.16502	-14.23800	11.27051
7.16925	-14.23800	11.27051
7.17344	-14.23800	11.27051
7.17763	-14.23800	11.27051
7.18181	-14.23800	11.27051
7.18611	-14.23800	11.27051
7.19030	-14.23800	11.27051
7.19470	-14.23800	11.27051
7.19892	-14.21603	11.27051
7.20312	-14.21603	11.27051
7.20732	-14.21603	11.27051
7.21151	-14.21603	11.27051
7.21570	-14.21603	11.27051
7.21989	-14.21603	11.27051
7.22419	-14.21603	11.27051
7.22845	-14.21603	11.27051
7.23265	-14.21603	11.27051
7.23684	-14.21603	11.27051
7.24102	-14.19406	11.27051
7.24521	-14.19406	11.27051
7.24939	-14.19406	11.27051
7.25373	-14.19406	11.27051
7.25810	-14.19406	11.27051
7.26234	-14.19406	11.27051
7.26658	-14.19406	11.27051
7.27082	-14.19406	11.27051
7.27503	-14.19406	11.27051
7.27926	-14.19406	11.27051
7.28374	-14.17209	11.27051
7.28825	-14.19406	11.27051
7.29248	-14.19406	11.27051
7.29668	-14.17209	11.27051
7.30088	-14.17209	11.27051
7.30508	-14.17209	11.27051
7.30929	-14.17209	11.27051
7.31349	-14.17209	11.27051
7.31781	-14.17209	11.27051
7.32205	-14.17209	11.27051
7.32625	-14.17209	11.27051
7.33045	-14.17209	11.27051
7.33464	-14.17209	11.27051
7.33884	-14.17209	11.27051
7.34304	-14.17209	11.27051
7.34736	-14.17209	11.27051
7.35162	-14.17209	11.27051
7.35583	-14.17209	11.27051
7.36002	-14.17209	11.27051
7.36422	-14.17209	11.27051
7.36842	-14.17209	11.27051
7.37261	-14.17209	11.27051
7.37685	-14.15011	11.27051
7.38113	-14.17209	11.27051
7.38533	-14.15011	11.27051
7.38964	-14.17209	11.27051
7.39383	-14.17209	11.27051
7.39802	-14.17209	11.27051
7.40221	-14.17209	11.27051
7.40640	-14.15011	11.27051
7.41070	-14.17209	11.27051
7.41491	-14.15011	11.27051
7.41910	-14.17209	11.27051
7.42329	-14.17209	11.27051
7.42747	-14.17209	11.27051
7.43165	-14.17209	11.27051
7.43584	-14.17209	11.27051
7.44040	-14.17209	11.27051
7.44461	-14.17209	11.27051
7.44880	-14.17209	11.27051
7.45300	-14.17209	11.27051
7.45719	-14.17209	11.27051
7.46137	-14.17209	11.27051
7.46556	-14.19406	11.27051
7.46982	-14.19406	11.27051
7.47410	-14.19406	11.27051
7.47829	-14.19406	11.27051
7.48248	-14.19406	11.27051
7.48667	-14.19406	11.27051
7.49096	-14.21603	11.27051
7.49514	-14.19406	11.27051
7.49939	-14.21603	11.27051
7.50367	-14.21603	11.27051
7.50787	-14.21603	11.27051
7.51206	-14.21603	11.27051
7.51626	-14.21603	11.27051
7.52044	-14.21603	11.27051
7.52463	-14.23800	11.27051
7.52881	-14.23800	11.27051
7.53311	-14.23800	11.27051
7.53731	-14.23800	11.27051
7.54149	-14.23800	11.27051
7.54568	-14.23800	11.27051
7.54986	-14.23800	11.27051
7.55404	-14.25998	11.27051
7.55823	-14.25998	11.27051
7.56264	-14.25998	11.27051
7.56685	-14.25998	11.27051
7.57103	-14.28195	11.27051
7.57521	-14.28195	11.27051
7.57940	-14.28195	11.27051
7.58358	-14.28195	11.27051
7.58776	-14.28195	11.27051
7.59213	-14.30392	11.27051
7.59638	-14.30392	11.27051
7.60057	-14.30392	11.27051
7.60476	-14.32589	11.27051
7.60894	-14.32589	11.27051
7.61312	-14.32589	11.27051
7.61731	-14.32589	11.27051
7.62155	-14.32589	11.27051
7.62583	-14.34787	11.27051
7.63003	-14.34787	11.27051
7.63422	-14.34787	11.27051
7.63840	-14.34787	11.27051
7.64258	-14.34787	11.27051
7.64676	-14.36984	11.27051
7.65095	-14.36984	11.27051
7.65524	-14.39181	11.27051
7.65944	-14.39181	11.27051
7.66362	-14.39181	11.27051
7.66780	-14.39181	11.27051
7.67199	-14.39181	11.27051
7.67617	-14.39181	11.27051
7.68036	-14.41379	11.27051
7.68477	-14.41379	11.27051
7.68898	-14.43576	11.27051
7.69327	-14.43576	11.27051
7.69745	-14.43576	11.27051
7.70163	-14.43576	11.27051
7.70582	-14.43576	11.27051
7.71000	-14.45773	11.27051
7.71426	-14.45773	11.27051
7.71854	-14.45773	11.27051
7.72274	-14.47970	11.27051
7.72692	-14.47970	11.27051
7.73111	-14.50168	11.27051
7.73529	-14.50168	11.27051
7.73948	-14.50168	11.27051
7.74372	-14.50168	11.27051
7.74800	-14.50168	11.27051
7.75221	-14.50168	11.27051
7.75640	-14.52365	11.27051
7.76058	-14.52365	11.27051
7.76477	-14.52365	11.27051
7.76895	-14.54562	11.27051
7.77313	-14.54562	11.27051
7.77742	-14.54562	11.27051
7.78162	-14.56759	11.27051
7.78581	-14.56759	11.27051
7.78999	-14.56759	11.27051
7.79428	-14.56759	11.27051
7.79846	-14.58957	11.27051
7.80265	-14.58957	11.27051
7.80706	-14.58957	11.27051
7.81127	-14.61154	11.27051
7.81545	-14.61154	11.27051
7.81964	-14.63351	11.27051
7.82382	-14.63351	11.27051
7.82801	-14.63351	11.27051
7.83220	-14.63351	11.27051
7.83647	-14.65548	11.27051
7.84074	-14.65548	11.27051
7.84493	-14.65548	11.27051
7.84911	-14.65548	11.27051
7.85329	-14.67746	11.27051
7.85748	-14.67746	11.27051
7.86166	-14.69943	11.27051
7.86591	-14.69943	11.27051
7.87019	-14.69943	11.27051
7.87439	-14.69943	11.27051
7.87857	-14.69943	11.27051
7.88276	-14.72140	11.27051
7.88694	-14.72140	11.27051
7.89113	-14.74338	11.27051
7.89541	-14.74338	11.27051
7.89971	-14.76535	11.27051
7.90391	-14.76535	11.27051
7.90810	-14.76535	11.27051
7.91229	-14.76535	11.27051
7.91647	-14.78732	11.27051
7.92066	-14.78732	11.27051
7.92484	-14.80929	11.27051
7.92926	-14.80929	11.27051
7.93346	-14.83127	11.27051
7.93764	-14.80929	11.27051
7.94183	-14.83127	11.27051
7.94601	-14.83127	11.27051
7.95020	-14.85324	11.27051
7.95438	-14.85324	11.27051
7.95865	-14.85324	11.27051
7.96292	-14.85324	11.27051
7.96711	-14.87521	11.27051
7.97129	-14.89718	11.27051
7.97548	-14.89718	11.27051
7.97966	-14.89718	11.27051
7.98384	-14.89718	11.27051
7.98808	-14.91916	11.27051
7.99237	-14.91916	11.27051
7.99668	-14.94113	11.27051
8.00086	-14.94113	11.27051
8.00507	-14.94113	11.27051
8.00927	-14.94113	11.27051
8.01346	-14.96310	11.27051
8.01765	-14.98507	11.27051
8.02196	-14.98507	11.27051
8.02616	-14.98507	11.27051
8.03035	-15.00705	11.27051
8.03454	-15.00705	11.27051
8.03873	-15.00705	11.27051
8.04292	-15.00705	11.27051
8.04711	-15.02902	11.27051
8.05153	-15.05099	11.27051
8.05573	-15.05099	11.27051
8.05992	-15.05099	11.27051
8.06411	-15.05099	11.27051
8.06831	-15.05099	11.27051
8.07250	-15.09494	11.27051
8.07669	-15.09494	11.27051
8.08099	-15.09494	11.27051
8.08526	-15.09494	11.27051
8.08945	-15.11691	11.27051
8.09364	-15.11691	11.27051
8.09793	-15.11691	11.27051
8.10211	-15.13888	11.27051
8.10629	-15.16086	11.27051
8.11054	-15.16086	11.27051
8.11482	-15.16086	11.27051
8.11901	-15.16086	11.27051
8.12320	-15.16086	11.27051
8.12738	-15.18283	11.27051
8.13157	-15.18283	11.27051
8.13575	-15.20480	11.27051
8.13994	-15.20480	11.27051
8.14424	-15.22677	11.27051
8.14844	-15.22677	11.27051
8.15263	-15.22677	11.27051
8.15681	-15.24875	11.27051
8.16099	-15.24875	11.27051
8.16518	-15.24875	11.27051
8.16936	-15.27072	11.27051
8.17379	-15.27072	11.27051
8.17799	-15.29269	11.27051
8.18218	-15.29269	11.27051
8.18636	-15.29269	11.27051
8.19055	-15.29269	11.27051
8.19473	-15.31466	11.27051
8.19902	-15.31466	11.27051
8.20329	-15.33664	11.27051
8.20757	-15.33664	11.27051
8.21177	-15.35861	11.27051
8.21595	-15.35861	11.27051
8.22014	-15.35861	11.27051
8.22437	-15.35861	11.27051
8.22857	-15.38058	11.27051
8.23292	-15.38058	11.27051
8.23722	-15.40256	11.27051
8.24142	-15.40256	11.27051
8.24561	-15.40256	11.27051
8.24979	-15.40256	11.27051
8.25398	-15.42453	11.27051
8.25817	-15.42453	11.27051
8.26235	-15.44650	11.27051
8.26666	-15.44650	11.27051
8.27087	-15.44650	11.27051
8.27506	-15.46847	11.27051
8.27924	-15.46847	11.27051
8.28343	-15.46847	11.27051
8.28761	-15.49045	11.27051
8.29180	-15.49045	11.27051
8.29626	-15.49045	11.27051
8.30057	-15.49045	11.27051
8.30476	-15.51242	11.27051
8.30894	-15.51242	11.27051
8.31313	-15.53439	11.27051
8.31731	-15.53439	11.27051
8.32149	-15.53439	11.27051
8.32576	-15.55636	11.27051
8.33003	-15.55636	11.27051
8.33422	-15.57834	11.27051
8.33841	-15.57834	11.27051
8.34259	-15.57834	11.27051
8.34678	-15.60031	11.27051
8.35096	-15.60031	11.27051
8.35522	-15.60031	11.27051
8.35951	-15.62228	11.27051
8.36371	-15.62228	11.27051
8.36789	-15.64425	11.27051
8.37208	-15.64425	11.27051
8.37627	-15.64425	11.27051
8.38045	-15.64425	11.27051
8.38464	-15.66623	11.27051
8.38893	-15.66623	11.27051
8.39312	-15.68820	11.27051
8.39731	-15.68820	11.27051
8.40159	-15.68820	11.27051
8.40578	-15.68820	11.27051
8.40996	-15.71017	11.27051
8.41414	-15.71017	11.27051
8.41856	-15.71017	11.27051
8.42276	-15.73214	11.27051
8.42695	-15.75412	11.27051
8.43113	-15.75412	11.27051
8.43532	-15.75412	11.27051
8.43954	-15.75412	11.27051
8.44372	-15.77609	11.27051
8.44799	-15.77609	11.27051
8.45229	-15.79806	11.27051
8.45649	-15.79806	11.27051
8.46069	-15.79806	11.27051
8.46487	-15.82004	11.27051
8.46906	-15.82004	11.27051
8.47324	-15.82004	11.27051
8.47749	-15.84201	11.27051
8.48177	-15.84201	11.27051
8.48597	-15.84201	11.27051
8.49015	-15.86398	11.27051
8.49434	-15.86398	11.27051
8.49852	-15.88595	11.27051
8.50281	-15.88595	11.27051
8.50699	-15.88595	11.27051
8.51129	-15.88595	11.27051
8.51550	-15.90793	11.27051
8.51968	-15.90793	11.27051
8.52386	-15.92990	11.27051
8.52805	-15.92990	11.27051
8.53224	-15.92990	11.27051
8.53642	-15.95187	11.27051
8.54084	-15.95187	11.27051
8.54504	-15.97384	11.27051
8.54923	-15.97384	11.27051
8.55344	-15.97384	11.27051
8.55763	-15.99582	11.27051
8.56182	-15.99582	11.27051
8.56601	-15.99582	11.27051
8.57027	-16.01779	11.27051
8.57455	-16.01779	11.27051
8.57874	-16.01779	11.27051
8.58293	-16.03976	11.27051
8.58712	-16.03976	11.27051
8.59130	-16.03976	11.27051
8.59548	-16.03976	11.27051
8.59973	-16.03976	11.27051
8.60411	-16.06173	11.27051
8.60834	-16.06173	11.27051
8.61253	-16.06173	11.27051
8.61671	-16.08371	11.27051
8.62090	-16.08371	11.27051
8.62508	-16.10568	11.27051
8.62927	-16.10568	11.27051
8.63358	-16.10568	11.27051
8.63778	-16.12765	11.27051
8.64196	-16.12765	11.27051
8.64615	-16.12765	11.27051
8.65033	-16.12765	11.27051
8.65452	-16.14963	11.27051
8.65870	-16.14963	11.27051
8.66312	-16.17160	11.27051
8.66733	-16.17160	11.27051
8.67152	-16.17160	11.27051
8.67570	-16.17160	11.27051
8.67988	-16.19357	11.27051
8.68407	-16.17160	11.27051
8.68826	-16.19357	11.27051
8.69253	-16.19357	11.27051
8.69679	-16.19357	11.27051
8.70098	-16.19357	11.27051
8.70527	-16.21554	11.27051
8.70945	-16.21554	11.27051
8.71363	-16.21554	11.27051
8.71782	-16.21554	11.27051
8.72206	-16.21554	11.27051
8.72634	-16.23752	11.27051
8.73054	-16.23752	11.27051
8.73472	-16.23752	11.27051
8.73891	-16.25949	11.27051
8.74309	-16.25949	11.27051
8.74727	-16.25949	11.27051
8.75146	-16.25949	11.27051
8.75576	-16.25949	11.27051
8.75996	-16.25949	11.27051
8.76416	-16.25949	11.27051
8.76831	-16.25949	11.27051
8.77249	-16.28146	11.27051
8.77668	-16.28146	11.27051
8.78086	-16.28146	11.27051
8.78526	-16.28146	11.27051
8.78947	-16.28146	11.27051
8.79365	-16.28146	11.27051
8.79784	-16.28146	11.27051
8.80202	-16.30343	11.27051
8.80631	-16.30343	11.27051
8.81049	-16.30343	11.27051
8.81477	-16.30343	11.27051
8.81903	-16.30343	11.27051
8.82322	-16.30343	11.27051
8.82741	-16.30343	11.27051
8.83159	-16.30343	11.27051
8.83578	-16.30343	11.27051
8.83996	-16.30343	11.27051
8.84421	-16.32541	11.27051
8.84849	-16.30343	11.27051
8.85269	-16.30343	11.27051
8.85688	-16.32541	11.27051
8.86106	-16.30343	11.27051
8.86525	-16.32541	11.27051
8.86943	-16.30343	11.27051
8.87361	-16.30343	11.27051
8.87791	-16.30343	11.27051
8.88211	-16.32541	11.27051
8.88629	-16.30343	11.27051
8.89047	-16.32541	11.27051
8.89466	-16.30343	11.27051
8.89884	-16.30343	11.27051
8.90302	-16.30343	11.27051
8.90755	-16.30343	11.27051
8.91175	-16.30343	11.27051
8.91593	-16.30343	11.27051
8.92011	-16.30343	11.27051
8.92430	-16.30343	11.27051
8.92852	-16.30343	11.27051
8.93270	-16.30343	11.27051
8.93697	-16.28146	11.27051
8.94124	-16.28146	11.27051
8.94543	-16.28146	11.27051
8.94962	-16.28146	11.27051
8.95380	-16.28146	11.27051
8.95798	-16.28146	11.27051
8.96217	-16.28146	11.27051
8.96642	-16.28146	11.27051
8.97070	-16.28146	11.27051
8.97490	-16.28146	11.27051
8.97908	-16.25949	11.27051
8.98326	-16.25949	11.27051
8.98745	-16.25949	11.27051
8.99163	-16.25949	11.27051
8.99581	-16.25949	11.27051
9.00011	-16.25949	11.27051
9.00432	-16.23752	11.27051
9.00861	-16.23752	11.27051
9.01280	-16.23752	11.27051
9.01698	-16.23752	11.27051
9.02117	-16.23752	11.27051
9.02535	-16.21554	11.27051
9.02977	-16.21554	11.27051
9.03398	-16.21554	11.27051
9.03816	-16.21554	11.27051
9.04235	-16.21554	11.27051
9.04653	-16.21554	11.27051
9.05071	-16.19357	11.27051
9.05490	-16.19357	11.27051
9.05916	-16.19357	11.27051
9.06343	-16.19357	11.27051
9.06762	-16.17160	11.27051
9.07181	-16.17160	11.27051
9.07599	-16.17160	11.27051
9.08019	-16.17160	11.27051
9.08437	-16.17160	11.27051
9.08862	-16.14963	11.27051
9.09290	-16.14963	11.27051
9.09710	-16.14963	11.27051
9.10129	-16.14963	11.27051
9.10547	-16.14963	11.27051
9.10976	-16.12765	11.27051
9.11394	-16.12765	11.27051
9.11813	-16.10568	11.27051
9.12242	-16.10568	11.27051
9.12662	-16.08371	11.27051
9.13080	-16.08371	11.27051
9.13498	-16.08371	11.27051
9.13917	-16.08371	11.27051
9.14335	-16.08371	11.27051
9.14754	-16.06173	11.27051
9.15194	-16.06173	11.27051
9.15614	-16.06173	11.27051
9.16031	-16.03976	11.27051
9.16451	-16.03976	11.27051
9.16869	-16.03976	11.27051
9.17288	-16.01779	11.27051
9.17706	-16.01779	11.27051
9.18132	-16.01779	11.27051
9.18559	-15.99582	11.27051
9.18979	-15.99582	11.27051
9.19398	-15.99582	11.27051
9.19817	-15.97384	11.27051
9.20236	-15.97384	11.27051
9.20655	-15.95187	11.27051
9.21091	-15.97384	11.27051
9.21519	-15.95187	11.27051
9.21940	-15.95187	11.27051
9.22359	-15.92990	11.27051
9.22778	-15.92990	11.27051
9.23197	-15.92990	11.27051
9.23616	-15.90793	11.27051
9.24031	-15.90793	11.27051
9.24462	-15.88595	11.27051
9.24882	-15.88595	11.27051
9.25302	-15.88595	11.27051
9.25721	-15.86398	11.27051
9.26140	-15.86398	11.27051
9.26559	-15.84201	11.27051
9.26979	-15.84201	11.27051
9.27421	-15.84201	11.27051
9.27842	-15.84201	11.27051
9.28262	-15.82004	11.27051
9.28681	-15.82004	11.27051
9.29100	-15.79806	11.27051
9.29519	-15.79806	11.27051
9.29938	-15.79806	11.27051
9.30370	-15.77609	11.27051
9.30797	-15.77609	11.27051
9.31229	-15.77609	11.27051
9.31648	-15.77609	11.27051
9.32067	-15.75412	11.27051
9.32486	-15.75412	11.27051
9.32905	-15.75412	11.27051
9.33331	-15.73214	11.27051
9.33760	-15.73214	11.27051
9.34180	-15.73214	11.27051
9.34600	-15.73214	11.27051
9.35019	-15.71017	11.27051
9.35438	-15.71017	11.27051
9.35857	-15.71017	11.27051
9.36276	-15.66623	11.27051
9.36706	-15.68820	11.27051
9.37127	-15.66623	11.27051
9.37546	-15.66623	11.27051
9.37965	-15.66623	11.27051
9.38384	-15.64425	11.27051
9.38803	-15.64425	11.27051
9.39223	-15.64425	11.27051
9.39663	-15.62228	11.27051
9.40084	-15.60031	11.27051
9.40503	-15.60031	11.27051
9.40922	-15.60031	11.27051
9.41353	-15.60031	11.27051
9.41772	-15.60031	11.27051
9.42191	-15.57834	11.27051
9.42621	-15.57834	11.27051
9.43047	-15.57834	11.27051
9.43467	-15.55636	11.27051
9.43890	-15.55636	11.27051
9.44309	-15.55636	11.27051
9.44729	-15.53439	11.27051
9.45148	-15.53439	11.27051
9.45573	-15.53439	11.27051
9.46002	-15.53439	11.27051
9.46423	-15.53439	11.27051
9.46843	-15.51242	11.27051
9.47262	-15.51242	11.27051
9.47682	-15.51242	11.27051
9.48101	-15.51242	11.27051
9.48520	-15.51242	11.27051
9.48950	-15.49045	11.27051
9.49370	-15.49045	11.27051
9.49789	-15.49045	11.27051
9.50208	-15.49045	11.27051
9.50628	-15.46847	11.27051
9.51047	-15.46847	11.27051
9.51477	-15.46847	11.27051
9.51916	-15.44650	11.27051
9.52337	-15.44650	11.27051
9.52757	-15.44650	11.27051
9.53176	-15.44650	11.27051
9.53595	-15.44650	11.27051
9.54014	-15.42453	11.27051
9.54431	-15.42453	11.27051
9.54863	-15.42453	11.27051
9.55289	-15.40256	11.27051
9.55708	-15.40256	11.27051
9.56127	-15.40256	11.27051
9.56546	-15.40256	11.27051
9.56965	-15.40256	11.27051
9.57384	-15.38058	11.27051
9.57809	-15.40256	11.27051
9.58237	-15.38058	11.27051
9.58658	-15.38058	11.27051
9.59077	-15.38058	11.27051
9.59496	-15.38058	11.27051
9.59915	-15.38058	11.27051
9.60334	-15.35861	11.27051
9.60753	-15.35861	11.27051
9.61185	-15.35861	11.27051
9.61619	-15.35861	11.27051
9.62039	-15.35861	11.27051
9.62458	-15.35861	11.27051
9.62877	-15.35861	11.27051
9.63296	-15.33664	11.27051
9.63715	-15.33664	11.27051
9.64155	-15.33664	11.27051
9.64576	-15.33664	11.27051
9.64995	-15.33664	11.27051
9.65414	-15.33664	11.27051
9.65833	-15.31466	11.27051
9.66252	-15.31466	11.27051
9.66671	-15.31466	11.27051
9.67103	-15.31466	11.27051
9.67529	-15.31466	11.27051
9.67949	-15.31466	11.27051
9.68368	-15.31466	11.27051
9.68787	-15.31466	11.27051
9.69206	-15.29269	11.27051
9.69626	-15.29269	11.27051
9.70051	-15.29269	11.27051
9.70480	-15.29269	11.27051
9.70902	-15.29269	11.27051
9.71322	-15.29269	11.27051
9.71753	-15.27072	11.27051
9.72173	-15.27072	11.27051
9.72592	-15.27072	11.27051
9.73011	-15.27072	11.27051
9.73442	-15.27072	11.27051
9.73863	-15.27072	11.27051
9.74282	-15.27072	11.27051
9.74701	-15.27072	11.27051
9.75120	-15.27072	11.27051
9.75539	-15.27072	11.27051
9.75958	-15.27072	11.27051
9.76397	-15.27072	11.27051
9.76819	-15.24875	11.27051
9.77238	-15.24875	11.27051
9.77657	-15.24875	11.27051
9.78076	-15.24875	11.27051
9.78495	-15.24875	11.27051
9.78914	-15.24875	11.27051
9.79345	-15.24875	11.27051
9.79772	-15.22677	11.27051
9.80193	-15.22677	11.27051
9.80612	-15.22677	11.27051
9.81033	-15.24875	11.27051
9.81453	-15.22677	11.27051
9.81884	-15.22677	11.27051
9.82310	-15.22677	11.27051
9.82738	-15.22677	11.27051
9.83158	-15.22677	11.27051
9.83578	-15.22677	11.27051
9.83997	-15.22677	11.27051
9.84416	-15.22677	11.27051
9.84831	-15.22677	11.27051
9.85250	-15.22677	11.27051
9.85681	-15.22677	11.27051
9.86101	-15.20480	11.27051
9.86520	-15.22677	11.27051
9.86939	-15.20480	11.27051
9.87359	-15.22677	11.27051
9.87777	-15.20480	11.27051
9.88196	-15.20480	11.27051
9.88636	-15.20480	11.27051
9.89056	-15.20480	11.27051
9.89475	-15.20480	11.27051
9.89894	-15.20480	11.27051
9.90314	-15.20480	11.27051
9.90733	-15.20480	11.27051
9.91154	-15.20480	11.27051
9.91587	-15.22677	11.27051
9.92027	-15.20480	11.27051
9.92448	-15.20480	11.27051
9.92867	-15.20480	11.27051
9.93286	-15.20480	11.27051
9.93705	-15.20480	11.27051
9.94125	-15.20480	11.27051
9.94551	-15.20480	11.27051
9.94980	-15.20480	11.27051
9.95401	-15.20480	11.27051
9.95820	-15.20480	11.27051
9.96239	-15.20480	11.27051
9.96658	-15.20480	11.27051
9.97077	-15.20480	11.27051
9.97496	-15.20480	11.27051
9.97927	-15.20480	11.27051
9.98348	-15.20480	11.27051
9.98767	-15.20480	11.27051
9.99187	-15.20480	11.27051
9.99607	-15.20480	11.27051
10.00027	-15.20480	11.27051
10.00447	-15.20480	11.27051
10.00886	-15.20480	11.27051
10.01307	-15.20480	11.27051
10.01726	-15.20480	11.27051
10.02155	-15.20480	11.27051
10.02574	-15.20480	11.27051
10.02992	-15.20480	11.27051
10.03410	-15.22677	11.27051
10.03837	-15.20480	11.27051
10.04263	-15.20480	11.27051
10.04682	-15.20480	11.27051
10.05100	-15.20480	11.27051
10.05519	-15.20480	11.27051
10.05937	-15.20480	11.27051
10.06356	-15.20480	11.27051
10.06780	-15.20480	11.27051
10.07208	-15.20480	11.27051
10.07629	-15.20480	11.27051
10.08048	-15.22677	11.27051
10.08467	-15.22677	11.27051
10.08885	-15.22677	11.27051
10.09304	-15.22677	11.27051
10.09722	-15.22677	11.27051
10.10152	-15.22677	11.27051
10.10572	-15.22677	11.27051
10.10991	-15.22677	11.27051
10.11410	-15.22677	11.27051
10.11828	-15.24875	11.27051
10.12257	-15.24875	11.27051
10.12676	-15.24875	11.27051
10.13117	-15.22677	11.27051
10.13539	-15.24875	11.27051
10.13957	-15.24875	11.27051
10.14376	-15.24875	11.27051
10.14794	-15.24875	11.27051
10.15213	-15.24875	11.27051
10.15632	-15.24875	11.27051
10.16058	-15.24875	11.27051
10.16484	-15.24875	11.27051
10.16903	-15.24875	11.27051
10.17323	-15.24875	11.27051
10.17741	-15.24875	11.27051
10.18160	-15.27072	11.27051
10.18578	-15.27072	11.27051
10.19003	-15.27072	11.27051
10.19431	-15.27072	11.27051
10.19850	-15.27072	11.27051
10.20269	-15.27072	11.27051
10.20688	-15.27072	11.27051
10.21106	-15.27072	11.27051
10.21525	-15.27072	11.27051
10.21943	-15.27072	11.27051
10.22384	-15.27072	11.27051
10.22803	-15.27072	11.27051
10.23223	-15.27072	11.27051
10.23642	-15.27072	11.27051
10.24060	-15.27072	11.27051
10.24478	-15.29269	11.27051
10.24897	-15.29269	11.27051
10.25337	-15.29269	11.27051
10.25758	-15.29269	11.27051
10.26177	-15.29269	11.27051
10.26595	-15.27072	11.27051
10.27014	-15.29269	11.27051
10.27434	-15.29269	11.27051
10.27853	-15.29269	11.27051
10.28281	-15.29269	11.27051
10.28707	-15.29269	11.27051
10.29126	-15.29269	11.27051
10.29544	-15.29269	11.27051
10.29963	-15.29269	11.27051
10.30381	-15.29269	11.27051
10.30800	-15.29269	11.27051
10.31228	-15.29269	11.27051
10.31656	-15.29269	11.27051
10.32077	-15.29269	11.27051
10.32506	-15.29269	11.27051
10.32924	-15.29269	11.27051
10.33343	-15.29269	11.27051
10.33761	-15.29269	11.27051
10.34179	-15.29269	11.27051
10.34609	-15.29269	11.27051
10.35029	-15.31466	11.27051
10.35448	-15.31466	11.27051
10.35867	-15.31466	11.27051
10.36285	-15.29269	11.27051
10.36704	-15.29269	11.27051
10.37122	-15.29269	11.27051
10.37563	-15.29269	11.27051
10.37984	-15.29269	11.27051
10.38403	-15.29269	11.27051
10.38822	-15.31466	11.27051
10.39241	-15.31466	11.27051
10.39659	-15.29269	11.27051
10.40078	-15.31466	11.27051
10.40505	-15.29269	11.27051
10.40931	-15.29269	11.27051
10.41350	-15.31466	11.27051
10.41769	-15.29269	11.27051
10.42187	-15.29269	11.27051
10.42616	-15.29269	11.27051
10.43035	-15.29269	11.27051
10.43459	-15.31466	11.27051
10.43892	-15.31466	11.27051
10.44313	-15.29269	11.27051
10.44731	-15.29269	11.27051
10.45150	-15.29269	11.27051
10.45568	-15.29269	11.27051
10.45987	-15.29269	11.27051
10.46405	-15.29269	11.27051
10.46837	-15.29269	11.27051
10.47257	-15.29269	11.27051
10.47676	-15.29269	11.27051
10.48095	-15.29269	11.27051
10.48513	-15.29269	11.27051
10.48932	-15.29269	11.27051
10.49350	-15.27072	11.27051
10.49790	-15.29269	11.27051
10.50212	-15.27072	11.27051
10.50630	-15.27072	11.27051
10.51049	-15.27072	11.27051
10.51467	-15.27072	11.27051
10.51886	-15.27072	11.27051
10.52304	-15.27072	11.27051
10.52742	-15.27072	11.27051
10.53168	-15.27072	11.27051
10.53588	-15.27072	11.27051
10.54006	-15.27072	11.27051
10.54426	-15.27072	11.27051
10.54844	-15.24875	11.27051
10.55263	-15.24875	11.27051
10.55687	-15.24875	11.27051
10.56115	-15.24875	11.27051
10.56535	-15.24875	11.27051
10.56954	-15.24875	11.27051
10.57372	-15.24875	11.27051
10.57792	-15.24875	11.27051
10.58210	-15.24875	11.27051
10.58629	-15.22677	11.27051
10.59058	-15.22677	11.27051
10.59478	-15.22677	11.27051
10.59897	-15.22677	11.27051
10.60315	-15.22677	11.27051
10.60734	-15.22677	11.27051
10.61152	-15.20480	11.27051
10.61570	-15.20480	11.27051
10.62011	-15.22677	11.27051
10.62433	-15.22677	11.27051
10.62862	-15.20480	11.27051
10.63280	-15.18283	11.27051
10.63698	-15.20480	11.27051
10.64117	-15.18283	11.27051
10.64535	-15.18283	11.27051
10.64961	-15.18283	11.27051
10.65388	-15.18283	11.27051
10.65808	-15.18283	11.27051
10.66227	-15.18283	11.27051
10.66646	-15.16086	11.27051
10.67065	-15.16086	11.27051
10.67484	-15.16086	11.27051
10.67908	-15.16086	11.27051
10.68336	-15.16086	11.27051
10.68757	-15.13888	11.27051
10.69177	-15.13888	11.27051
10.69595	-15.13888	11.27051
10.70014	-15.13888	11.27051
10.70431	-15.11691	11.27051
10.70850	-15.13888	11.27051
10.71281	-15.11691	11.27051
10.71702	-15.11691	11.27051
10.72121	-15.11691	11.27051
10.72540	-15.11691	11.27051
10.72970	-15.11691	11.27051
10.73389	-15.09494	11.27051
10.73808	-15.09494	11.27051
10.74247	-15.09494	11.27051
10.74668	-15.09494	11.27051
10.75087	-15.09494	11.27051
10.75506	-15.09494	11.27051
10.75925	-15.07297	11.27051
10.76344	-15.07297	11.27051
10.76763	-15.07297	11.27051
10.77195	-15.07297	11.27051
10.77623	-15.07297	11.27051
10.78043	-15.07297	11.27051
10.78462	-15.07297	11.27051
10.78881	-15.07297	11.27051
10.79300	-15.05099	11.27051
10.79719	-15.05099	11.27051
10.80144	-15.05099	11.27051
10.80573	-15.05099	11.27051
10.80993	-15.05099	11.27051
10.81412	-15.02902	11.27051
10.81831	-15.02902	11.27051
10.82250	-15.02902	11.27051
10.82669	-15.02902	11.27051
10.83099	-15.02902	11.27051
10.83529	-15.00705	11.27051
10.83950	-15.00705	11.27051
10.84369	-15.00705	11.27051
10.84788	-15.00705	11.27051
10.85207	-15.00705	11.27051
10.85627	-15.00705	11.27051
10.86046	-15.00705	11.27051
10.86485	-15.00705	11.27051
10.86907	-14.98507	11.27051
10.87326	-14.98507	11.27051
10.87745	-14.98507	11.27051
10.88165	-14.98507	11.27051
10.88584	-14.98507	11.27051
10.89003	-14.98507	11.27051
10.89434	-14.98507	11.27051
10.89860	-14.96310	11.27051
10.90280	-14.96310	11.27051
10.90699	-14.96310	11.27051
10.91118	-14.96310	11.27051
10.91537	-14.96310	11.27051
10.91956	-14.96310	11.27051
10.92380	-14.96310	11.27051
10.92809	-14.96310	11.27051
10.93242	-14.96310	11.27051
10.93661	-14.96310	11.27051
10.94080	-14.96310	11.27051
10.94499	-14.94113	11.27051
10.94918	-14.96310	11.27051
10.95337	-14.96310	11.27051
10.95767	-14.94113	11.27051
10.96188	-14.94113	11.27051
10.96607	-14.91916	11.27051
10.97026	-14.94113	11.27051
10.97446	-14.91916	11.27051
10.97865	-14.94113	11.27051
10.98285	-14.94113	11.27051
10.98725	-14.91916	11.27051
10.99146	-14.91916	11.27051
10.99566	-14.94113	11.27051
10.99985	-14.91916	11.27051
11.00406	-14.91916	11.27051
11.00827	-14.91916	11.27051
11.01247	-14.91916	11.27051
11.01678	-14.91916	11.27051
11.02105	-14.91916	11.27051
11.02525	-14.91916	11.27051
11.02945	-14.91916	11.27051
11.03375	-14.91916	11.27051
11.03794	-14.91916	11.27051
11.04213	-14.91916	11.27051
11.04638	-14.91916	11.27051
11.05067	-14.91916	11.27051
11.05488	-14.91916	11.27051
11.05907	-14.89718	11.27051
11.06327	-14.91916	11.27051
11.06746	-14.91916	11.27051
11.07165	-14.89718	11.27051
11.07584	-14.89718	11.27051
11.08014	-14.91916	11.27051
11.08435	-14.89718	11.27051
11.08855	-14.89718	11.27051
11.09274	-14.89718	11.27051
11.09693	-14.89718	11.27051
11.10112	-14.89718	11.27051
11.10531	-14.89718	11.27051
11.10970	-14.89718	11.27051
11.11392	-14.89718	11.27051
11.11812	-14.89718	11.27051
11.12231	-14.89718	11.27051
11.12650	-14.89718	11.27051
11.13069	-14.89718	11.27051
11.13499	-14.89718	11.27051
11.13931	-14.89718	11.27051
11.14357	-14.89718	11.27051
11.14777	-14.89718	11.27051
11.15196	-14.89718	11.27051
11.15615	-14.89718	11.27051
11.16031	-14.89718	11.27051
11.16455	-14.89718	11.27051
11.16883	-14.89718	11.27051
11.17312	-14.89718	11.27051
11.17733	-14.89718	11.27051
11.18152	-14.89718	11.27051
11.18572	-14.89718	11.27051
11.18991	-14.89718	11.27051
11.19410	-14.89718	11.27051
11.19829	-14.89718	11.27051
11.20260	-14.89718	11.27051
11.20681	-14.89718	11.27051
11.21100	-14.89718	11.27051
11.21519	-14.89718	11.27051
11.21938	-14.89718	11.27051
11.22357	-14.89718	11.27051
11.22778	-14.89718	11.27051
11.23222	-14.89718	11.27051
11.23656	-14.89718	11.27051
11.24075	-14.89718	11.27051
11.24494	-14.89718	11.27051
11.24914	-14.89718	11.27051
11.25333	-14.89718	11.27051
11.25752	-14.89718	11.27051
11.26180	-14.89718	11.27051
11.26606	-14.89718	11.27051
11.27026	-14.89718	11.27051
11.27446	-14.89718	11.27051
11.27865	-14.89718	11.27051
11.28284	-14.89718	11.27051
11.28704	-14.89718	11.27051
11.29129	-14.91916	11.27051
11.29558	-14.91916	11.27051
11.29980	-14.91916	11.27051
11.30399	-14.89718	11.27051
11.30819	-14.89718	11.27051
11.31238	-14.89718	11.27051
11.31658	-14.91916	11.27051
11.32077	-14.91916	11.27051
11.32507	-14.91916	11.27051
11.32928	-14.91916	11.27051
11.33347	-14.91916	11.27051
11.33779	-14.91916	11.27051
11.34198	-14.91916	11.27051
11.34617	-14.91916	11.27051
11.35036	-14.91916	11.27051
11.35479	-14.91916	11.27051
11.35901	-14.91916	11.27051
11.36321	-14.91916	11.27051
11.36740	-14.91916	11.27051
11.37159	-14.94113	11.27051
11.37579	-14.94113	11.27051
11.37998	-14.91916	11.27051
11.38430	-14.94113	11.27051
11.38858	-14.94113	11.27051
11.39277	-14.94113	11.27051
11.39696	-14.94113	11.27051
11.40115	-14.94113	11.27051
11.40535	-14.94113	11.27051
11.40954	-14.94113	11.27051
11.41379	-14.94113	11.27051
11.41809	-14.94113	11.27051
11.42229	-14.94113	11.27051
11.42649	-14.94113	11.27051
11.43068	-14.94113	11.27051
11.43487	-14.94113	11.27051
11.43922	-14.94113	11.27051
11.44342	-14.96310	11.27051
11.44773	-14.96310	11.27051
11.45194	-14.94113	11.27051
11.45614	-14.94113	11.27051
11.46032	-14.94113	11.27051
11.46451	-14.94113	11.27051
11.46870	-14.94113	11.27051
11.47289	-14.96310	11.27051
11.47728	-14.96310	11.27051
11.48150	-14.94113	11.27051
11.48569	-14.96310	11.27051
11.48989	-14.94113	11.27051
11.49408	-14.94113	11.27051
11.49827	-14.94113	11.27051
11.50246	-14.96310	11.27051
11.50677	-14.96310	11.27051
11.51105	-14.96310	11.27051
11.51524	-14.96310	11.27051
11.51944	-14.96310	11.27051
11.52363	-14.96310	11.27051
11.52782	-14.96310	11.27051
11.53201	-14.96310	11.27051
11.53627	-14.96310	11.27051
11.54067	-14.96310	11.27051
11.54487	-14.96310	11.27051
11.54906	-14.96310	11.27051
11.55325	-14.96310	11.27051
11.55744	-14.96310	11.27051
11.56163	-14.96310	11.27051
11.56582	-14.96310	11.27051
11.57012	-14.96310	11.27051
11.57433	-14.96310	11.27051
11.57852	-14.96310	11.27051
11.58271	-14.96310	11.27051
11.58690	-14.96310	11.27051
11.59109	-14.96310	11.27051
11.59528	-14.96310	11.27051
11.59967	-14.96310	11.27051
11.60389	-14.96310	11.27051
11.60809	-14.96310	11.27051
11.61229	-14.98507	11.27051
11.61648	-14.96310	11.27051
11.62067	-14.96310	11.27051
11.62486	-14.96310	11.27051
11.62917	-14.96310	11.27051
11.63342	-14.96310	11.27051
11.63762	-14.96310	11.27051
11.64193	-14.96310	11.27051
11.64612	-14.96310	11.27051
11.65031	-14.98507	11.27051
11.65450	-14.96310	11.27051
11.65874	-14.96310	11.27051
11.66302	-14.96310	11.27051
11.66722	-14.96310	11.27051
11.67142	-14.96310	11.27051
11.67561	-14.96310	11.27051
11.67980	-14.96310	11.27051
11.68399	-14.96310	11.27051
11.68819	-14.96310	11.27051
11.69249	-14.98507	11.27051
11.69668	-14.96310	11.27051
11.70087	-14.96310	11.27051
11.70506	-14.96310	11.27051
11.70924	-14.96310	11.27051
11.71343	-14.96310	11.27051
11.71761	-14.96310	11.27051
11.72202	-14.96310	11.27051
11.72622	-14.96310	11.27051
11.73041	-14.96310	11.27051
11.73460	-14.96310	11.27051
11.73878	-14.96310	11.27051
11.74307	-14.96310	11.27051
11.74726	-14.96310	11.27051
11.75152	-14.94113	11.27051
11.75579	-14.96310	11.27051
11.75999	-14.94113	11.27051
11.76418	-14.94113	11.27051
11.76838	-14.96310	11.27051
11.77257	-14.94113	11.27051
11.77676	-14.96310	11.27051
11.78101	-14.96310	11.27051
11.78530	-14.96310	11.27051
11.78950	-14.96310	11.27051
11.79369	-14.96310	11.27051
11.79788	-14.96310	11.27051
11.80207	-14.96310	11.27051
11.80626	-14.96310	11.27051
11.81045	-14.96310	11.27051
11.81476	-14.96310	11.27051
11.81898	-14.94113	11.27051
11.82317	-14.94113	11.27051
11.82736	-14.94113	11.27051
11.83155	-14.96310	11.27051
11.83574	-14.96310	11.27051
11.83993	-14.96310	11.27051
11.84448	-14.96310	11.27051
11.84868	-14.94113	11.27051
11.85288	-14.94113	11.27051
11.85707	-14.96310	11.27051
11.86126	-14.96310	11.27051
11.86545	-14.96310	11.27051
11.86964	-14.96310	11.27051
11.87394	-14.94113	11.27051
11.87820	-14.94113	11.27051
11.88240	-14.96310	11.27051
11.88660	-14.96310	11.27051
11.89079	-14.96310	11.27051
11.89498	-14.94113	11.27051
11.89917	-14.94113	11.27051
11.90341	-14.94113	11.27051
11.90769	-14.94113	11.27051
11.91191	-14.96310	11.27051
11.91610	-14.94113	11.27051
11.92030	-14.94113	11.27051
11.92449	-14.94113	11.27051
11.92868	-14.94113	11.27051
11.93287	-14.94113	11.27051
11.93717	-14.94113	11.27051
11.94137	-14.94113	11.27051
11.94568	-14.94113	11.27051
11.94987	-14.94113	11.27051
11.95406	-14.94113	11.27051
11.95825	-14.94113	11.27051
11.96243	-14.94113	11.27051
11.96683	-14.94113	11.27051
11.97105	-14.94113	11.27051
11.97524	-14.94113	11.27051
11.97943	-14.94113	11.27051
11.98362	-14.94113	11.27051
11.98782	-14.94113	11.27051
11.99201	-14.94113	11.27051
11.99634	-14.94113	11.27051
12.00061	-14.91916	11.27051
12.00481	-14.91916	11.27051
12.00900	-14.94113	11.27051
12.01319	-14.94113	11.27051
12.01738	-14.94113	11.27051
12.02157	-14.94113	11.27051
12.02581	-14.94113	11.27051
12.03009	-14.94113	11.27051
12.03430	-14.94113	11.27051
12.03849	-14.94113	11.27051
12.04268	-14.94113	11.27051
12.04698	-14.94113	11.27051
12.05117	-14.91916	11.27051
12.05536	-14.91916	11.27051
12.05966	-14.91916	11.27051
12.06387	-14.91916	11.27051
12.06806	-14.94113	11.27051
12.07227	-14.91916	11.27051
12.07646	-14.91916	11.27051
12.08065	-14.91916	11.27051
12.08484	-14.91916	11.27051
12.08923	-14.91916	11.27051
12.09344	-14.91916	11.27051
12.09763	-14.91916	11.27051
12.10182	-14.91916	11.27051
12.10601	-14.91916	11.27051
12.11020	-14.91916	11.27051
12.11439	-14.91916	11.27051
12.11871	-14.91916	11.27051
12.12298	-14.91916	11.27051
12.12717	-14.91916	11.27051
12.13136	-14.91916	11.27051
12.13556	-14.91916	11.27051
12.13975	-14.91916	11.27051
12.14394	-14.91916	11.27051
12.14830	-14.91916	11.27051
12.15259	-14.89718	11.27051
12.15679	-14.89718	11.27051
12.16098	-14.89718	11.27051
12.16517	-14.91916	11.27051
12.16936	-14.89718	11.27051
12.17354	-14.89718	11.27051
12.17773	-14.89718	11.27051
12.18202	-14.89718	11.27051
12.18623	-14.89718	11.27051
12.19043	-14.89718	11.27051
12.19461	-14.89718	11.27051
12.19880	-14.89718	11.27051
12.20298	-14.89718	11.27051
12.20717	-14.89718	11.27051
12.21157	-14.89718	11.27051
12.21577	-14.89718	11.27051
12.21996	-14.89718	11.27051
12.22415	-14.89718	11.27051
12.22831	-14.89718	11.27051
12.23250	-14.89718	11.27051
12.23668	-14.89718	11.27051
12.24095	-14.87521	11.27051
12.24521	-14.87521	11.27051
12.24950	-14.87521	11.27051
12.25369	-14.87521	11.27051
12.25787	-14.87521	11.27051
12.26205	-14.87521	11.27051
12.26624	-14.87521	11.27051
12.27051	-14.87521	11.27051
12.27480	-14.87521	11.27051
12.27900	-14.87521	11.27051
12.28318	-14.87521	11.27051
12.28737	-14.87521	11.27051
12.29157	-14.87521	11.27051
12.29576	-14.87521	11.27051
12.29994	-14.87521	11.27051
12.30426	-14.87521	11.27051
12.30846	-14.87521	11.27051
12.31265	-14.87521	11.27051
12.31683	-14.87521	11.27051
12.32102	-14.87521	11.27051
12.32521	-14.87521	11.27051
12.32939	-14.87521	11.27051
12.33380	-14.87521	11.27051
12.33801	-14.87521	11.27051
12.34220	-14.87521	11.27051
12.34638	-14.85324	11.27051
12.35067	-14.87521	11.27051
12.35486	-14.87521	11.27051
12.35904	-14.87521	11.27051
12.36330	-14.87521	11.27051
12.36756	-14.87521	11.27051
12.37176	-14.87521	11.27051
12.37595	-14.85324	11.27051
12.38013	-14.87521	11.27051
12.38431	-14.85324	11.27051
12.38849	-14.87521	11.27051
12.39274	-14.85324	11.27051
12.39701	-14.85324	11.27051
12.40122	-14.85324	11.27051
12.40541	-14.85324	11.27051
12.40959	-14.87521	11.27051
12.41378	-14.87521	11.27051
12.41796	-14.87521	11.27051
12.42215	-14.85324	11.27051
12.42644	-14.85324	11.27051
12.43064	-14.85324	11.27051
12.43483	-14.87521	11.27051
12.43908	-14.87521	11.27051
12.44327	-14.87521	11.27051
12.44746	-14.87521	11.27051
12.45175	-14.87521	11.27051
12.45616	-14.87521	11.27051
12.46034	-14.87521	11.27051
12.46452	-14.87521	11.27051
12.46871	-14.87521	11.27051
12.47290	-14.87521	11.27051
12.47708	-14.87521	11.27051
12.48128	-14.87521	11.27051
12.48555	-14.85324	11.27051
12.48982	-14.87521	11.27051
12.49402	-14.87521	11.27051
12.49820	-14.87521	11.27051
12.50239	-14.87521	11.27051
12.50658	-14.87521	11.27051
12.51077	-14.87521	11.27051
12.51502	-14.87521	11.27051
12.51930	-14.87521	11.27051
12.52350	-14.87521	11.27051
12.52769	-14.87521	11.27051
12.53187	-14.87521	11.27051
12.53606	-14.87521	11.27051
12.54025	-14.87521	11.27051
12.54443	-14.87521	11.27051
12.54873	-14.87521	11.27051
12.55304	-14.87521	11.27051
12.55723	-14.87521	11.27051
12.56142	-14.87521	11.27051
12.56560	-14.87521	11.27051
12.56978	-14.87521	11.27051
12.57397	-14.87521	11.27051
12.57838	-14.87521	11.27051
12.58259	-14.87521	11.27051
12.58679	-14.87521	11.27051
12.59097	-14.89718	11.27051
12.59516	-14.87521	11.27051
12.59934	-14.87521	11.27051
12.60353	-14.87521	11.27051
12.60782	-14.87521	11.27051
12.61209	-14.89718	11.27051
12.61630	-14.87521	11.27051
12.62050	-14.89718	11.27051
12.62469	-14.89718	11.27051
12.62887	-14.89718	11.27051
12.63306	-14.89718	11.27051
12.63731	-14.89718	11.27051
12.64159	-14.89718	11.27051
12.64579	-14.89718	11.27051
12.64998	-14.89718	11.27051
12.65427	-14.89718	11.27051
12.65846	-14.89718	11.27051
12.66264	-14.89718	11.27051
12.66683	-14.89718	11.27051
12.67112	-14.89718	11.27051
12.67532	-14.91916	11.27051
12.67951	-14.91916	11.27051
12.68370	-14.91916	11.27051
12.68788	-14.91916	11.27051
12.69207	-14.91916	11.27051
12.69626	-14.91916	11.27051
12.70067	-14.91916	11.27051
12.70488	-14.91916	11.27051
12.70907	-14.91916	11.27051
12.71325	-14.91916	11.27051
12.71744	-14.94113	11.27051
12.72162	-14.94113	11.27051
12.72581	-14.94113	11.27051
12.73007	-14.94113	11.27051
12.73433	-14.94113	11.27051
12.73852	-14.94113	11.27051
12.74271	-14.94113	11.27051
12.74689	-14.96310	11.27051
12.75108	-14.96310	11.27051
12.75536	-14.96310	11.27051
12.75961	-14.96310	11.27051
12.76389	-14.98507	11.27051
12.76810	-14.98507	11.27051
12.77229	-14.98507	11.27051
12.77648	-14.98507	11.27051
12.78066	-14.98507	11.27051
12.78485	-14.98507	11.27051
12.78904	-15.00705	11.27051
12.79333	-15.00705	11.27051
12.79754	-15.00705	11.27051
12.80173	-15.00705	11.27051
12.80591	-15.00705	11.27051
12.81010	-15.00705	11.27051
12.81428	-15.00705	11.27051
12.81847	-15.00705	11.27051
12.82288	-15.00705	11.27051
12.82709	-15.02902	11.27051
12.83128	-15.02902	11.27051
12.83546	-15.02902	11.27051
12.83965	-15.02902	11.27051
12.84383	-15.02902	11.27051
12.84802	-15.05099	11.27051
12.85230	-15.05099	11.27051
12.85667	-15.05099	11.27051
12.86086	-15.05099	11.27051
12.86505	-15.05099	11.27051
12.86924	-15.05099	11.27051
12.87342	-15.07297	11.27051
12.87761	-15.05099	11.27051
12.88185	-15.07297	11.27051
12.88613	-15.07297	11.27051
12.89033	-15.09494	11.27051
12.89453	-15.09494	11.27051
12.89871	-15.09494	11.27051
12.90289	-15.09494	11.27051
12.90708	-15.09494	11.27051
12.91126	-15.11691	11.27051
12.91556	-15.11691	11.27051
12.91977	-15.11691	11.27051
12.92396	-15.11691	11.27051
12.92820	-15.11691	11.27051
12.93240	-15.13888	11.27051
12.93659	-15.13888	11.27051
12.94077	-15.13888	11.27051
12.94519	-15.16086	11.27051
12.94940	-15.16086	11.27051
12.95358	-15.13888	11.27051
12.95788	-15.16086	11.27051
12.96206	-15.16086	11.27051
12.96625	-15.16086	11.27051
12.97043	-15.16086	11.27051
12.97470	-15.16086	11.27051
12.97895	-15.18283	11.27051
12.98315	-15.18283	11.27051
12.98733	-15.18283	11.27051
12.99152	-15.18283	11.27051
12.99571	-15.20480	11.27051
12.99990	-15.20480	11.27051
13.00415	-15.20480	11.27051
13.00840	-15.20480	11.27051
13.01260	-15.22677	11.27051
13.01679	-15.22677	11.27051
13.02098	-15.22677	11.27051
13.02516	-15.22677	11.27051
13.02934	-15.22677	11.27051
13.03353	-15.24875	11.27051
13.03782	-15.24875	11.27051
13.04203	-15.24875	11.27051
13.04621	-15.27072	11.27051
13.05040	-15.27072	11.27051
13.05458	-15.27072	11.27051
13.05887	-15.27072	11.27051
13.06306	-15.29269	11.27051
13.06747	-15.29269	11.27051
13.07168	-15.29269	11.27051
13.07587	-15.29269	11.27051
13.08006	-15.29269	11.27051
13.08425	-15.29269	11.27051
13.08844	-15.31466	11.27051
13.09262	-15.29269	11.27051
13.09689	-15.31466	11.27051
13.10115	-15.31466	11.27051
13.10535	-15.33664	11.27051
13.10954	-15.33664	11.27051
13.11373	-15.33664	11.27051
13.11793	-15.33664	11.27051
13.12212	-15.33664	11.27051
13.12636	-15.35861	11.27051
13.13064	-15.35861	11.27051
13.13486	-15.35861	11.27051
13.13905	-15.35861	11.27051
13.14325	-15.35861	11.27051
13.14744	-15.38058	11.27051
13.15163	-15.38058	11.27051
13.15582	-15.38058	11.27051
13.16024	-15.38058	11.27051
13.16446	-15.38058	11.27051
13.16866	-15.40256	11.27051
13.17285	-15.40256	11.27051
13.17704	-15.40256	11.27051
13.18123	-15.42453	11.27051
13.18542	-15.42453	11.27051
13.18981	-15.42453	11.27051
13.19403	-15.42453	11.27051
13.19822	-15.42453	11.27051
13.20241	-15.44650	11.27051
13.20660	-15.44650	11.27051
13.21079	-15.44650	11.27051
13.21498	-15.44650	11.27051
13.21931	-15.44650	11.27051
13.22356	-15.44650	11.27051
13.22776	-15.46847	11.27051
13.23195	-15.46847	11.27051
13.23614	-15.46847	11.27051
13.24032	-15.46847	11.27051
13.24451	-15.46847	11.27051
13.24875	-15.49045	11.27051
13.25303	-15.49045	11.27051
13.25723	-15.49045	11.27051
13.26154	-15.49045	11.27051
13.26573	-15.49045	11.27051
13.26992	-15.49045	11.27051
13.27412	-15.49045	11.27051
13.27831	-15.51242	11.27051
13.28261	-15.51242	11.27051
13.28684	-15.51242	11.27051
13.29103	-15.51242	11.27051
13.29522	-15.51242	11.27051
13.29943	-15.51242	11.27051
13.30362	-15.51242	11.27051
13.30781	-15.51242	11.27051
13.31220	-15.53439	11.27051
13.31642	-15.53439	11.27051
13.32062	-15.53439	11.27051
13.32481	-15.53439	11.27051
13.32900	-15.53439	11.27051
13.33319	-15.53439	11.27051
13.33738	-15.53439	11.27051
13.34170	-15.53439	11.27051
13.34595	-15.53439	11.27051
13.35015	-15.53439	11.27051
13.35435	-15.53439	11.27051
13.35854	-15.53439	11.27051
13.36284	-15.53439	11.27051
13.36703	-15.55636	11.27051
13.37127	-15.55636	11.27051
13.37554	-15.55636	11.27051
13.37975	-15.55636	11.27051
13.38394	-15.55636	11.27051
13.38813	-15.55636	11.27051
13.39232	-15.55636	11.27051
13.39651	-15.55636	11.27051
13.40070	-15.55636	11.27051
13.40499	-15.55636	11.27051
13.40920	-15.55636	11.27051
13.41339	-15.55636	11.27051
13.41759	-15.55636	11.27051
13.42178	-15.55636	11.27051
13.42597	-15.55636	11.27051
13.43016	-15.55636	11.27051
13.43453	-15.55636	11.27051
13.43874	-15.55636	11.27051
13.44296	-15.55636	11.27051
13.44716	-15.55636	11.27051
13.45137	-15.55636	11.27051
13.45556	-15.55636	11.27051
13.45976	-15.55636	11.27051
13.46424	-15.55636	11.27051
13.46849	-15.55636	11.27051
13.47269	-15.55636	11.27051
13.47688	-15.55636	11.27051
13.48107	-15.55636	11.27051
13.48526	-15.53439	11.27051
13.48945	-15.53439	11.27051
13.49370	-15.53439	11.27051
13.49797	-15.53439	11.27051
13.50219	-15.53439	11.27051
13.50638	-15.53439	11.27051
13.51057	-15.53439	11.27051
13.51476	-15.53439	11.27051
13.51895	-15.53439	11.27051
13.52314	-15.53439	11.27051
13.52743	-15.53439	11.27051
13.53165	-15.53439	11.27051
13.53585	-15.53439	11.27051
13.54004	-15.53439	11.27051
13.54424	-15.51242	11.27051
13.54843	-15.51242	11.27051
13.55262	-15.51242	11.27051
13.55699	-15.51242	11.27051
13.56121	-15.51242	11.27051
13.56551	-15.51242	11.27051
13.56970	-15.51242	11.27051
13.57390	-15.51242	11.27051
13.57808	-15.51242	11.27051
13.58229	-15.51242	11.27051
13.58661	-15.49045	11.27051
13.59087	-15.49045	11.27051
13.59507	-15.51242	11.27051
13.59926	-15.49045	11.27051
13.60345	-15.49045	11.27051
13.60764	-15.49045	11.27051
13.61184	-15.49045	11.27051
13.61608	-15.49045	11.27051
13.62035	-15.49045	11.27051
13.62455	-15.46847	11.27051
13.62874	-15.46847	11.27051
13.63293	-15.46847	11.27051
13.63711	-15.46847	11.27051
13.64130	-15.46847	11.27051
13.64548	-15.46847	11.27051
13.64976	-15.46847	11.27051
13.65397	-15.46847	11.27051
13.65816	-15.46847	11.27051
13.66235	-15.44650	11.27051
13.66663	-15.44650	11.27051
13.67082	-15.44650	11.27051
13.67500	-15.44650	11.27051
13.67938	-15.44650	11.27051
13.68359	-15.42453	11.27051
13.68778	-15.42453	11.27051
13.69197	-15.42453	11.27051
13.69615	-15.42453	11.27051
13.70031	-15.42453	11.27051
13.70449	-15.42453	11.27051
13.70876	-15.42453	11.27051
13.71300	-15.42453	11.27051
13.71720	-15.42453	11.27051
13.72139	-15.40256	11.27051
13.72557	-15.40256	11.27051
13.72976	-15.40256	11.27051
13.73394	-15.40256	11.27051
13.73818	-15.40256	11.27051
13.74244	-15.40256	11.27051
13.74664	-15.40256	11.27051
13.75083	-15.38058	11.27051
13.75501	-15.38058	11.27051
13.75920	-15.38058	11.27051
13.76338	-15.38058	11.27051
13.76767	-15.38058	11.27051
13.77195	-15.35861	11.27051
13.77616	-15.38058	11.27051
13.78031	-15.35861	11.27051
13.78450	-15.35861	11.27051
13.78868	-15.33664	11.27051
13.79287	-15.35861	11.27051
13.79705	-15.35861	11.27051
13.80143	-15.33664	11.27051
13.80564	-15.33664	11.27051
13.80982	-15.33664	11.27051
13.81401	-15.33664	11.27051
13.81819	-15.33664	11.27051
13.82238	-15.33664	11.27051
13.82656	-15.31466	11.27051
13.83084	-15.31466	11.27051
13.83508	-15.31466	11.27051
13.83928	-15.31466	11.27051
13.84346	-15.29269	11.27051
13.84765	-15.29269	11.27051
13.85183	-15.29269	11.27051
13.85602	-15.29269	11.27051
13.86027	-15.29269	11.27051
13.86453	-15.29269	11.27051
13.86884	-15.27072	11.27051
13.87303	-15.27072	11.27051
13.87722	-15.27072	11.27051
13.88140	-15.27072	11.27051
13.88558	-15.27072	11.27051
13.88977	-15.27072	11.27051
13.89405	-15.27072	11.27051
13.89826	-15.27072	11.27051
13.90246	-15.24875	11.27051
13.90665	-15.27072	11.27051
13.91083	-15.24875	11.27051
13.91502	-15.24875	11.27051
13.91920	-15.24875	11.27051
13.92359	-15.24875	11.27051
13.92780	-15.24875	11.27051
13.93199	-15.24875	11.27051
13.93619	-15.22677	11.27051
13.94037	-15.24875	11.27051
13.94456	-15.22677	11.27051
13.94874	-15.22677	11.27051
13.95302	-15.22677	11.27051
13.95726	-15.22677	11.27051
13.96146	-15.22677	11.27051
13.96564	-15.22677	11.27051
13.96993	-15.22677	11.27051
13.97412	-15.22677	11.27051
13.97830	-15.22677	11.27051
13.98255	-15.22677	11.27051
13.98682	-15.20480	11.27051
13.99102	-15.20480	11.27051
13.99521	-15.22677	11.27051
13.99939	-15.20480	11.27051
14.00358	-15.20480	11.27051
14.00777	-15.20480	11.27051
14.01195	-15.20480	11.27051
14.01625	-15.20480	11.27051
14.02047	-15.20480	11.27051
14.02466	-15.20480	11.27051
14.02884	-15.20480	11.27051
14.03303	-15.20480	11.27051
14.03721	-15.20480	11.27051
14.04140	-15.20480	11.27051
14.04578	-15.20480	11.27051
14.04999	-15.18283	11.27051
14.05418	-15.20480	11.27051
14.05837	-15.20480	11.27051
14.06255	-15.20480	11.27051
14.06673	-15.18283	11.27051
14.07102	-15.20480	11.27051
14.07529	-15.18283	11.27051
14.07954	-15.20480	11.27051
14.08373	-15.20480	11.27051
14.08792	-15.18283	11.27051
14.09210	-15.18283	11.27051
14.09629	-15.18283	11.27051
14.10048	-15.18283	11.27051
14.10472	-15.18283	11.27051
14.10898	-15.18283	11.27051
14.11318	-15.18283	11.27051
14.11737	-15.18283	11.27051
14.12156	-15.18283	11.27051
14.12574	-15.20480	11.27051
14.12992	-15.18283	11.27051
14.13411	-15.18283	11.27051
14.13839	-15.18283	11.27051
14.14260	-15.18283	11.27051
14.14680	-15.18283	11.27051
14.15099	-15.18283	11.27051
14.15517	-15.18283	11.27051
14.15936	-15.18283	11.27051
14.16354	-15.18283	11.27051
14.16794	-15.18283	11.27051
14.17227	-15.18283	11.27051
14.17646	-15.18283	11.27051
14.18065	-15.18283	11.27051
14.18483	-15.18283	11.27051
14.18902	-15.18283	11.27051
14.19320	-15.18283	11.27051
14.19747	-15.20480	11.27051
14.20171	-15.20480	11.27051
14.20592	-15.18283	11.27051
14.21010	-15.18283	11.27051
14.21429	-15.18283	11.27051
14.21847	-15.20480	11.27051
14.22266	-15.18283	11.27051
14.22704	-15.20480	11.27051
14.23134	-15.20480	11.27051
14.23558	-15.20480	11.27051
14.23978	-15.20480	11.27051
14.24396	-15.20480	11.27051
14.24815	-15.20480	11.27051
14.25231	-15.20480	11.27051
14.25649	-15.20480	11.27051
14.26079	-15.20480	11.27051
14.26500	-15.20480	11.27051
14.26919	-15.20480	11.27051
14.27348	-15.20480	11.27051
14.27767	-15.20480	11.27051
14.28186	-15.20480	11.27051
14.28604	-15.20480	11.27051
14.29048	-15.20480	11.27051
14.29470	-15.20480	11.27051
14.29890	-15.20480	11.27051
14.30309	-15.20480	11.27051
14.30729	-15.20480	11.27051
14.31147	-15.22677	11.27051
14.31566	-15.22677	11.27051
14.31993	-15.22677	11.27051
14.32419	-15.22677	11.27051
14.32838	-15.22677	11.27051
14.33257	-15.22677	11.27051
14.33676	-15.22677	11.27051
14.34094	-15.22677	11.27051
14.34513	-15.22677	11.27051
14.34938	-15.22677	11.27051
14.35364	-15.22677	11.27051
14.35784	-15.22677	11.27051
14.36203	-15.22677	11.27051
14.36621	-15.24875	11.27051
14.37040	-15.22677	11.27051
14.37469	-15.22677	11.27051
14.37887	-15.24875	11.27051
14.38316	-15.24875	11.27051
14.38738	-15.24875	11.27051
14.39157	-15.24875	11.27051
14.39575	-15.24875	11.27051
14.39994	-15.24875	11.27051
14.40412	-15.27072	11.27051
14.40831	-15.24875	11.27051
14.41269	-15.27072	11.27051
14.41690	-15.27072	11.27051
14.42109	-15.27072	11.27051
14.42528	-15.27072	11.27051
14.42946	-15.27072	11.27051
14.43365	-15.27072	11.27051
14.43783	-15.27072	11.27051
14.44216	-15.29269	11.27051
14.44641	-15.29269	11.27051
14.45061	-15.29269	11.27051
14.45480	-15.27072	11.27051
14.45899	-15.29269	11.27051
14.46318	-15.29269	11.27051
14.46736	-15.29269	11.27051
14.47161	-15.29269	11.27051
14.47598	-15.29269	11.27051
14.48019	-15.29269	11.27051
14.48438	-15.29269	11.27051
14.48856	-15.29269	11.27051
14.49275	-15.31466	11.27051
14.49693	-15.31466	11.27051
14.50112	-15.31466	11.27051
14.50541	-15.31466	11.27051
14.50962	-15.31466	11.27051
14.51381	-15.31466	11.27051
14.51800	-15.31466	11.27051
14.52218	-15.31466	11.27051
14.52637	-15.31466	11.27051
14.53056	-15.31466	11.27051
14.53496	-15.33664	11.27051
14.53917	-15.33664	11.27051
14.54336	-15.35861	11.27051
14.54754	-15.33664	11.27051
14.55173	-15.33664	11.27051
14.55591	-15.33664	11.27051
14.56010	-15.33664	11.27051
14.56438	-15.35861	11.27051
14.56863	-15.35861	11.27051
14.57282	-15.35861	11.27051
14.57711	-15.38058	11.27051
14.58129	-15.38058	11.27051
14.58548	-15.38058	11.27051
14.58966	-15.38058	11.27051
14.59391	-15.38058	11.27051
14.59817	-15.38058	11.27051
14.60237	-15.38058	11.27051
14.60656	-15.38058	11.27051
14.61075	-15.40256	11.27051
14.61493	-15.40256	11.27051
14.61912	-15.38058	11.27051
14.62330	-15.40256	11.27051
14.62759	-15.40256	11.27051
14.63180	-15.40256	11.27051
14.63599	-15.40256	11.27051
14.64019	-15.42453	11.27051
14.64437	-15.42453	11.27051
14.64856	-15.42453	11.27051
14.65274	-15.42453	11.27051
14.65713	-15.42453	11.27051
14.66134	-15.42453	11.27051
14.66552	-15.42453	11.27051
14.66971	-15.42453	11.27051
14.67389	-15.44650	11.27051
14.67818	-15.44650	11.27051
14.68237	-15.44650	11.27051
14.68664	-15.44650	11.27051
14.69088	-15.44650	11.27051
14.69508	-15.46847	11.27051
14.69926	-15.46847	11.27051
14.70345	-15.46847	11.27051
14.70763	-15.46847	11.27051
14.71182	-15.46847	11.27051
14.71607	-15.46847	11.27051
14.72034	-15.49045	11.27051
14.72455	-15.49045	11.27051
14.72874	-15.49045	11.27051
14.73292	-15.49045	11.27051
14.73711	-15.49045	11.27051
14.74129	-15.49045	11.27051
14.74547	-15.49045	11.27051
14.74978	-15.49045	11.27051
14.75401	-15.51242	11.27051
14.75820	-15.51242	11.27051
14.76240	-15.51242	11.27051
14.76659	-15.51242	11.27051
14.77078	-15.51242	11.27051
14.77497	-15.51242	11.27051
14.77948	-15.51242	11.27051
14.78369	-15.51242	11.27051
14.78789	-15.53439	11.27051
14.79208	-15.53439	11.27051
14.79628	-15.53439	11.27051
14.80047	-15.53439	11.27051
14.80466	-15.53439	11.27051
14.80898	-15.53439	11.27051
14.81324	-15.53439	11.27051
14.81744	-15.53439	11.27051
14.82163	-15.53439	11.27051
14.82582	-15.53439	11.27051
14.83001	-15.53439	11.27051
14.83419	-15.53439	11.27051
14.83844	-15.55636	11.27051
14.84270	-15.55636	11.27051
14.84691	-15.55636	11.27051
14.85110	-15.53439	11.27051
14.85528	-15.53439	11.27051
14.85947	-15.55636	11.27051
14.86365	-15.55636	11.27051
14.86784	-15.55636	11.27051
14.87213	-15.55636	11.27051
14.87633	-15.55636	11.27051
14.88063	-15.55636	11.27051
14.88481	-15.55636	11.27051
14.88900	-15.55636	11.27051
14.89319	-15.55636	11.27051
14.89737	-15.55636	11.27051
14.90177	-15.55636	11.27051
14.90599	-15.55636	11.27051
14.91017	-15.55636	11.27051
14.91436	-15.55636	11.27051
14.91855	-15.55636	11.27051
14.92273	-15.55636	11.27051
14.92692	-15.55636	11.27051
14.93119	-15.55636	11.27051
14.93544	-15.55636	11.27051
14.93963	-15.55636	11.27051
14.94382	-15.55636	11.27051
14.94801	-15.55636	11.27051
14.95221	-15.55636	11.27051
14.95640	-15.53439	11.27051
14.96065	-15.55636	11.27051
14.96491	-15.55636	11.27051
14.96911	-15.53439	11.27051
14.97330	-15.53439	11.27051
14.97749	-15.53439	11.27051
14.98178	-15.53439	11.27051
14.98596	-15.55636	11.27051
14.99014	-15.53439	11.27051
14.99442	-15.53439	11.27051
14.99863	-15.53439	11.27051
15.00326	-15.53439	3.48888
15.00732	-15.53439	3.48888
15.01138	-15.53439	3.48888
15.01545	-15.53439	3.48888
15.01950	-15.53439	3.48888
15.02358	-15.53439	3.48888
15.02764	-15.53439	3.48888
15.03170	-15.53439	3.48888
15.03576	-15.53439	3.48888
15.03981	-15.53439	3.48888
15.04387	-15.53439	3.48888
15.04793	-15.53439	3.48888
15.05199	-15.53439	3.48888
15.05604	-15.53439	3.48888
15.06010	-15.51242	3.48888
15.06416	-15.53439	3.48888
15.06818	-15.51242	3.48888
15.07224	-15.51242	3.48888
15.07630	-15.51242	3.48888
15.08035	-15.51242	3.48888
15.08441	-15.51242	3.48888
15.08847	-15.51242	3.48888
15.09253	-15.51242	3.48888
15.09658	-15.49045	3.48888
15.10064	-15.49045	3.48888
15.10492	-15.49045	3.48888
15.10898	-15.46847	3.48888
15.11303	-15.46847	3.48888
15.11709	-15.46847	3.48888
15.12115	-15.44650	3.48888
15.12520	-15.44650	3.48888
15.12926	-15.42453	3.48888
15.13332	-15.42453	3.48888
15.13738	-15.42453	3.48888
15.14144	-15.40256	3.48888
15.14550	-15.40256	3.48888
15.14956	-15.38058	3.48888
15.15361	-15.35861	3.48888
15.15767	-15.35861	3.48888
15.16173	-15.35861	3.48888
15.16579	-15.33664	3.48888
15.16985	-15.31466	3.48888
15.17391	-15.31466	3.48888
15.17797	-15.29269	3.48888
15.18202	-15.27072	3.48888
15.18608	-15.27072	3.48888
15.19014	-15.24875	3.48888
15.19420	-15.24875	3.48888
15.19825	-15.22677	3.48888
15.20231	-15.20480	3.48888
15.20660	-15.18283	3.48888
15.21066	-15.13888	3.48888
15.21472	-15.11691	3.48888
15.21877	-15.11691	3.48888
15.22283	-15.09494	3.48888
15.22689	-15.07297	3.48888
15.23095	-15.02902	3.48888
15.23502	-15.00705	3.48888
15.23908	-14.98507	3.48888
15.24314	-14.98507	3.48888
15.24720	-14.96310	3.48888
15.25126	-14.91916	3.48888
15.25531	-14.89718	3.48888
15.25937	-14.85324	3.48888
15.26343	-14.85324	3.48888
15.26749	-14.83127	3.48888
15.27154	-14.78732	3.48888
15.27560	-14.74338	3.48888
15.27966	-14.72140	3.48888
15.28371	-14.67746	3.48888
15.28777	-14.67746	3.48888
15.29183	-14.65548	3.48888
15.29589	-14.61154	3.48888
15.29994	-14.56759	3.48888
15.30400	-14.52365	3.48888
15.30830	-14.52365	3.48888
15.31236	-14.47970	3.48888
15.31642	-14.43576	3.48888
15.32048	-14.39181	3.48888
15.32453	-14.34787	3.48888
15.32859	-14.30392	3.48888
15.33265	-14.30392	3.48888
15.33672	-14.25998	3.48888
15.34078	-14.21603	3.48888
15.34484	-14.17209	3.48888
15.34889	-14.17209	3.48888
15.35295	-14.12814	3.48888
15.35701	-14.06222	3.48888
15.36107	-14.01828	3.48888
15.36512	-13.97433	3.48888
15.36918	-13.93039	3.48888
15.37324	-13.93039	3.48888
15.37729	-13.86447	3.48888
15.38135	-13.82052	3.48888
15.38541	-13.75461	3.48888
15.38946	-13.71066	3.48888
15.39352	-13.71066	3.48888
15.39758	-13.64474	3.48888
15.40164	-13.57882	3.48888
15.40569	-13.53488	3.48888
15.40998	-13.46896	3.48888
15.41404	-13.46896	3.48888
15.41810	-13.40304	3.48888
15.42216	-13.35910	3.48888
15.42621	-13.29318	3.48888
15.43027	-13.22726	3.48888
15.43433	-13.22726	3.48888
15.43840	-13.16134	3.48888
15.44246	-13.11740	3.48888
15.44652	-13.02951	3.48888
15.45058	-12.98556	3.48888
15.45463	-12.91964	3.48888
15.45869	-12.91964	3.48888
15.46275	-12.85373	3.48888
15.46681	-12.78781	3.48888
15.47086	-12.72189	3.48888
15.47492	-12.72189	3.48888
15.47898	-12.65597	3.48888
15.48303	-12.59006	3.48888
15.48709	-12.50216	3.48888
15.49115	-12.43625	3.48888
15.49521	-12.39230	3.48888
15.49926	-12.39230	3.48888
15.50332	-12.32638	3.48888
15.50738	-12.23849	3.48888
15.51167	-12.17257	3.48888
15.51572	-12.10666	3.48888
15.51978	-12.10666	3.48888
15.52384	-12.01877	3.48888
15.52790	-11.95285	3.48888
15.53195	-11.88693	3.48888
15.53601	-11.79904	3.48888
15.54008	-11.73312	3.48888
15.54414	-11.73312	3.48888
15.54818	-11.66720	3.48888
15.55224	-11.57931	3.48888
15.55629	-11.51339	3.48888
15.56035	-11.42550	3.48888
15.56441	-11.42550	3.48888
15.56847	-11.33761	3.48888
15.57252	-11.27170	3.48888
15.57658	-11.18381	3.48888
15.58064	-11.11789	3.48888
15.58469	-11.03000	3.48888
15.58875	-11.03000	3.48888
15.59281	-10.96408	3.48888
15.59687	-10.87619	3.48888
15.60092	-10.78830	3.48888
15.60498	-10.78830	3.48888
15.60904	-10.70041	3.48888
15.61332	-10.63449	3.48888
15.61738	-10.54660	3.48888
15.62144	-10.45871	3.48888
15.62549	-10.39279	3.48888
15.62955	-10.39279	3.48888
15.63361	-10.30490	3.48888
15.63767	-10.21701	3.48888
15.64173	-10.12912	3.48888
15.64579	-10.04123	3.48888
15.64985	-10.04123	3.48888
15.65391	-9.95334	3.48888
15.65796	-9.86545	3.48888
15.66202	-9.77756	3.48888
15.66608	-9.68966	3.48888
15.67014	-9.68966	3.48888
15.67419	-9.60177	3.48888
15.67825	-9.51388	3.48888
15.68231	-9.42599	3.48888
15.68636	-9.33810	3.48888
15.69042	-9.33810	3.48888
15.69448	-9.22824	3.48888
15.69853	-9.16232	3.48888
15.70259	-9.07443	3.48888
15.70665	-8.98654	3.48888
15.71070	-8.89865	3.48888
15.71499	-8.89865	3.48888
15.71905	-8.81076	3.48888
15.72310	-8.72287	3.48888
15.72716	-8.61300	3.48888
15.73122	-8.54709	3.48888
15.73528	-8.54709	3.48888
15.73933	-8.45920	3.48888
15.74340	-8.34933	3.48888
15.74746	-8.26144	3.48888
15.75152	-8.19552	3.48888
15.75558	-8.19552	3.48888
15.75963	-8.10763	3.48888
15.76369	-7.99777	3.48888
15.76775	-7.90988	3.48888
15.77181	-7.82199	3.48888
15.77586	-7.82199	3.48888
15.77992	-7.73410	3.48888
15.78398	-7.64621	3.48888
15.78804	-7.53634	3.48888
15.79209	-7.44845	3.48888
15.79615	-7.38254	3.48888
15.80018	-7.38254	3.48888
15.80424	-7.29464	3.48888
15.80830	-7.20675	3.48888
15.81235	-7.11886	3.48888
15.81664	-7.00900	3.48888
15.82069	-7.00900	3.48888
15.82475	-6.92111	3.48888
15.82881	-6.83322	3.48888
15.83287	-6.74533	3.48888
15.83693	-6.65744	3.48888
15.84099	-6.59152	3.48888
15.84505	-6.59152	3.48888
15.84911	-6.48166	3.48888
15.85317	-6.39377	3.48888
15.85723	-6.30588	3.48888
15.86128	-6.21798	3.48888
15.86534	-6.21798	3.48888
15.86940	-6.13009	3.48888
15.87346	-6.04220	3.48888
15.87751	-5.95431	3.48888
15.88157	-5.88839	3.48888
15.88563	-5.88839	3.48888
15.88968	-5.77853	3.48888
15.89374	-5.69064	3.48888
15.89780	-5.60275	3.48888
15.90186	-5.51486	3.48888
15.90591	-5.51486	3.48888
15.90997	-5.42697	3.48888
15.91403	-5.33908	3.48888
15.91831	-5.25119	3.48888
15.92237	-5.14132	3.48888
15.92643	-5.14132	3.48888
15.93049	-5.07541	3.48888
15.93454	-5.00949	3.48888
15.93860	-4.89963	3.48888
15.94266	-4.81173	3.48888
15.94672	-4.81173	3.48888
15.95078	-4.72384	3.48888
15.95484	-4.63595	3.48888
15.95890	-4.54806	3.48888
15.96296	-4.46017	3.48888
15.96701	-4.39425	3.48888
15.97107	-4.39425	3.48888
15.97513	-4.32834	3.48888
15.97918	-4.24045	3.48888
15.98324	-4.15256	3.48888
15.98730	-4.06466	3.48888
15.99135	-4.06466	3.48888
15.99541	-3.97677	3.48888
15.99947	-3.91086	3.48888
16.00353	-3.82297	3.48888
16.00758	-3.75705	3.48888
16.01164	-3.66916	3.48888
16.01570	-3.66916	3.48888
16.01999	-3.58127	3.48888
16.02404	-3.51535	3.48888
16.02810	-3.42746	3.48888
16.03216	-3.36154	3.48888
16.03618	-3.36154	3.48888
16.04024	-3.27365	3.48888
16.04430	-3.20773	3.48888
16.04836	-3.11984	3.48888
16.05242	-3.05392	3.48888
16.05648	-3.05392	3.48888
16.06054	-2.98800	3.48888
16.06459	-2.92209	3.48888
16.06865	-2.83420	3.48888
16.07271	-2.76828	3.48888
16.07676	-2.76828	3.48888
16.08082	-2.70236	3.48888
16.08488	-2.61447	3.48888
16.08894	-2.54855	3.48888
16.09299	-2.50461	3.48888
16.09705	-2.41672	3.48888
16.10111	-2.41672	3.48888
16.10516	-2.35080	3.48888
16.10922	-2.28488	3.48888
16.11328	-2.21896	3.48888
16.11734	-2.15304	3.48888
16.12163	-2.15304	3.48888
16.12569	-2.08713	3.48888
16.12975	-2.02121	3.48888
16.13380	-1.95529	3.48888
16.13786	-1.88937	3.48888
16.14192	-1.82345	3.48888
16.14597	-1.82345	3.48888
16.15004	-1.75754	3.48888
16.15410	-1.71359	3.48888
16.15816	-1.64767	3.48888
16.16222	-1.58175	3.48888
16.16627	-1.58175	3.48888
16.17033	-1.51584	3.48888
16.17439	-1.47189	3.48888
16.17845	-1.40597	3.48888
16.18250	-1.40597	3.48888
16.18656	-1.34006	3.48888
16.19062	-1.29611	3.48888
16.19467	-1.23019	3.48888
16.19873	-1.18625	3.48888
16.20279	-1.18625	3.48888
16.20685	-1.12033	3.48888
16.21090	-1.07638	3.48888
16.21496	-1.01047	3.48888
16.21902	-0.96652	3.48888
16.22330	-0.92257	3.48888
16.22736	-0.92257	3.48888
16.23142	-0.87863	3.48888
16.23548	-0.81271	3.48888
16.23954	-0.76877	3.48888
16.24359	-0.72482	3.48888
16.24765	-0.72482	3.48888
16.25172	-0.68088	3.48888
16.25577	-0.63693	3.48888
16.25983	-0.59298	3.48888
16.26389	-0.54904	3.48888
16.26795	-0.50509	3.48888
16.27200	-0.50509	3.48888
16.27606	-0.46115	3.48888
16.28012	-0.41720	3.48888
16.28418	-0.37326	3.48888
16.28824	-0.32931	3.48888
16.29229	-0.32931	3.48888
16.29635	-0.30734	3.48888
16.30041	-0.26339	3.48888
16.30447	-0.24142	3.48888
16.30852	-0.19748	3.48888
16.31258	-0.19748	3.48888
16.31664	-0.15353	3.48888
16.32069	-0.13156	3.48888
16.32498	-0.08761	3.48888
16.32904	-0.06564	3.48888
16.33310	-0.06564	3.48888
16.33716	-0.02170	3.48888
16.34121	0.00028	3.48888
16.34527	0.04422	3.48888
16.34933	0.04422	3.48888
16.35340	0.08817	3.48888
16.35746	0.08817	3.48888
16.36151	0.11014	3.48888
16.36557	0.13211	3.48888
16.36963	0.17606	3.48888
16.37369	0.17606	3.48888
16.37774	0.17606	3.48888
16.38180	0.19803	3.48888
16.38586	0.22000	3.48888
16.38991	0.26395	3.48888
16.39397	0.26395	3.48888
16.39803	0.28592	3.48888
16.40209	0.28592	3.48888
16.40614	0.30789	3.48888
16.41020	0.32987	3.48888
16.41426	0.32987	3.48888
16.41831	0.35184	3.48888
16.42237	0.35184	3.48888
16.42665	0.37381	3.48888
16.43071	0.37381	3.48888
16.43477	0.39578	3.48888
16.43883	0.39578	3.48888
16.44289	0.39578	3.48888
16.44695	0.41776	3.48888
16.45101	0.41776	3.48888
16.45508	0.43973	3.48888
16.45914	0.43973	3.48888
16.46319	0.43973	3.48888
16.46725	0.43973	3.48888
16.47131	0.43973	3.48888
16.47537	0.46170	3.48888
16.47942	0.46170	3.48888
16.48348	0.46170	3.48888
16.48754	0.46170	3.48888
16.49159	0.46170	3.48888
16.49565	0.46170	3.48888
16.49971	0.46170	3.48888
16.50377	0.46170	3.48888
16.50782	0.43973	3.48888
16.51188	0.46170	3.48888
16.51594	0.43973	3.48888
16.52000	0.43973	3.48888
16.52405	0.43973	3.48888
16.52835	0.43973	3.48888
16.53240	0.43973	3.48888
16.53646	0.41776	3.48888
16.54052	0.41776	3.48888
16.54458	0.39578	3.48888
16.54864	0.39578	3.48888
16.55270	0.39578	3.48888
16.55677	0.39578	3.48888
16.56083	0.37381	3.48888
16.56489	0.37381	3.48888
16.56895	0.35184	3.48888
16.57301	0.35184	3.48888
16.57706	0.32987	3.48888
16.58112	0.32987	3.48888
16.58518	0.30789	3.48888
16.58924	0.28592	3.48888
16.59329	0.28592	3.48888
16.59735	0.26395	3.48888
16.60141	0.24198	3.48888
16.60546	0.22000	3.48888
16.60952	0.22000	3.48888
16.61358	0.22000	3.48888
16.61764	0.19803	3.48888
16.62170	0.17606	3.48888
16.62575	0.13211	3.48888
16.63005	0.11014	3.48888
16.63411	0.11014	3.48888
16.63817	0.08817	3.48888
16.64222	0.06619	3.48888
16.64628	0.04422	3.48888
16.65034	0.02225	3.48888
16.65440	0.00028	3.48888
16.65847	0.00028	3.48888
16.66253	-0.04367	3.48888
16.66658	-0.06564	3.48888
16.67064	-0.08761	3.48888
16.67470	-0.13156	3.48888
16.67876	-0.13156	3.48888
16.68281	-0.15353	3.48888
16.68687	-0.19748	3.48888
16.69093	-0.21945	3.48888
16.69498	-0.26339	3.48888
16.69904	-0.26339	3.48888
16.70310	-0.28537	3.48888
16.70716	-0.32931	3.48888
16.71121	-0.37326	3.48888
16.71527	-0.39523	3.48888
16.71933	-0.39523	3.48888
16.72338	-0.43918	3.48888
16.72744	-0.48312	3.48888
16.73173	-0.50509	3.48888
16.73579	-0.54904	3.48888
16.73984	-0.59298	3.48888
16.74390	-0.59298	3.48888
16.74796	-0.63693	3.48888
16.75202	-0.68088	3.48888
16.75607	-0.72482	3.48888
16.76014	-0.76877	3.48888
16.76418	-0.76877	3.48888
16.76824	-0.79074	3.48888
16.77230	-0.85666	3.48888
16.77635	-0.87863	3.48888
16.78041	-0.92257	3.48888
16.78447	-0.92257	3.48888
16.78853	-0.96652	3.48888
16.79258	-1.01047	3.48888
16.79664	-1.05441	3.48888
16.80070	-1.09836	3.48888
16.80475	-1.09836	3.48888
16.80881	-1.16427	3.48888
16.81287	-1.20822	3.48888
16.81693	-1.25216	3.48888
16.82098	-1.29611	3.48888
16.82504	-1.34006	3.48888
16.82910	-1.34006	3.48888
16.83338	-1.38400	3.48888
16.83744	-1.42795	3.48888
16.84149	-1.47189	3.48888
16.84555	-1.53781	3.48888
16.84961	-1.53781	3.48888
16.85367	-1.60373	3.48888
16.85772	-1.64767	3.48888
16.86179	-1.69162	3.48888
16.86585	-1.73556	3.48888
16.86991	-1.80148	3.48888
16.87396	-1.80148	3.48888
16.87802	-1.84543	3.48888
16.88208	-1.88937	3.48888
16.88613	-1.95529	3.48888
16.89019	-1.95529	3.48888
16.89425	-1.99923	3.48888
16.89831	-2.06515	3.48888
16.90236	-2.10910	3.48888
16.90642	-2.15304	3.48888
16.91048	-2.21896	3.48888
16.91453	-2.21896	3.48888
16.91859	-2.28488	3.48888
16.92265	-2.32882	3.48888
16.92671	-2.37277	3.48888
16.93077	-2.43869	3.48888
16.93506	-2.43869	3.48888
16.93912	-2.50461	3.48888
16.94318	-2.57052	3.48888
16.94724	-2.61447	3.48888
16.95130	-2.68039	3.48888
16.95535	-2.68039	3.48888
16.95941	-2.72433	3.48888
16.96348	-2.79025	3.48888
16.96754	-2.85617	3.48888
16.97159	-2.92209	3.48888
16.97565	-2.92209	3.48888
16.97971	-2.96603	3.48888
16.98376	-3.03195	3.48888
16.98782	-3.07589	3.48888
16.99188	-3.14181	3.48888
16.99593	-3.20773	3.48888
16.99999	-3.20773	3.48888
17.00405	-3.25168	3.48888
17.00811	-3.31759	3.48888
17.01216	-3.38351	3.48888
17.01618	-3.38351	3.48888
17.02024	-3.44943	3.48888
17.02430	-3.49338	3.48888
17.02835	-3.55929	3.48888
17.03241	-3.60324	3.48888
17.03669	-3.66916	3.48888
17.04075	-3.66916	3.48888
17.04481	-3.73507	3.48888
17.04887	-3.80099	3.48888
17.05292	-3.84494	3.48888
17.05698	-3.91086	3.48888
17.06104	-3.91086	3.48888
17.06511	-3.97677	3.48888
17.06916	-4.04269	3.48888
17.07322	-4.10861	3.48888
17.07728	-4.15256	3.48888
17.08134	-4.19650	3.48888
17.08539	-4.19650	3.48888
17.08945	-4.26242	3.48888
17.09351	-4.32834	3.48888
17.09757	-4.39425	3.48888
17.10162	-4.46017	3.48888
17.10568	-4.46017	3.48888
17.10974	-4.50412	3.48888
17.11379	-4.57004	3.48888
17.11785	-4.61398	3.48888
17.12191	-4.67990	3.48888
17.12597	-4.74582	3.48888
17.13002	-4.74582	3.48888
17.13408	-4.78976	3.48888
17.13836	-4.85568	3.48888
17.14242	-4.92160	3.48888
17.14648	-4.98752	3.48888
17.15053	-4.98752	3.48888
17.15459	-5.03146	3.48888
17.15865	-5.09738	3.48888
17.16270	-5.14132	3.48888
17.16677	-5.20724	3.48888
17.17083	-5.20724	3.48888
17.17489	-5.25119	3.48888
17.17895	-5.31711	3.48888
17.18300	-5.38302	3.48888
17.18706	-5.42697	3.48888
17.19112	-5.42697	3.48888
17.19517	-5.49289	3.48888
17.19923	-5.55881	3.48888
17.20329	-5.60275	3.48888
17.20735	-5.66867	3.48888
17.21140	-5.66867	3.48888
17.21546	-5.73459	3.48888
17.21952	-5.77853	3.48888
17.22357	-5.82248	3.48888
17.22763	-5.88839	3.48888
17.23169	-5.88839	3.48888
17.23574	-5.95431	3.48888
17.24003	-5.99826	3.48888
17.24409	-6.06418	3.48888
17.24814	-6.10812	3.48888
17.25218	-6.15207	3.48888
17.25624	-6.15207	3.48888
17.26030	-6.21798	3.48888
17.26435	-6.26193	3.48888
17.26842	-6.32785	3.48888
17.27248	-6.37179	3.48888
17.27654	-6.37179	3.48888
17.28060	-6.41574	3.48888
17.28466	-6.48166	3.48888
17.28871	-6.52560	3.48888
17.29277	-6.56955	3.48888
17.29683	-6.63547	3.48888
17.30089	-6.63547	3.48888
17.30494	-6.67941	3.48888
17.30900	-6.72336	3.48888
17.31306	-6.78927	3.48888
17.31712	-6.78927	3.48888
17.32117	-6.83322	3.48888
17.32523	-6.87716	3.48888
17.32929	-6.92111	3.48888
17.33334	-6.98703	3.48888
17.33740	-7.03097	3.48888
17.34169	-7.03097	3.48888
17.34575	-7.07492	3.48888
17.34981	-7.11886	3.48888
17.35386	-7.16281	3.48888
17.35792	-7.20675	3.48888
17.36198	-7.20675	3.48888
17.36603	-7.27267	3.48888
17.37010	-7.31662	3.48888
17.37416	-7.36056	3.48888
17.37822	-7.38254	3.48888
17.38228	-7.44845	3.48888
17.38633	-7.44845	3.48888
17.39039	-7.49240	3.48888
17.39445	-7.53634	3.48888
17.39850	-7.58029	3.48888
17.40256	-7.62423	3.48888
17.40662	-7.62423	3.48888
17.41068	-7.66818	3.48888
17.41473	-7.71213	3.48888
17.41879	-7.73410	3.48888
17.42285	-7.80002	3.48888
17.42690	-7.82199	3.48888
17.43096	-7.82199	3.48888
17.43502	-7.86593	3.48888
17.43907	-7.90988	3.48888
17.44338	-7.95382	3.48888
17.44744	-7.97580	3.48888
17.45150	-7.97580	3.48888
17.45556	-8.01974	3.48888
17.45961	-8.06369	3.48888
17.46367	-8.10763	3.48888
17.46773	-8.10763	3.48888
17.47180	-8.12961	3.48888
17.47585	-8.17355	3.48888
17.47991	-8.21750	3.48888
17.48397	-8.23947	3.48888
17.48803	-8.23947	3.48888
17.49208	-8.28341	3.48888
17.49614	-8.30539	3.48888
17.50019	-8.34933	3.48888
17.50424	-8.37131	3.48888
17.50830	-8.39328	3.48888
17.51236	-8.39328	3.48888
17.51641	-8.43722	3.48888
17.52047	-8.48117	3.48888
17.52453	-8.50314	3.48888
17.52858	-8.52511	3.48888
17.53264	-8.52511	3.48888
17.53670	-8.56906	3.48888
17.54076	-8.59103	3.48888
17.54504	-8.61300	3.48888
17.54910	-8.63498	3.48888
17.55316	-8.65695	3.48888
17.55722	-8.65695	3.48888
17.56127	-8.70089	3.48888
17.56533	-8.72287	3.48888
17.56939	-8.74484	3.48888
17.57345	-8.76681	3.48888
17.57751	-8.76681	3.48888
17.58157	-8.78879	3.48888
17.58563	-8.81076	3.48888
17.58969	-8.83273	3.48888
17.59374	-8.85470	3.48888
17.59780	-8.85470	3.48888
17.60186	-8.87668	3.48888
17.60592	-8.89865	3.48888
17.60997	-8.92062	3.48888
17.61403	-8.94259	3.48888
17.61809	-8.94259	3.48888
17.62214	-8.96457	3.48888
17.62620	-8.98654	3.48888
17.63026	-8.98654	3.48888
17.63431	-9.00851	3.48888
17.63837	-9.03048	3.48888
17.64243	-9.03048	3.48888
17.64671	-9.05246	3.48888
17.65077	-9.05246	3.48888
17.65483	-9.07443	3.48888
17.65888	-9.09640	3.48888
17.66294	-9.09640	3.48888
17.66700	-9.11838	3.48888
17.67106	-9.11838	3.48888
17.67512	-9.14035	3.48888
17.67918	-9.14035	3.48888
17.68324	-9.16232	3.48888
17.68730	-9.16232	3.48888
17.69135	-9.18429	3.48888
17.69541	-9.18429	3.48888
17.69947	-9.18429	3.48888
17.70353	-9.20627	3.48888
17.70758	-9.20627	3.48888
17.71164	-9.20627	3.48888
17.71570	-9.20627	3.48888
17.71975	-9.22824	3.48888
17.72381	-9.22824	3.48888
17.72787	-9.25021	3.48888
17.73193	-9.25021	3.48888
17.73598	-9.25021	3.48888
17.74004	-9.27218	3.48888
17.74410	-9.27218	3.48888
17.74840	-9.27218	3.48888
17.75246	-9.27218	3.48888
17.75651	-9.27218	3.48888
17.76057	-9.27218	3.48888
17.76463	-9.27218	3.48888
17.76869	-9.27218	3.48888
17.77274	-9.29416	3.48888
17.77681	-9.29416	3.48888
17.78087	-9.29416	3.48888
17.78493	-9.29416	3.48888
17.78898	-9.29416	3.48888
17.79304	-9.29416	3.48888
17.79710	-9.29416	3.48888
17.80116	-9.29416	3.48888
17.80521	-9.29416	3.48888
17.80927	-9.29416	3.48888
17.81333	-9.29416	3.48888
17.81738	-9.29416	3.48888
17.82144	-9.29416	3.48888
17.82550	-9.29416	3.48888
17.82956	-9.29416	3.48888
17.83361	-9.29416	3.48888
17.83767	-9.29416	3.48888
17.84173	-9.29416	3.48888
17.84578	-9.27218	3.48888
17.85006	-9.29416	3.48888
17.85412	-9.29416	3.48888
17.85818	-9.29416	3.48888
17.86224	-9.27218	3.48888
17.86629	-9.27218	3.48888
17.87035	-9.27218	3.48888
17.87441	-9.25021	3.48888
17.87847	-9.25021	3.48888
17.88253	-9.25021	3.48888
17.88659	-9.25021	3.48888
17.89065	-9.25021	3.48888
17.89470	-9.22824	3.48888
17.89876	-9.22824	3.48888
17.90282	-9.22824	3.48888
17.90687	-9.22824	3.48888
17.91093	-9.20627	3.48888
17.91499	-9.20627	3.48888
17.91905	-9.20627	3.48888
17.92310	-9.18429	3.48888
17.92716	-9.18429	3.48888
17.93122	-9.16232	3.48888
17.93527	-9.16232	3.48888
17.93933	-9.16232	3.48888
17.94339	-9.16232	3.48888
17.94744	-9.14035	3.48888
17.95172	-9.11838	3.48888
17.95578	-9.11838	3.48888
17.95984	-9.09640	3.48888
17.96390	-9.09640	3.48888
17.96795	-9.09640	3.48888
17.97201	-9.07443	3.48888
17.97607	-9.05246	3.48888
17.98014	-9.05246	3.48888
17.98418	-9.05246	3.48888
17.98824	-9.03048	3.48888
17.99230	-9.00851	3.48888
17.99635	-9.00851	3.48888
18.00041	-8.98654	3.48888
18.00447	-8.98654	3.48888
18.00853	-8.96457	3.48888
18.01259	-8.96457	3.48888
18.01665	-8.94259	3.48888
18.02070	-8.92062	3.48888
18.02476	-8.92062	3.48888
18.02882	-8.92062	3.48888
18.03288	-8.87668	3.48888
18.03693	-8.87668	3.48888
18.04099	-8.85470	3.48888
18.04505	-8.85470	3.48888
18.04910	-8.83273	3.48888
18.05339	-8.81076	3.48888
18.05745	-8.78879	3.48888
18.06151	-8.78879	3.48888
18.06556	-8.76681	3.48888
18.06962	-8.76681	3.48888
18.07368	-8.74484	3.48888
18.07773	-8.72287	3.48888
18.08180	-8.70089	3.48888
18.08586	-8.67892	3.48888
18.08992	-8.67892	3.48888
18.09397	-8.65695	3.48888
18.09803	-8.63498	3.48888
18.10209	-8.63498	3.48888
18.10615	-8.61300	3.48888
18.11020	-8.59103	3.48888
18.11426	-8.59103	3.48888
18.11832	-8.56906	3.48888
18.12237	-8.54709	3.48888
18.12643	-8.52511	3.48888
18.13049	-8.50314	3.48888
18.13455	-8.50314	3.48888
18.13860	-8.48117	3.48888
18.14266	-8.45920	3.48888
18.14672	-8.43722	3.48888
18.15078	-8.43722	3.48888
18.15506	-8.41525	3.48888
18.15912	-8.41525	3.48888
18.16318	-8.39328	3.48888
18.16724	-8.37131	3.48888
18.17129	-8.34933	3.48888
18.17535	-8.34933	3.48888
18.17941	-8.30539	3.48888
18.18347	-8.30539	3.48888
18.18753	-8.26144	3.48888
18.19159	-8.26144	3.48888
18.19565	-8.23947	3.48888
18.19970	-8.23947	3.48888
18.20376	-8.21750	3.48888
18.20782	-8.19552	3.48888
18.21187	-8.17355	3.48888
18.21593	-8.15158	3.48888
18.21999	-8.15158	3.48888
18.22405	-8.12961	3.48888
18.22810	-8.10763	3.48888
18.23216	-8.08566	3.48888
18.23618	-8.04172	3.48888
18.24024	-8.04172	3.48888
18.24429	-8.04172	3.48888
18.24835	-7.99777	3.48888
18.25241	-7.97580	3.48888
18.25669	-7.95382	3.48888
18.26075	-7.95382	3.48888
18.26481	-7.93185	3.48888
18.26886	-7.90988	3.48888
18.27292	-7.88791	3.48888
18.27698	-7.86593	3.48888
18.28103	-7.84396	3.48888
18.28510	-7.84396	3.48888
18.28916	-7.82199	3.48888
18.29322	-7.80002	3.48888
18.29728	-7.77804	3.48888
18.30133	-7.77804	3.48888
18.30539	-7.73410	3.48888
18.30945	-7.73410	3.48888
18.31351	-7.71213	3.48888
18.31756	-7.69015	3.48888
18.32162	-7.66818	3.48888
18.32568	-7.66818	3.48888
18.32973	-7.62423	3.48888
18.33379	-7.60226	3.48888
18.33785	-7.58029	3.48888
18.34191	-7.55832	3.48888
18.34596	-7.55832	3.48888
18.35002	-7.53634	3.48888
18.35408	-7.51437	3.48888
18.35836	-7.49240	3.48888
18.36242	-7.47043	3.48888
18.36648	-7.44845	3.48888
18.37053	-7.44845	3.48888
18.37459	-7.42648	3.48888
18.37865	-7.40451	3.48888
18.38271	-7.38254	3.48888
18.38677	-7.33859	3.48888
18.39083	-7.33859	3.48888
18.39489	-7.31662	3.48888
18.39895	-7.29464	3.48888
18.40300	-7.27267	3.48888
18.40706	-7.25070	3.48888
18.41112	-7.22873	3.48888
18.41518	-7.22873	3.48888
18.41923	-7.20675	3.48888
18.42329	-7.18478	3.48888
18.42735	-7.16281	3.48888
18.43140	-7.16281	3.48888
18.43546	-7.11886	3.48888
18.43952	-7.11886	3.48888
18.44358	-7.09689	3.48888
18.44764	-7.05295	3.48888
18.45170	-7.05295	3.48888
18.45575	-7.05295	3.48888
18.46004	-7.03097	3.48888
18.46410	-7.00900	3.48888
18.46816	-6.96506	3.48888
18.47218	-6.94308	3.48888
18.47624	-6.94308	3.48888
18.48030	-6.92111	3.48888
18.48435	-6.89914	3.48888
18.48842	-6.87716	3.48888
18.49248	-6.85519	3.48888
18.49654	-6.85519	3.48888
18.50059	-6.83322	3.48888
18.50465	-6.81125	3.48888
18.50871	-6.81125	3.48888
18.51276	-6.76730	3.48888
18.51682	-6.76730	3.48888
18.52088	-6.74533	3.48888
18.52493	-6.72336	3.48888
18.52899	-6.72336	3.48888
18.53305	-6.70138	3.48888
18.53711	-6.65744	3.48888
18.54116	-6.65744	3.48888
18.54522	-6.65744	3.48888
18.54928	-6.63547	3.48888
18.55333	-6.61349	3.48888
18.55739	-6.61349	3.48888
18.56167	-6.59152	3.48888
18.56573	-6.56955	3.48888
18.56979	-6.54757	3.48888
18.57384	-6.52560	3.48888
18.57790	-6.50363	3.48888
18.58196	-6.50363	3.48888
18.58602	-6.48166	3.48888
18.59008	-6.45968	3.48888
18.59414	-6.43771	3.48888
18.59820	-6.41574	3.48888
18.60226	-6.41574	3.48888
18.60631	-6.39377	3.48888
18.61037	-6.37179	3.48888
18.61443	-6.37179	3.48888
18.61848	-6.34982	3.48888
18.62254	-6.30588	3.48888
18.62660	-6.30588	3.48888
18.63066	-6.30588	3.48888
18.63471	-6.28390	3.48888
18.63877	-6.26193	3.48888
18.64283	-6.23996	3.48888
18.64688	-6.23996	3.48888
18.65094	-6.23996	3.48888
18.65500	-6.21798	3.48888
18.65905	-6.19601	3.48888
18.66334	-6.17404	3.48888
18.66739	-6.15207	3.48888
18.67145	-6.15207	3.48888
18.67551	-6.15207	3.48888
18.67957	-6.13009	3.48888
18.68362	-6.10812	3.48888
18.68768	-6.08615	3.48888
18.69175	-6.08615	3.48888
18.69581	-6.06418	3.48888
18.69987	-6.06418	3.48888
18.70393	-6.04220	3.48888
18.70798	-6.02023	3.48888
18.71204	-6.02023	3.48888
18.71610	-5.99826	3.48888
18.72015	-5.99826	3.48888
18.72418	-5.99826	3.48888
18.72824	-5.97629	3.48888
18.73230	-5.97629	3.48888
18.73636	-5.93234	3.48888
18.74041	-5.93234	3.48888
18.74447	-5.91037	3.48888
18.74853	-5.88839	3.48888
18.75258	-5.88839	3.48888
18.75664	-5.88839	3.48888
18.76070	-5.86642	3.48888
18.76498	-5.84445	3.48888
18.76904	-5.84445	3.48888
18.77309	-5.84445	3.48888
18.77715	-5.82248	3.48888
18.78121	-5.82248	3.48888
18.78527	-5.80050	3.48888
18.78932	-5.77853	3.48888
18.79339	-5.77853	3.48888
18.79745	-5.77853	3.48888
18.80151	-5.75656	3.48888
18.80557	-5.75656	3.48888
18.80962	-5.75656	3.48888
18.81368	-5.73459	3.48888
18.81774	-5.73459	3.48888
18.82179	-5.71261	3.48888
18.82585	-5.71261	3.48888
18.82991	-5.69064	3.48888
18.83396	-5.69064	3.48888
18.83802	-5.66867	3.48888
18.84208	-5.66867	3.48888
18.84614	-5.66867	3.48888
18.85019	-5.64670	3.48888
18.85425	-5.64670	3.48888
18.85831	-5.64670	3.48888
18.86236	-5.62472	3.48888
18.86665	-5.62472	3.48888
18.87070	-5.60275	3.48888
18.87476	-5.60275	3.48888
18.87882	-5.60275	3.48888
18.88288	-5.60275	3.48888
18.88693	-5.58078	3.48888
18.89099	-5.58078	3.48888
18.89506	-5.58078	3.48888
18.89912	-5.55881	3.48888
18.90318	-5.55881	3.48888
18.90724	-5.55881	3.48888
18.91129	-5.55881	3.48888
18.91535	-5.55881	3.48888
18.91941	-5.53683	3.48888
18.92347	-5.53683	3.48888
18.92752	-5.53683	3.48888
18.93158	-5.53683	3.48888
18.93564	-5.53683	3.48888
18.93969	-5.51486	3.48888
18.94375	-5.51486	3.48888
18.94781	-5.51486	3.48888
18.95187	-5.51486	3.48888
18.95592	-5.51486	3.48888
18.95998	-5.51486	3.48888
18.96404	-5.49289	3.48888
18.96835	-5.49289	3.48888
18.97241	-5.49289	3.48888
18.97647	-5.49289	3.48888
18.98053	-5.49289	3.48888
18.98458	-5.49289	3.48888
18.98864	-5.49289	3.48888
18.99270	-5.49289	3.48888
18.99676	-5.47091	3.48888
19.00082	-5.49289	3.48888
19.00488	-5.47091	3.48888
19.00894	-5.47091	3.48888
19.01300	-5.47091	3.48888
19.01706	-5.49289	3.48888
19.02111	-5.47091	3.48888
19.02517	-5.47091	3.48888
19.02923	-5.47091	3.48888
19.03329	-5.47091	3.48888
19.03734	-5.47091	3.48888
19.04140	-5.47091	3.48888
19.04546	-5.49289	3.48888
19.04951	-5.47091	3.48888
19.05357	-5.47091	3.48888
19.05763	-5.49289	3.48888
19.06169	-5.47091	3.48888
19.06574	-5.49289	3.48888
19.07003	-5.49289	3.48888
19.07408	-5.49289	3.48888
19.07814	-5.49289	3.48888
19.08220	-5.49289	3.48888
19.08626	-5.49289	3.48888
19.09031	-5.49289	3.48888
19.09437	-5.49289	3.48888
19.09844	-5.49289	3.48888
19.10250	-5.49289	3.48888
19.10656	-5.49289	3.48888
19.11062	-5.49289	3.48888
19.11468	-5.49289	3.48888
19.11873	-5.49289	3.48888
19.12279	-5.51486	3.48888
19.12685	-5.51486	3.48888
19.13091	-5.51486	3.48888
19.13496	-5.51486	3.48888
19.13902	-5.51486	3.48888
19.14308	-5.51486	3.48888
19.14713	-5.51486	3.48888
19.15119	-5.53683	3.48888
19.15525	-5.53683	3.48888
19.15931	-5.53683	3.48888
19.16336	-5.53683	3.48888
19.16743	-5.53683	3.48888
19.17172	-5.55881	3.48888
19.17578	-5.55881	3.48888
19.17984	-5.55881	3.48888
19.18390	-5.55881	3.48888
19.18795	-5.55881	3.48888
19.19201	-5.58078	3.48888
19.19607	-5.60275	3.48888
19.20013	-5.58078	3.48888
19.20419	-5.58078	3.48888
19.20824	-5.60275	3.48888
19.21230	-5.60275	3.48888
19.21636	-5.60275	3.48888
19.22041	-5.62472	3.48888
19.22448	-5.62472	3.48888
19.22854	-5.62472	3.48888
19.23259	-5.64670	3.48888
19.23665	-5.64670	3.48888
19.24071	-5.64670	3.48888
19.24477	-5.66867	3.48888
19.24882	-5.66867	3.48888
19.25288	-5.66867	3.48888
19.25694	-5.66867	3.48888
19.26100	-5.69064	3.48888
19.26505	-5.69064	3.48888
19.26911	-5.69064	3.48888
19.27340	-5.69064	3.48888
19.27746	-5.71261	3.48888
19.28152	-5.73459	3.48888
19.28557	-5.73459	3.48888
19.28963	-5.73459	3.48888
19.29369	-5.73459	3.48888
19.29775	-5.75656	3.48888
19.30181	-5.75656	3.48888
19.30587	-5.75656	3.48888
19.30993	-5.75656	3.48888
19.31399	-5.77853	3.48888
19.31804	-5.77853	3.48888
19.32210	-5.80050	3.48888
19.32616	-5.80050	3.48888
19.33022	-5.80050	3.48888
19.33427	-5.82248	3.48888
19.33833	-5.82248	3.48888
19.34239	-5.84445	3.48888
19.34644	-5.84445	3.48888
19.35050	-5.84445	3.48888
19.35456	-5.84445	3.48888
19.35862	-5.86642	3.48888
19.36267	-5.86642	3.48888
19.36673	-5.88839	3.48888
19.37079	-5.88839	3.48888
19.37507	-5.88839	3.48888
19.37913	-5.91037	3.48888
19.38318	-5.91037	3.48888
19.38724	-5.91037	3.48888
19.39130	-5.93234	3.48888
19.39536	-5.93234	3.48888
19.39941	-5.93234	3.48888
19.40348	-5.95431	3.48888
19.40754	-5.95431	3.48888
19.41159	-5.97629	3.48888
19.41565	-5.97629	3.48888
19.41971	-5.99826	3.48888
19.42377	-5.99826	3.48888
19.42782	-5.99826	3.48888
19.43188	-5.99826	3.48888
19.43594	-6.02023	3.48888
19.44009	-6.02023	3.48888
19.44415	-6.04220	3.48888
19.44818	-6.04220	3.48888
19.45224	-6.04220	3.48888
19.45630	-6.06418	3.48888
19.46035	-6.06418	3.48888
19.46441	-6.08615	3.48888
19.46847	-6.08615	3.48888
19.47253	-6.08615	3.48888
19.47681	-6.10812	3.48888
19.48087	-6.10812	3.48888
19.48493	-6.10812	3.48888
19.48898	-6.10812	3.48888
19.49304	-6.13009	3.48888
19.49710	-6.13009	3.48888
19.50116	-6.15207	3.48888
19.50522	-6.15207	3.48888
19.50928	-6.15207	3.48888
19.51334	-6.17404	3.48888
19.51740	-6.17404	3.48888
19.52145	-6.19601	3.48888
19.52551	-6.19601	3.48888
19.52957	-6.19601	3.48888
19.53363	-6.19601	3.48888
19.53768	-6.21798	3.48888
19.54174	-6.21798	3.48888
19.54580	-6.21798	3.48888
19.54985	-6.21798	3.48888
19.55391	-6.23996	3.48888
19.55797	-6.23996	3.48888
19.56203	-6.26193	3.48888
19.56608	-6.26193	3.48888
19.57014	-6.26193	3.48888
19.57420	-6.28390	3.48888
19.57848	-6.28390	3.48888
19.58254	-6.30588	3.48888
19.58660	-6.30588	3.48888
19.59066	-6.30588	3.48888
19.59471	-6.30588	3.48888
19.59877	-6.32785	3.48888
19.60283	-6.32785	3.48888
19.60689	-6.34982	3.48888
19.61095	-6.34982	3.48888
19.61501	-6.32785	3.48888
19.61907	-6.34982	3.48888
19.62313	-6.37179	3.48888
19.62718	-6.37179	3.48888
19.63124	-6.37179	3.48888
19.63530	-6.37179	3.48888
19.63935	-6.37179	3.48888
19.64341	-6.39377	3.48888
19.64747	-6.39377	3.48888
19.65153	-6.41574	3.48888
19.65558	-6.41574	3.48888
19.65964	-6.41574	3.48888
19.66370	-6.41574	3.48888
19.66775	-6.41574	3.48888
19.67181	-6.43771	3.48888
19.67587	-6.43771	3.48888
19.68015	-6.43771	3.48888
19.68418	-6.45968	3.48888
19.68824	-6.45968	3.48888
19.69230	-6.45968	3.48888
19.69635	-6.48166	3.48888
19.70041	-6.48166	3.48888
19.70447	-6.48166	3.48888
19.70853	-6.48166	3.48888
19.71259	-6.48166	3.48888
19.71665	-6.48166	3.48888
19.72070	-6.50363	3.48888
19.72476	-6.50363	3.48888
19.72882	-6.50363	3.48888
19.73288	-6.50363	3.48888
19.73693	-6.52560	3.48888
19.74099	-6.52560	3.48888
19.74505	-6.52560	3.48888
19.74910	-6.52560	3.48888
19.75316	-6.52560	3.48888
19.75722	-6.54757	3.48888
19.76128	-6.54757	3.48888
19.76533	-6.54757	3.48888
19.76939	-6.54757	3.48888
19.77345	-6.54757	3.48888
19.77750	-6.56955	3.48888
19.78178	-6.56955	3.48888
19.78584	-6.56955	3.48888
19.78990	-6.56955	3.48888
19.79396	-6.56955	3.48888
19.79801	-6.56955	3.48888
19.80207	-6.56955	3.48888
19.80613	-6.56955	3.48888
19.81019	-6.56955	3.48888
19.81425	-6.59152	3.48888
19.81831	-6.59152	3.48888
19.82237	-6.59152	3.48888
19.82642	-6.59152	3.48888
19.83048	-6.59152	3.48888
19.83454	-6.59152	3.48888
19.83860	-6.59152	3.48888
19.84265	-6.59152	3.48888
19.84671	-6.61349	3.48888
19.85077	-6.61349	3.48888
19.85483	-6.59152	3.48888
19.85888	-6.61349	3.48888
19.86294	-6.61349	3.48888
19.86700	-6.61349	3.48888
19.87105	-6.61349	3.48888
19.87511	-6.61349	3.48888
19.87917	-6.61349	3.48888
19.88346	-6.61349	3.48888
19.88751	-6.61349	3.48888
19.89157	-6.61349	3.48888
19.89563	-6.61349	3.48888
19.89968	-6.61349	3.48888
19.90374	-6.61349	3.48888
19.90780	-6.61349	3.48888
19.91186	-6.61349	3.48888
19.91592	-6.61349	3.48888
19.91998	-6.61349	3.48888
19.92404	-6.61349	3.48888
19.92810	-6.61349	3.48888
19.93215	-6.61349	3.48888
19.93618	-6.61349	3.48888
19.94024	-6.61349	3.48888
19.94430	-6.61349	3.48888
19.94835	-6.61349	3.48888
19.95241	-6.61349	3.48888
19.95647	-6.61349	3.48888
19.96052	-6.61349	3.48888
19.96458	-6.61349	3.48888
19.96864	-6.61349	3.48888
19.97270	-6.59152	3.48888
19.97675	-6.59152	3.48888
19.98081	-6.61349	3.48888
19.98509	-6.59152	3.48888
19.98915	-6.59152	3.48888
19.99320	-6.59152	3.48888
19.99726	-6.59152	3.48888
20.00132	-6.59152	3.48888
20.00538	-6.59152	3.48888
20.00943	-6.59152	3.48888
20.01350	-6.59152	3.48888
20.01755	-6.59152	3.48888
20.02161	-6.56955	3.48888
20.02567	-6.56955	3.48888
20.02973	-6.56955	3.48888
20.03379	-6.56955	3.48888
20.03784	-6.56955	3.48888
20.04190	-6.56955	3.48888
20.04596	-6.56955	3.48888
20.05001	-6.54757	3.48888
20.05407	-6.54757	3.48888
20.05813	-6.54757	3.48888
20.06218	-6.54757	3.48888
20.06624	-6.54757	3.48888
20.07030	-6.52560	3.48888
20.07436	-6.52560	3.48888
20.07841	-6.52560	3.48888
20.08247	-6.52560	3.48888
20.08675	-6.50363	3.48888
20.09081	-6.50363	3.48888
20.09486	-6.50363	3.48888
20.09892	-6.48166	3.48888
20.10298	-6.48166	3.48888
20.10704	-6.48166	3.48888
20.11109	-6.48166	3.48888
20.11516	-6.45968	3.48888
20.11922	-6.45968	3.48888
20.12328	-6.45968	3.48888
20.12733	-6.45968	3.48888
20.13139	-6.43771	3.48888
20.13545	-6.43771	3.48888
20.13950	-6.41574	3.48888
20.14356	-6.41574	3.48888
20.14762	-6.41574	3.48888
20.15168	-6.41574	3.48888
20.15573	-6.39377	3.48888
20.15979	-6.39377	3.48888
20.16385	-6.37179	3.48888
20.16790	-6.37179	3.48888
20.17196	-6.37179	3.48888
20.17602	-6.37179	3.48888
20.18008	-6.34982	3.48888
20.18413	-6.32785	3.48888
20.18841	-6.32785	3.48888
20.19247	-6.32785	3.48888
20.19653	-6.32785	3.48888
20.20058	-6.30588	3.48888
20.20464	-6.30588	3.48888
20.20870	-6.28390	3.48888
20.21276	-6.28390	3.48888
20.21682	-6.28390	3.48888
20.22088	-6.26193	3.48888
20.22494	-6.26193	3.48888
20.22900	-6.23996	3.48888
20.23306	-6.23996	3.48888
20.23711	-6.23996	3.48888
20.24117	-6.23996	3.48888
20.24523	-6.21798	3.48888
20.24929	-6.21798	3.48888
20.25334	-6.19601	3.48888
20.25740	-6.19601	3.48888
20.26146	-6.19601	3.48888
20.26552	-6.17404	3.48888
20.26957	-6.17404	3.48888
20.27363	-6.17404	3.48888
20.27769	-6.15207	3.48888
20.28174	-6.15207	3.48888
20.28580	-6.13009	3.48888
20.29009	-6.10812	3.48888
20.29414	-6.10812	3.48888
20.29820	-6.10812	3.48888
20.30226	-6.08615	3.48888
20.30632	-6.08615	3.48888
20.31037	-6.08615	3.48888
20.31443	-6.08615	3.48888
20.31849	-6.06418	3.48888
20.32255	-6.04220	3.48888
20.32661	-6.04220	3.48888
20.33066	-6.02023	3.48888
20.33472	-6.02023	3.48888
20.33878	-6.02023	3.48888
20.34284	-5.99826	3.48888
20.34689	-5.99826	3.48888
20.35095	-5.97629	3.48888
20.35501	-5.95431	3.48888
20.35906	-5.95431	3.48888
20.36312	-5.95431	3.48888
20.36718	-5.95431	3.48888
20.37123	-5.93234	3.48888
20.37529	-5.93234	3.48888
20.37935	-5.91037	3.48888
20.38340	-5.91037	3.48888
20.38746	-5.91037	3.48888
20.39172	-5.88839	3.48888
20.39578	-5.88839	3.48888
20.39984	-5.86642	3.48888
20.40389	-5.84445	3.48888
20.40795	-5.84445	3.48888
20.41201	-5.84445	3.48888
20.41606	-5.82248	3.48888
20.42014	-5.82248	3.48888
20.42418	-5.82248	3.48888
20.42824	-5.80050	3.48888
20.43230	-5.80050	3.48888
20.43636	-5.77853	3.48888
20.44042	-5.77853	3.48888
20.44448	-5.77853	3.48888
20.44854	-5.77853	3.48888
20.45260	-5.75656	3.48888
20.45665	-5.73459	3.48888
20.46071	-5.73459	3.48888
20.46477	-5.71261	3.48888
20.46882	-5.71261	3.48888
20.47288	-5.71261	3.48888
20.47694	-5.71261	3.48888
20.48100	-5.69064	3.48888
20.48505	-5.66867	3.48888
20.48911	-5.66867	3.48888
20.49340	-5.66867	3.48888
20.49745	-5.66867	3.48888
20.50151	-5.64670	3.48888
20.50557	-5.64670	3.48888
20.50963	-5.62472	3.48888
20.51369	-5.62472	3.48888
20.51774	-5.62472	3.48888
20.52181	-5.60275	3.48888
20.52587	-5.60275	3.48888
20.52994	-5.60275	3.48888
20.53399	-5.60275	3.48888
20.53805	-5.58078	3.48888
20.54211	-5.58078	3.48888
20.54616	-5.55881	3.48888
20.55022	-5.55881	3.48888
20.55428	-5.55881	3.48888
20.55834	-5.53683	3.48888
20.56239	-5.53683	3.48888
20.56645	-5.53683	3.48888
20.57051	-5.53683	3.48888
20.57457	-5.51486	3.48888
20.57862	-5.51486	3.48888
20.58268	-5.49289	3.48888
20.58674	-5.49289	3.48888
20.59079	-5.49289	3.48888
20.59508	-5.49289	3.48888
20.59914	-5.47091	3.48888
20.60320	-5.47091	3.48888
20.60725	-5.47091	3.48888
20.61131	-5.44894	3.48888
20.61537	-5.44894	3.48888
20.61943	-5.44894	3.48888
20.62350	-5.44894	3.48888
20.62755	-5.44894	3.48888
20.63161	-5.44894	3.48888
20.63567	-5.42697	3.48888
20.63973	-5.42697	3.48888
20.64378	-5.42697	3.48888
20.64784	-5.42697	3.48888
20.65190	-5.40500	3.48888
20.65596	-5.40500	3.48888
20.66001	-5.40500	3.48888
20.66407	-5.40500	3.48888
20.66813	-5.40500	3.48888
20.67218	-5.40500	3.48888
20.67624	-5.38302	3.48888
20.68029	-5.38302	3.48888
20.68435	-5.38302	3.48888
20.68841	-5.38302	3.48888
20.69247	-5.36105	3.48888
20.69675	-5.38302	3.48888
20.70081	-5.38302	3.48888
20.70487	-5.36105	3.48888
20.70892	-5.36105	3.48888
20.71298	-5.36105	3.48888
20.71704	-5.36105	3.48888
20.72110	-5.36105	3.48888
20.72517	-5.36105	3.48888
20.72923	-5.36105	3.48888
20.73328	-5.36105	3.48888
20.73734	-5.36105	3.48888
20.74140	-5.36105	3.48888
20.74545	-5.36105	3.48888
20.74951	-5.36105	3.48888
20.75357	-5.36105	3.48888
20.75763	-5.36105	3.48888
20.76168	-5.36105	3.48888
20.76574	-5.33908	3.48888
20.76980	-5.33908	3.48888
20.77385	-5.36105	3.48888
20.77791	-5.36105	3.48888
20.78197	-5.36105	3.48888
20.78603	-5.36105	3.48888
20.79008	-5.36105	3.48888
20.79414	-5.36105	3.48888
20.79842	-5.36105	3.48888
20.80248	-5.36105	3.48888
20.80654	-5.36105	3.48888
20.81059	-5.36105	3.48888
20.81465	-5.36105	3.48888
20.81871	-5.36105	3.48888
20.82277	-5.36105	3.48888
20.82684	-5.36105	3.48888
20.83090	-5.38302	3.48888
20.83495	-5.38302	3.48888
20.83901	-5.38302	3.48888
20.84307	-5.38302	3.48888
20.84712	-5.38302	3.48888
20.85118	-5.38302	3.48888
20.85524	-5.38302	3.48888
20.85930	-5.38302	3.48888
20.86335	-5.38302	3.48888
20.86741	-5.40500	3.48888
20.87147	-5.40500	3.48888
20.87552	-5.40500	3.48888
20.87958	-5.40500	3.48888
20.88364	-5.40500	3.48888
20.88770	-5.40500	3.48888
20.89175	-5.40500	3.48888
20.89581	-5.40500	3.48888
20.90010	-5.42697	3.48888
20.90415	-5.42697	3.48888
20.90818	-5.42697	3.48888
20.91224	-5.42697	3.48888
20.91630	-5.44894	3.48888
20.92035	-5.44894	3.48888
20.92441	-5.44894	3.48888
20.92871	-5.44894	3.48888
20.93278	-5.44894	3.48888
20.93684	-5.44894	3.48888
20.94089	-5.44894	3.48888
20.94495	-5.47091	3.48888
20.94901	-5.47091	3.48888
20.95307	-5.47091	3.48888
20.95712	-5.47091	3.48888
20.96118	-5.49289	3.48888
20.96524	-5.49289	3.48888
20.96930	-5.49289	3.48888
20.97335	-5.49289	3.48888
20.97741	-5.51486	3.48888
20.98147	-5.49289	3.48888
20.98552	-5.49289	3.48888
20.98958	-5.51486	3.48888
20.99364	-5.51486	3.48888
20.99770	-5.51486	3.48888
21.00200	-5.53683	3.48888
21.00606	-5.53683	3.48888
21.01012	-5.53683	3.48888
21.01417	-5.53683	3.48888
21.01823	-5.55881	3.48888
21.02229	-5.55881	3.48888
21.02635	-5.55881	3.48888
21.03043	-5.55881	3.48888
21.03450	-5.55881	3.48888
21.03856	-5.55881	3.48888
21.04261	-5.58078	3.48888
21.04667	-5.58078	3.48888
21.05073	-5.58078	3.48888
21.05479	-5.58078	3.48888
21.05884	-5.60275	3.48888
21.06290	-5.60275	3.48888
21.06696	-5.60275	3.48888
21.07102	-5.60275	3.48888
21.07507	-5.60275	3.48888
21.07913	-5.60275	3.48888
21.08319	-5.62472	3.48888
21.08724	-5.62472	3.48888
21.09130	-5.62472	3.48888
21.09536	-5.62472	3.48888
21.09942	-5.64670	3.48888
21.10372	-5.64670	3.48888
21.10777	-5.64670	3.48888
21.11183	-5.64670	3.48888
21.11589	-5.64670	3.48888
21.11995	-5.64670	3.48888
21.12400	-5.66867	3.48888
21.12806	-5.66867	3.48888
21.13213	-5.66867	3.48888
21.13618	-5.66867	3.48888
21.14024	-5.69064	3.48888
21.14430	-5.69064	3.48888
21.14836	-5.71261	3.48888
21.15241	-5.71261	3.48888
21.15647	-5.71261	3.48888
21.16053	-5.71261	3.48888
21.16459	-5.71261	3.48888
21.16864	-5.73459	3.48888
21.17270	-5.73459	3.48888
21.17676	-5.73459	3.48888
21.18082	-5.73459	3.48888
21.18487	-5.73459	3.48888
21.18893	-5.73459	3.48888
21.19299	-5.73459	3.48888
21.19705	-5.73459	3.48888
21.20110	-5.75656	3.48888
21.20541	-5.75656	3.48888
21.20946	-5.75656	3.48888
21.21352	-5.75656	3.48888
21.21758	-5.77853	3.48888
21.22164	-5.77853	3.48888
21.22571	-5.77853	3.48888
21.22976	-5.80050	3.48888
21.23383	-5.77853	3.48888
21.23789	-5.80050	3.48888
21.24195	-5.80050	3.48888
21.24601	-5.80050	3.48888
21.25007	-5.80050	3.48888
21.25412	-5.80050	3.48888
21.25818	-5.82248	3.48888
21.26224	-5.82248	3.48888
21.26630	-5.82248	3.48888
21.27035	-5.82248	3.48888
21.27441	-5.82248	3.48888
21.27847	-5.82248	3.48888
21.28252	-5.84445	3.48888
21.28658	-5.84445	3.48888
21.29064	-5.84445	3.48888
21.29470	-5.84445	3.48888
21.29875	-5.86642	3.48888
21.30281	-5.86642	3.48888
21.30711	-5.84445	3.48888
21.31117	-5.86642	3.48888
21.31522	-5.84445	3.48888
21.31928	-5.86642	3.48888
21.32334	-5.86642	3.48888
21.32740	-5.86642	3.48888
21.33146	-5.86642	3.48888
21.33553	-5.88839	3.48888
21.33959	-5.88839	3.48888
21.34365	-5.88839	3.48888
21.34771	-5.88839	3.48888
21.35176	-5.88839	3.48888
21.35582	-5.88839	3.48888
21.35988	-5.88839	3.48888
21.36394	-5.91037	3.48888
21.36799	-5.91037	3.48888
21.37205	-5.91037	3.48888
21.37611	-5.91037	3.48888
21.38017	-5.91037	3.48888
21.38418	-5.91037	3.48888
21.38824	-5.91037	3.48888
21.39230	-5.91037	3.48888
21.39636	-5.91037	3.48888
21.40041	-5.91037	3.48888
21.40447	-5.93234	3.48888
21.40876	-5.93234	3.48888
21.41282	-5.93234	3.48888
21.41688	-5.93234	3.48888
21.42094	-5.93234	3.48888
21.42500	-5.93234	3.48888
21.42906	-5.93234	3.48888
21.43311	-5.93234	3.48888
21.43718	-5.93234	3.48888
21.44124	-5.95431	3.48888
21.44530	-5.95431	3.48888
21.44936	-5.95431	3.48888
21.45341	-5.95431	3.48888
21.45747	-5.95431	3.48888
21.46153	-5.95431	3.48888
21.46559	-5.95431	3.48888
21.46964	-5.97629	3.48888
21.47370	-5.95431	3.48888
21.47776	-5.95431	3.48888
21.48181	-5.97629	3.48888
21.48587	-5.97629	3.48888
21.48993	-5.97629	3.48888
21.49399	-5.97629	3.48888
21.49804	-5.97629	3.48888
21.50210	-5.97629	3.48888
21.50616	-5.99826	3.48888
21.51045	-5.99826	3.48888
21.51451	-5.97629	3.48888
21.51857	-5.99826	3.48888
21.52262	-5.99826	3.48888
21.52669	-5.97629	3.48888
21.53074	-5.99826	3.48888
21.53480	-5.99826	3.48888
21.53888	-5.99826	3.48888
21.54294	-5.99826	3.48888
21.54699	-6.02023	3.48888
21.55105	-6.02023	3.48888
21.55511	-6.02023	3.48888
21.55917	-6.02023	3.48888
21.56322	-6.02023	3.48888
21.56728	-6.02023	3.48888
21.57134	-6.04220	3.48888
21.57540	-6.02023	3.48888
21.57945	-6.04220	3.48888
21.58351	-6.04220	3.48888
21.58757	-6.04220	3.48888
21.59163	-6.04220	3.48888
21.59568	-6.04220	3.48888
21.59974	-6.04220	3.48888
21.60380	-6.04220	3.48888
21.60785	-6.06418	3.48888
21.61214	-6.06418	3.48888
21.61619	-6.06418	3.48888
21.62024	-6.06418	3.48888
21.62430	-6.06418	3.48888
21.62836	-6.06418	3.48888
21.63242	-6.06418	3.48888
21.63648	-6.06418	3.48888
21.64055	-6.08615	3.48888
21.64461	-6.08615	3.48888
21.64866	-6.08615	3.48888
21.65272	-6.08615	3.48888
21.65678	-6.08615	3.48888
21.66084	-6.08615	3.48888
21.66489	-6.10812	3.48888
21.66895	-6.10812	3.48888
21.67301	-6.10812	3.48888
21.67706	-6.10812	3.48888
21.68112	-6.10812	3.48888
21.68518	-6.10812	3.48888
21.68924	-6.10812	3.48888
21.69329	-6.10812	3.48888
21.69735	-6.13009	3.48888
21.70141	-6.10812	3.48888
21.70546	-6.13009	3.48888
21.70952	-6.13009	3.48888
21.71382	-6.13009	3.48888
21.71787	-6.13009	3.48888
21.72193	-6.13009	3.48888
21.72599	-6.13009	3.48888
21.73005	-6.15207	3.48888
21.73411	-6.15207	3.48888
21.73817	-6.15207	3.48888
21.74224	-6.15207	3.48888
21.74630	-6.15207	3.48888
21.75036	-6.15207	3.48888
21.75441	-6.15207	3.48888
21.75847	-6.17404	3.48888
21.76253	-6.15207	3.48888
21.76659	-6.15207	3.48888
21.77064	-6.17404	3.48888
21.77470	-6.17404	3.48888
21.77876	-6.17404	3.48888
21.78281	-6.17404	3.48888
21.78687	-6.17404	3.48888
21.79093	-6.17404	3.48888
21.79498	-6.17404	3.48888
21.79904	-6.17404	3.48888
21.80310	-6.19601	3.48888
21.80716	-6.19601	3.48888
21.81121	-6.19601	3.48888
21.81551	-6.19601	3.48888
21.81957	-6.19601	3.48888
21.82362	-6.19601	3.48888
21.82769	-6.19601	3.48888
21.83174	-6.19601	3.48888
21.83580	-6.19601	3.48888
21.83986	-6.19601	3.48888
21.84393	-6.21798	3.48888
21.84799	-6.19601	3.48888
21.85205	-6.21798	3.48888
21.85611	-6.21798	3.48888
21.86017	-6.21798	3.48888
21.86418	-6.21798	3.48888
21.86824	-6.21798	3.48888
21.87230	-6.21798	3.48888
21.87635	-6.21798	3.48888
21.88041	-6.21798	3.48888
21.88447	-6.23996	3.48888
21.88852	-6.21798	3.48888
21.89258	-6.23996	3.48888
21.89664	-6.23996	3.48888
21.90070	-6.23996	3.48888
21.90475	-6.23996	3.48888
21.90881	-6.23996	3.48888
21.91287	-6.23996	3.48888
21.91716	-6.23996	3.48888
21.92122	-6.23996	3.48888
21.92531	-6.23996	3.48888
21.92936	-6.23996	3.48888
21.93342	-6.26193	3.48888
21.93748	-6.23996	3.48888
21.94154	-6.23996	3.48888
21.94560	-6.23996	3.48888
21.94966	-6.23996	3.48888
21.95372	-6.26193	3.48888
21.95778	-6.26193	3.48888
21.96183	-6.26193	3.48888
21.96589	-6.23996	3.48888
21.96995	-6.23996	3.48888
21.97401	-6.26193	3.48888
21.97806	-6.26193	3.48888
21.98212	-6.26193	3.48888
21.98618	-6.26193	3.48888
21.99024	-6.26193	3.48888
21.99429	-6.26193	3.48888
21.99835	-6.26193	3.48888
22.00241	-6.26193	3.48888
22.00646	-6.26193	3.48888
22.01052	-6.26193	3.48888
22.01458	-6.26193	3.48888
22.01887	-6.26193	3.48888
22.02293	-6.26193	3.48888
22.02699	-6.26193	3.48888
22.03105	-6.26193	3.48888
22.03511	-6.28390	3.48888
22.03917	-6.28390	3.48888
22.04322	-6.28390	3.48888
22.04730	-6.28390	3.48888
22.05136	-6.28390	3.48888
22.05542	-6.28390	3.48888
22.05948	-6.28390	3.48888
22.06353	-6.28390	3.48888
22.06759	-6.28390	3.48888
22.07165	-6.28390	3.48888
22.07571	-6.28390	3.48888
22.07977	-6.28390	3.48888
22.08382	-6.28390	3.48888
22.08788	-6.28390	3.48888
22.09194	-6.30588	3.48888
22.09599	-6.30588	3.48888
22.10005	-6.28390	3.48888
22.10411	-6.28390	3.48888
22.10817	-6.30588	3.48888
22.11218	-6.30588	3.48888
22.11624	-6.30588	3.48888
22.12052	-6.30588	3.48888
22.12458	-6.30588	3.48888
22.12864	-6.30588	3.48888
22.13270	-6.30588	3.48888
22.13676	-6.30588	3.48888
22.14082	-6.30588	3.48888
22.14487	-6.30588	3.48888
22.14894	-6.30588	3.48888
22.15300	-6.30588	3.48888
22.15705	-6.30588	3.48888
22.16111	-6.32785	3.48888
22.16517	-6.32785	3.48888
22.16923	-6.30588	3.48888
22.17329	-6.30588	3.48888
22.17734	-6.30588	3.48888
22.18140	-6.30588	3.48888
22.18546	-6.32785	3.48888
22.18951	-6.32785	3.48888
22.19357	-6.32785	3.48888
22.19763	-6.32785	3.48888
22.20169	-6.32785	3.48888
22.20574	-6.32785	3.48888
22.20980	-6.32785	3.48888
22.21386	-6.32785	3.48888
22.21791	-6.32785	3.48888
22.22221	-6.32785	3.48888
22.22627	-6.32785	3.48888
22.23033	-6.34982	3.48888
22.23439	-6.32785	3.48888
22.23844	-6.32785	3.48888
22.24251	-6.34982	3.48888
22.24656	-6.32785	3.48888
22.25063	-6.32785	3.48888
22.25469	-6.34982	3.48888
22.25875	-6.34982	3.48888
22.26280	-6.34982	3.48888
22.26686	-6.34982	3.48888
22.27092	-6.34982	3.48888
22.27497	-6.34982	3.48888
22.27903	-6.34982	3.48888
22.28309	-6.34982	3.48888
22.28715	-6.34982	3.48888
22.29120	-6.34982	3.48888
22.29526	-6.34982	3.48888
22.29932	-6.34982	3.48888
22.30338	-6.34982	3.48888
22.30743	-6.34982	3.48888
22.31149	-6.34982	3.48888
22.31555	-6.34982	3.48888
22.31960	-6.34982	3.48888
22.32390	-6.34982	3.48888
22.32796	-6.34982	3.48888
22.33202	-6.34982	3.48888
22.33608	-6.34982	3.48888
22.34013	-6.34982	3.48888
22.34418	-6.34982	3.48888
22.34824	-6.34982	3.48888
22.35231	-6.34982	3.48888
22.35637	-6.34982	3.48888
22.36042	-6.34982	3.48888
22.36448	-6.34982	3.48888
22.36854	-6.34982	3.48888
22.37260	-6.34982	3.48888
22.37666	-6.34982	3.48888
22.38071	-6.34982	3.48888
22.38477	-6.34982	3.48888
22.38883	-6.34982	3.48888
22.39289	-6.34982	3.48888
22.39694	-6.34982	3.48888
22.40100	-6.34982	3.48888
22.40506	-6.34982	3.48888
22.40912	-6.34982	3.48888
22.41317	-6.34982	3.48888
22.41723	-6.34982	3.48888
22.42129	-6.34982	3.48888
22.42558	-6.32785	3.48888
22.42964	-6.34982	3.48888
22.43370	-6.32785	3.48888
22.43775	-6.34982	3.48888
22.44181	-6.34982	3.48888
22.44587	-6.34982	3.48888
22.44993	-6.32785	3.48888
22.45400	-6.34982	3.48888
22.45806	-6.32785	3.48888
22.46212	-6.32785	3.48888
22.46617	-6.32785	3.48888
22.47023	-6.32785	3.48888
22.47429	-6.32785	3.48888
22.47835	-6.32785	3.48888
22.48240	-6.32785	3.48888
22.48646	-6.32785	3.48888
22.49052	-6.32785	3.48888
22.49457	-6.32785	3.48888
22.49863	-6.32785	3.48888
22.50269	-6.32785	3.48888
22.50675	-6.32785	3.48888
22.51080	-6.32785	3.48888
22.51486	-6.32785	3.48888
22.51892	-6.32785	3.48888
22.52297	-6.30588	3.48888
22.52728	-6.30588	3.48888
22.53134	-6.32785	3.48888
22.53539	-6.32785	3.48888
22.53945	-6.32785	3.48888
22.54351	-6.32785	3.48888
22.54757	-6.32785	3.48888
22.55162	-6.32785	3.48888
22.55569	-6.32785	3.48888
22.55975	-6.32785	3.48888
22.56381	-6.30588	3.48888
22.56787	-6.30588	3.48888
22.57192	-6.30588	3.48888
22.57598	-6.32785	3.48888
22.58004	-6.30588	3.48888
22.58410	-6.30588	3.48888
22.58815	-6.30588	3.48888
22.59218	-6.30588	3.48888
22.59624	-6.30588	3.48888
22.60030	-6.30588	3.48888
22.60435	-6.32785	3.48888
22.60841	-6.32785	3.48888
22.61247	-6.30588	3.48888
22.61652	-6.30588	3.48888
22.62058	-6.30588	3.48888
22.62464	-6.30588	3.48888
22.62894	-6.30588	3.48888
22.63300	-6.30588	3.48888
22.63706	-6.30588	3.48888
22.64112	-6.30588	3.48888
22.64518	-6.30588	3.48888
22.64923	-6.30588	3.48888
22.65329	-6.30588	3.48888
22.65735	-6.30588	3.48888
22.66141	-6.30588	3.48888
22.66547	-6.30588	3.48888
22.66953	-6.30588	3.48888
22.67359	-6.30588	3.48888
22.67765	-6.30588	3.48888
22.68170	-6.30588	3.48888
22.68576	-6.30588	3.48888
22.68982	-6.30588	3.48888
22.69388	-6.30588	3.48888
22.69793	-6.30588	3.48888
22.70199	-6.30588	3.48888
22.70605	-6.30588	3.48888
22.71011	-6.30588	3.48888
22.71416	-6.30588	3.48888
22.71822	-6.30588	3.48888
22.72228	-6.30588	3.48888
22.72634	-6.30588	3.48888
22.73063	-6.30588	3.48888
22.73469	-6.30588	3.48888
22.73875	-6.30588	3.48888
22.74280	-6.30588	3.48888
22.74687	-6.32785	3.48888
22.75092	-6.30588	3.48888
22.75498	-6.30588	3.48888
22.75905	-6.30588	3.48888
22.76311	-6.30588	3.48888
22.76717	-6.30588	3.48888
22.77122	-6.32785	3.48888
22.77528	-6.32785	3.48888
22.77934	-6.30588	3.48888
22.78340	-6.30588	3.48888
22.78745	-6.32785	3.48888
22.79151	-6.32785	3.48888
22.79557	-6.32785	3.48888
22.79963	-6.32785	3.48888
22.80368	-6.32785	3.48888
22.80774	-6.32785	3.48888
22.81180	-6.32785	3.48888
22.81585	-6.32785	3.48888
22.81991	-6.32785	3.48888
22.82397	-6.32785	3.48888
22.82803	-6.32785	3.48888
22.83233	-6.32785	3.48888
22.83639	-6.32785	3.48888
22.84045	-6.32785	3.48888
22.84451	-6.32785	3.48888
22.84856	-6.32785	3.48888
22.85262	-6.32785	3.48888
22.85668	-6.32785	3.48888
22.86074	-6.32785	3.48888
22.86480	-6.34982	3.48888
22.86886	-6.34982	3.48888
22.87292	-6.34982	3.48888
22.87698	-6.34982	3.48888
22.88103	-6.34982	3.48888
22.88509	-6.32785	3.48888
22.88915	-6.32785	3.48888
22.89320	-6.34982	3.48888
22.89726	-6.32785	3.48888
22.90132	-6.34982	3.48888
22.90538	-6.34982	3.48888
22.90943	-6.34982	3.48888
22.91349	-6.32785	3.48888
22.91755	-6.32785	3.48888
22.92160	-6.34982	3.48888
22.92566	-6.32785	3.48888
22.92972	-6.34982	3.48888
22.93401	-6.34982	3.48888
22.93807	-6.32785	3.48888
22.94213	-6.34982	3.48888
22.94618	-6.34982	3.48888
22.95025	-6.32785	3.48888
22.95431	-6.32785	3.48888
22.95836	-6.34982	3.48888
22.96243	-6.32785	3.48888
22.96649	-6.32785	3.48888
22.97055	-6.34982	3.48888
22.97461	-6.32785	3.48888
22.97866	-6.32785	3.48888
22.98272	-6.34982	3.48888
22.98678	-6.34982	3.48888
22.99084	-6.32785	3.48888
22.99489	-6.32785	3.48888
22.99895	-6.32785	3.48888
23.00301	-6.34982	3.48888
23.00706	-6.34982	3.48888
23.01112	-6.32785	3.48888
23.01518	-6.34982	3.48888
23.01924	-6.32785	3.48888
23.02329	-6.32785	3.48888
23.02736	-6.34982	3.48888
23.03141	-6.32785	3.48888
23.03570	-6.32785	3.48888
23.03976	-6.32785	3.48888
23.04382	-6.32785	3.48888
23.04787	-6.32785	3.48888
23.05193	-6.32785	3.48888
23.05599	-6.32785	3.48888
23.06005	-6.32785	3.48888
23.06412	-6.32785	3.48888
23.06819	-6.34982	3.48888
23.07225	-6.32785	3.48888
23.07630	-6.32785	3.48888
23.08036	-6.32785	3.48888
23.08442	-6.32785	3.48888
23.08852	-6.32785	3.48888
23.09258	-6.32785	3.48888
23.09663	-6.32785	3.48888
23.10069	-6.34982	3.48888
23.10475	-6.34982	3.48888
23.10881	-6.32785	3.48888
23.11286	-6.32785	3.48888
23.11692	-6.32785	3.48888
23.12098	-6.32785	3.48888
23.12504	-6.32785	3.48888
23.12910	-6.32785	3.48888
23.13315	-6.32785	3.48888
23.13744	-6.32785	3.48888
23.14150	-6.32785	3.48888
23.14555	-6.32785	3.48888
23.14961	-6.32785	3.48888
23.15368	-6.32785	3.48888
23.15774	-6.32785	3.48888
23.16179	-6.32785	3.48888
23.16586	-6.32785	3.48888
23.16992	-6.32785	3.48888
23.17398	-6.32785	3.48888
23.17804	-6.32785	3.48888
23.18210	-6.32785	3.48888
23.18615	-6.32785	3.48888
23.19021	-6.32785	3.48888
23.19427	-6.32785	3.48888
23.19832	-6.32785	3.48888
23.20238	-6.32785	3.48888
23.20644	-6.32785	3.48888
23.21049	-6.32785	3.48888
23.21455	-6.34982	3.48888
23.21861	-6.34982	3.48888
23.22267	-6.32785	3.48888
23.22672	-6.34982	3.48888
23.23078	-6.32785	3.48888
23.23484	-6.32785	3.48888
23.23913	-6.34982	3.48888
23.24318	-6.34982	3.48888
23.24724	-6.34982	3.48888
23.25130	-6.34982	3.48888
23.25536	-6.34982	3.48888
23.25943	-6.34982	3.48888
23.26348	-6.34982	3.48888
23.26756	-6.34982	3.48888
23.27161	-6.34982	3.48888
23.27567	-6.34982	3.48888
23.27973	-6.34982	3.48888
23.28378	-6.34982	3.48888
23.28784	-6.37179	3.48888
23.29190	-6.34982	3.48888
23.29596	-6.37179	3.48888
23.30001	-6.37179	3.48888
23.30407	-6.37179	3.48888
23.30813	-6.37179	3.48888
23.31218	-6.37179	3.48888
23.31624	-6.39377	3.48888
23.32030	-6.39377	3.48888
23.32435	-6.37179	3.48888
23.32841	-6.39377	3.48888
23.33247	-6.39377	3.48888
23.33653	-6.39377	3.48888
23.34082	-6.39377	3.48888
23.34488	-6.39377	3.48888
23.34894	-6.39377	3.48888
23.35300	-6.39377	3.48888
23.35706	-6.39377	3.48888
23.36112	-6.39377	3.48888
23.36518	-6.39377	3.48888
23.36925	-6.41574	3.48888
23.37331	-6.39377	3.48888
23.37737	-6.41574	3.48888
23.38143	-6.41574	3.48888
23.38548	-6.41574	3.48888
23.38954	-6.41574	3.48888
23.39360	-6.41574	3.48888
23.39766	-6.41574	3.48888
23.40171	-6.43771	3.48888
23.40577	-6.43771	3.48888
23.40983	-6.43771	3.48888
23.41389	-6.43771	3.48888
23.41794	-6.43771	3.48888
23.42200	-6.45968	3.48888
23.42606	-6.45968	3.48888
23.43012	-6.43771	3.48888
23.43418	-6.43771	3.48888
23.43823	-6.43771	3.48888
23.44252	-6.45968	3.48888
23.44658	-6.45968	3.48888
23.45064	-6.45968	3.48888
23.45470	-6.45968	3.48888
23.45877	-6.48166	3.48888
23.46282	-6.45968	3.48888
23.46688	-6.48166	3.48888
23.47095	-6.48166	3.48888
23.47501	-6.48166	3.48888
23.47907	-6.48166	3.48888
23.48313	-6.48166	3.48888
23.48719	-6.48166	3.48888
23.49124	-6.48166	3.48888
23.49530	-6.50363	3.48888
23.49936	-6.50363	3.48888
23.50341	-6.50363	3.48888
23.50747	-6.50363	3.48888
23.51153	-6.50363	3.48888
23.51559	-6.50363	3.48888
23.51964	-6.50363	3.48888
23.52370	-6.50363	3.48888
23.52776	-6.52560	3.48888
23.53182	-6.52560	3.48888
23.53588	-6.52560	3.48888
23.53994	-6.52560	3.48888
23.54423	-6.52560	3.48888
23.54829	-6.52560	3.48888
23.55235	-6.52560	3.48888
23.55641	-6.52560	3.48888
23.56047	-6.54757	3.48888
23.56453	-6.52560	3.48888
23.56858	-6.54757	3.48888
23.57265	-6.54757	3.48888
23.57670	-6.54757	3.48888
23.58076	-6.54757	3.48888
23.58482	-6.54757	3.48888
23.58888	-6.54757	3.48888
23.59294	-6.56955	3.48888
23.59699	-6.54757	3.48888
23.60105	-6.54757	3.48888
23.60511	-6.54757	3.48888
23.60917	-6.54757	3.48888
23.61322	-6.54757	3.48888
23.61728	-6.56955	3.48888
23.62134	-6.56955	3.48888
23.62539	-6.56955	3.48888
23.62946	-6.56955	3.48888
23.63351	-6.56955	3.48888
23.63757	-6.56955	3.48888
23.64163	-6.54757	3.48888
23.64591	-6.56955	3.48888
23.64997	-6.56955	3.48888
23.65403	-6.56955	3.48888
23.65809	-6.56955	3.48888
23.66215	-6.56955	3.48888
23.66621	-6.56955	3.48888
23.67027	-6.54757	3.48888
23.67433	-6.56955	3.48888
23.67839	-6.56955	3.48888
23.68245	-6.56955	3.48888
23.68651	-6.56955	3.48888
23.69056	-6.56955	3.48888
23.69462	-6.56955	3.48888
23.69868	-6.56955	3.48888
23.70274	-6.56955	3.48888
23.70679	-6.56955	3.48888
23.71085	-6.56955	3.48888
23.71491	-6.56955	3.48888
23.71896	-6.54757	3.48888
23.72302	-6.56955	3.48888
23.72708	-6.56955	3.48888
23.73114	-6.56955	3.48888
23.73520	-6.56955	3.48888
23.73925	-6.54757	3.48888
23.74331	-6.56955	3.48888
23.74759	-6.54757	3.48888
23.75165	-6.54757	3.48888
23.75571	-6.54757	3.48888
23.75976	-6.54757	3.48888
23.76382	-6.54757	3.48888
23.76788	-6.54757	3.48888
23.77194	-6.54757	3.48888
23.77601	-6.54757	3.48888
23.78007	-6.54757	3.48888
23.78412	-6.54757	3.48888
23.78818	-6.54757	3.48888
23.79224	-6.54757	3.48888
23.79630	-6.54757	3.48888
23.80035	-6.52560	3.48888
23.80441	-6.54757	3.48888
23.80847	-6.52560	3.48888
23.81252	-6.52560	3.48888
23.81658	-6.52560	3.48888
23.82064	-6.52560	3.48888
23.82470	-6.52560	3.48888
23.82876	-6.52560	3.48888
23.83282	-6.50363	3.48888
23.83687	-6.50363	3.48888
23.84093	-6.50363	3.48888
23.84499	-6.50363	3.48888
23.84927	-6.50363	3.48888
23.85333	-6.48166	3.48888
23.85739	-6.48166	3.48888
23.86144	-6.48166	3.48888
23.86550	-6.50363	3.48888
23.86956	-6.48166	3.48888
23.87361	-6.48166	3.48888
23.87768	-6.48166	3.48888
23.88174	-6.48166	3.48888
23.88580	-6.45968	3.48888
23.88985	-6.45968	3.48888
23.89391	-6.45968	3.48888
23.89797	-6.45968	3.48888
23.90203	-6.45968	3.48888
23.90608	-6.43771	3.48888
23.91014	-6.43771	3.48888
23.91420	-6.43771	3.48888
23.91825	-6.43771	3.48888
23.92231	-6.43771	3.48888
23.92637	-6.41574	3.48888
23.93043	-6.41574	3.48888
23.93449	-6.41574	3.48888
23.93855	-6.41574	3.48888
23.94260	-6.41574	3.48888
23.94666	-6.39377	3.48888
23.95094	-6.39377	3.48888
23.95500	-6.39377	3.48888
23.95906	-6.37179	3.48888
23.96312	-6.37179	3.48888
23.96718	-6.37179	3.48888
23.97124	-6.37179	3.48888
23.97530	-6.37179	3.48888
23.97936	-6.34982	3.48888
23.98342	-6.34982	3.48888
23.98748	-6.34982	3.48888
23.99154	-6.34982	3.48888
23.99559	-6.34982	3.48888
23.99965	-6.32785	3.48888
24.00371	-6.32785	3.48888
24.00776	-6.32785	3.48888
24.01182	-6.30588	3.48888
24.01588	-6.30588	3.48888
24.01994	-6.30588	3.48888
24.02399	-6.30588	3.48888
24.02805	-6.28390	3.48888
24.03211	-6.28390	3.48888
24.03618	-6.30588	3.48888
24.04023	-6.28390	3.48888
24.04429	-6.28390	3.48888
24.04835	-6.28390	3.48888
24.05263	-6.26193	3.48888
24.05669	-6.26193	3.48888
24.06075	-6.23996	3.48888
24.06481	-6.23996	3.48888
24.06886	-6.23996	3.48888
24.07292	-6.23996	3.48888
24.07698	-6.23996	3.48888
24.08104	-6.21798	3.48888
24.08510	-6.21798	3.48888
24.08916	-6.19601	3.48888
24.09322	-6.19601	3.48888
24.09727	-6.19601	3.48888
24.10133	-6.19601	3.48888
24.10539	-6.17404	3.48888
24.10945	-6.17404	3.48888
24.11350	-6.17404	3.48888
24.11756	-6.17404	3.48888
24.12162	-6.17404	3.48888
24.12568	-6.15207	3.48888
24.12974	-6.15207	3.48888
24.13380	-6.15207	3.48888
24.13785	-6.15207	3.48888
24.14191	-6.13009	3.48888
24.14597	-6.13009	3.48888
24.15003	-6.13009	3.48888
24.15431	-6.13009	3.48888
24.15837	-6.10812	3.48888
24.16243	-6.10812	3.48888
24.16648	-6.10812	3.48888
24.17054	-6.10812	3.48888
24.17460	-6.08615	3.48888
24.17866	-6.08615	3.48888
24.18273	-6.08615	3.48888
24.18679	-6.08615	3.48888
24.19084	-6.08615	3.48888
24.19490	-6.06418	3.48888
24.19896	-6.06418	3.48888
24.20302	-6.06418	3.48888
24.20707	-6.04220	3.48888
24.21113	-6.04220	3.48888
24.21519	-6.04220	3.48888
24.21924	-6.04220	3.48888
24.22330	-6.02023	3.48888
24.22736	-6.02023	3.48888
24.23142	-6.02023	3.48888
24.23548	-5.99826	3.48888
24.23954	-5.99826	3.48888
24.24360	-5.99826	3.48888
24.24765	-5.99826	3.48888
24.25171	-5.97629	3.48888
24.25600	-5.97629	3.48888
24.26005	-5.97629	3.48888
24.26411	-5.97629	3.48888
24.26817	-5.95431	3.48888
24.27223	-5.95431	3.48888
24.27629	-5.95431	3.48888
24.28035	-5.95431	3.48888
24.28441	-5.95431	3.48888
24.28847	-5.95431	3.48888
24.29253	-5.93234	3.48888
24.29659	-5.93234	3.48888
24.30064	-5.91037	3.48888
24.30470	-5.91037	3.48888
24.30876	-5.91037	3.48888
24.31282	-5.91037	3.48888
24.31687	-5.91037	3.48888
24.32093	-5.88839	3.48888
24.32499	-5.88839	3.48888
24.32905	-5.88839	3.48888
24.33311	-5.88839	3.48888
24.33717	-5.86642	3.48888
24.34122	-5.86642	3.48888
24.34528	-5.86642	3.48888
24.34934	-5.86642	3.48888
24.35340	-5.86642	3.48888
24.35768	-5.84445	3.48888
24.36174	-5.84445	3.48888
24.36580	-5.84445	3.48888
24.36986	-5.84445	3.48888
24.37392	-5.82248	3.48888
24.37798	-5.82248	3.48888
24.38204	-5.82248	3.48888
24.38610	-5.82248	3.48888
24.39016	-5.82248	3.48888
24.39422	-5.80050	3.48888
24.39828	-5.80050	3.48888
24.40234	-5.80050	3.48888
24.40639	-5.80050	3.48888
24.41045	-5.80050	3.48888
24.41451	-5.77853	3.48888
24.41857	-5.77853	3.48888
24.42262	-5.77853	3.48888
24.42668	-5.77853	3.48888
24.43074	-5.75656	3.48888
24.43480	-5.75656	3.48888
24.43886	-5.75656	3.48888
24.44292	-5.75656	3.48888
24.44697	-5.75656	3.48888
24.45103	-5.73459	3.48888
24.45509	-5.73459	3.48888
24.45938	-5.73459	3.48888
24.46343	-5.73459	3.48888
24.46749	-5.73459	3.48888
24.47155	-5.73459	3.48888
24.47561	-5.71261	3.48888
24.47967	-5.71261	3.48888
24.48372	-5.71261	3.48888
24.48779	-5.71261	3.48888
24.49185	-5.71261	3.48888
24.49591	-5.71261	3.48888
24.49997	-5.71261	3.48888
24.50402	-5.71261	3.48888
24.50808	-5.69064	3.48888
24.51214	-5.69064	3.48888
24.51618	-5.69064	3.48888
24.52024	-5.69064	3.48888
24.52429	-5.69064	3.48888
24.52835	-5.66867	3.48888
24.53241	-5.66867	3.48888
24.53647	-5.66867	3.48888
24.54053	-5.66867	3.48888
24.54458	-5.66867	3.48888
24.54864	-5.66867	3.48888
24.55270	-5.64670	3.48888
24.55676	-5.64670	3.48888
24.56104	-5.64670	3.48888
24.56510	-5.64670	3.48888
24.56916	-5.64670	3.48888
24.57322	-5.62472	3.48888
24.57727	-5.62472	3.48888
24.58133	-5.62472	3.48888
24.58539	-5.62472	3.48888
24.58945	-5.62472	3.48888
24.59351	-5.62472	3.48888
24.59757	-5.60275	3.48888
24.60163	-5.60275	3.48888
24.60568	-5.60275	3.48888
24.60974	-5.60275	3.48888
24.61380	-5.58078	3.48888
24.61786	-5.58078	3.48888
24.62191	-5.58078	3.48888
24.62597	-5.58078	3.48888
24.63003	-5.58078	3.48888
24.63409	-5.58078	3.48888
24.63815	-5.55881	3.48888
24.64221	-5.58078	3.48888
24.64627	-5.58078	3.48888
24.65032	-5.55881	3.48888
24.65438	-5.55881	3.48888
24.65844	-5.55881	3.48888
24.66272	-5.55881	3.48888
24.66678	-5.55881	3.48888
24.67084	-5.53683	3.48888
24.67489	-5.53683	3.48888
24.67895	-5.53683	3.48888
24.68301	-5.53683	3.48888
24.68707	-5.51486	3.48888
24.69113	-5.51486	3.48888
24.69519	-5.51486	3.48888
24.69925	-5.51486	3.48888
24.70331	-5.51486	3.48888
24.70737	-5.51486	3.48888
24.71142	-5.51486	3.48888
24.71548	-5.51486	3.48888
24.71954	-5.49289	3.48888
24.72360	-5.49289	3.48888
24.72765	-5.49289	3.48888
24.73171	-5.49289	3.48888
24.73577	-5.49289	3.48888
24.73983	-5.49289	3.48888
24.74389	-5.49289	3.48888
24.74795	-5.49289	3.48888
24.75200	-5.49289	3.48888
24.75606	-5.47091	3.48888
24.76012	-5.47091	3.48888
24.76440	-5.47091	3.48888
24.76846	-5.47091	3.48888
24.77252	-5.47091	3.48888
24.77658	-5.47091	3.48888
24.78064	-5.47091	3.48888
24.78469	-5.44894	3.48888
24.78875	-5.44894	3.48888
24.79281	-5.44894	3.48888
24.79687	-5.44894	3.48888
24.80093	-5.44894	3.48888
24.80499	-5.44894	3.48888
24.80905	-5.44894	3.48888
24.81310	-5.44894	3.48888
24.81716	-5.44894	3.48888
24.82122	-5.44894	3.48888
24.82527	-5.44894	3.48888
24.82934	-5.42697	3.48888
24.83339	-5.42697	3.48888
24.83745	-5.42697	3.48888
24.84151	-5.42697	3.48888
24.84557	-5.42697	3.48888
24.84963	-5.42697	3.48888
24.85368	-5.42697	3.48888
24.85774	-5.42697	3.48888
24.86180	-5.42697	3.48888
24.86609	-5.42697	3.48888
24.87014	-5.42697	3.48888
24.87420	-5.42697	3.48888
24.87826	-5.42697	3.48888
24.88232	-5.42697	3.48888
24.88637	-5.42697	3.48888
24.89043	-5.40500	3.48888
24.89450	-5.42697	3.48888
24.89856	-5.42697	3.48888
24.90262	-5.42697	3.48888
24.90667	-5.42697	3.48888
24.91073	-5.42697	3.48888
24.91479	-5.40500	3.48888
24.91884	-5.40500	3.48888
24.92290	-5.40500	3.48888
24.92696	-5.40500	3.48888
24.93102	-5.40500	3.48888
24.93508	-5.40500	3.48888
24.93914	-5.40500	3.48888
24.94319	-5.40500	3.48888
24.94725	-5.40500	3.48888
24.95131	-5.40500	3.48888
24.95537	-5.40500	3.48888
24.95942	-5.40500	3.48888
24.96348	-5.40500	3.48888
24.96777	-5.40500	3.48888
24.97182	-5.40500	3.48888
24.97588	-5.40500	3.48888
24.97994	-5.40500	3.48888
24.98400	-5.40500	3.48888
24.98806	-5.40500	3.48888
24.99211	-5.40500	3.48888
24.99620	-5.40500	3.48888
25.00026	-5.40500	3.48888
25.00431	-5.40500	3.48888
25.00837	-5.40500	3.48888
25.01243	-5.40500	3.48888
25.01649	-5.40500	3.48888
25.02054	-5.40500	3.48888
25.02460	-5.40500	3.48888
25.02866	-5.40500	3.48888
25.03272	-5.40500	3.48888
25.03678	-5.40500	3.48888
25.04083	-5.40500	3.48888
25.04489	-5.40500	3.48888
25.04895	-5.40500	3.48888
25.05300	-5.40500	3.48888
25.05706	-5.40500	3.48888
25.06112	-5.40500	3.48888
25.06518	-5.40500	3.48888
25.06946	-5.40500	3.48888
25.07352	-5.40500	3.48888
25.07757	-5.40500	3.48888
25.08163	-5.40500	3.48888
25.08569	-5.40500	3.48888
25.08975	-5.40500	3.48888
25.09380	-5.40500	3.48888
25.09787	-5.40500	3.48888
25.10193	-5.40500	3.48888
25.10599	-5.40500	3.48888
25.11006	-5.40500	3.48888
25.11411	-5.40500	3.48888
25.11817	-5.40500	3.48888
25.12223	-5.40500	3.48888
25.12629	-5.40500	3.48888
25.13035	-5.40500	3.48888
25.13441	-5.42697	3.48888
25.13846	-5.42697	3.48888
25.14252	-5.42697	3.48888
25.14658	-5.40500	3.48888
25.15064	-5.42697	3.48888
25.15470	-5.42697	3.48888
25.15875	-5.42697	3.48888
25.16281	-5.42697	3.48888
25.16687	-5.42697	3.48888
25.17116	-5.40500	3.48888
25.17522	-5.42697	3.48888
25.17928	-5.42697	3.48888
25.18334	-5.42697	3.48888
25.18740	-5.42697	3.48888
25.19146	-5.42697	3.48888
25.19551	-5.42697	3.48888
25.19958	-5.42697	3.48888
25.20365	-5.42697	3.48888
25.20770	-5.42697	3.48888
25.21176	-5.42697	3.48888
25.21582	-5.42697	3.48888
25.21988	-5.42697	3.48888
25.22393	-5.42697	3.48888
25.22799	-5.42697	3.48888
25.23205	-5.42697	3.48888
25.23611	-5.42697	3.48888
25.24017	-5.42697	3.48888
25.24423	-5.44894	3.48888
25.24829	-5.44894	3.48888
25.25234	-5.42697	3.48888
25.25640	-5.44894	3.48888
25.26046	-5.44894	3.48888
25.26452	-5.44894	3.48888
25.26857	-5.44894	3.48888
25.27286	-5.44894	3.48888
25.27691	-5.44894	3.48888
25.28097	-5.44894	3.48888
25.28503	-5.47091	3.48888
25.28909	-5.44894	3.48888
25.29314	-5.44894	3.48888
25.29720	-5.47091	3.48888
25.30125	-5.47091	3.48888
25.30531	-5.47091	3.48888
25.30937	-5.47091	3.48888
25.31343	-5.47091	3.48888
25.31749	-5.47091	3.48888
25.32155	-5.47091	3.48888
25.32560	-5.47091	3.48888
25.32967	-5.47091	3.48888
25.33372	-5.47091	3.48888
25.33778	-5.47091	3.48888
25.34184	-5.49289	3.48888
25.34590	-5.47091	3.48888
25.34995	-5.49289	3.48888
25.35401	-5.49289	3.48888
25.35807	-5.49289	3.48888
25.36213	-5.49289	3.48888
25.36619	-5.49289	3.48888
25.37024	-5.49289	3.48888
25.37453	-5.49289	3.48888
25.37858	-5.49289	3.48888
25.38264	-5.49289	3.48888
25.38670	-5.49289	3.48888
25.39076	-5.51486	3.48888
25.39481	-5.51486	3.48888
25.39887	-5.51486	3.48888
25.40294	-5.51486	3.48888
25.40700	-5.51486	3.48888
25.41106	-5.51486	3.48888
25.41512	-5.51486	3.48888
25.41917	-5.51486	3.48888
25.42323	-5.51486	3.48888
25.42729	-5.51486	3.48888
25.43135	-5.51486	3.48888
25.43541	-5.51486	3.48888
25.43947	-5.53683	3.48888
25.44353	-5.53683	3.48888
25.44758	-5.53683	3.48888
25.45164	-5.53683	3.48888
25.45570	-5.53683	3.48888
25.45976	-5.53683	3.48888
25.46382	-5.53683	3.48888
25.46787	-5.53683	3.48888
25.47193	-5.53683	3.48888
25.47622	-5.53683	3.48888
25.48028	-5.53683	3.48888
25.48434	-5.53683	3.48888
25.48840	-5.53683	3.48888
25.49246	-5.55881	3.48888
25.49651	-5.53683	3.48888
25.50057	-5.53683	3.48888
25.50463	-5.53683	3.48888
25.50869	-5.53683	3.48888
25.51275	-5.55881	3.48888
25.51681	-5.53683	3.48888
25.52087	-5.53683	3.48888
25.52492	-5.55881	3.48888
25.52898	-5.55881	3.48888
25.53304	-5.55881	3.48888
25.53710	-5.55881	3.48888
25.54116	-5.55881	3.48888
25.54522	-5.53683	3.48888
25.54928	-5.53683	3.48888
25.55333	-5.55881	3.48888
25.55739	-5.55881	3.48888
25.56145	-5.55881	3.48888
25.56551	-5.55881	3.48888
25.56956	-5.55881	3.48888
25.57362	-5.55881	3.48888
25.57790	-5.55881	3.48888
25.58196	-5.55881	3.48888
25.58602	-5.58078	3.48888
25.59008	-5.55881	3.48888
25.59414	-5.55881	3.48888
25.59819	-5.58078	3.48888
25.60225	-5.58078	3.48888
25.60632	-5.55881	3.48888
25.61038	-5.58078	3.48888
25.61444	-5.58078	3.48888
25.61849	-5.58078	3.48888
25.62255	-5.58078	3.48888
25.62661	-5.58078	3.48888
25.63067	-5.58078	3.48888
25.63473	-5.58078	3.48888
25.63879	-5.58078	3.48888
25.64285	-5.58078	3.48888
25.64690	-5.58078	3.48888
25.65096	-5.58078	3.48888
25.65502	-5.58078	3.48888
25.65908	-5.60275	3.48888
25.66313	-5.60275	3.48888
25.66719	-5.60275	3.48888
25.67125	-5.60275	3.48888
25.67530	-5.60275	3.48888
25.67959	-5.60275	3.48888
25.68365	-5.60275	3.48888
25.68771	-5.60275	3.48888
25.69177	-5.60275	3.48888
25.69582	-5.60275	3.48888
25.69988	-5.60275	3.48888
25.70394	-5.62472	3.48888
25.70800	-5.62472	3.48888
25.71206	-5.60275	3.48888
25.71612	-5.62472	3.48888
25.72018	-5.62472	3.48888
25.72424	-5.62472	3.48888
25.72830	-5.62472	3.48888
25.73236	-5.62472	3.48888
25.73654	-5.62472	3.48888
25.74060	-5.62472	3.48888
25.74466	-5.62472	3.48888
25.74871	-5.62472	3.48888
25.75277	-5.64670	3.48888
25.75683	-5.64670	3.48888
25.76089	-5.64670	3.48888
25.76494	-5.64670	3.48888
25.76900	-5.64670	3.48888
25.77306	-5.64670	3.48888
25.77712	-5.64670	3.48888
25.78140	-5.64670	3.48888
25.78546	-5.66867	3.48888
25.78951	-5.66867	3.48888
25.79357	-5.66867	3.48888
25.79763	-5.64670	3.48888
25.80169	-5.66867	3.48888
25.80574	-5.66867	3.48888
25.80981	-5.66867	3.48888
25.81387	-5.66867	3.48888
25.81793	-5.66867	3.48888
25.82199	-5.66867	3.48888
25.82604	-5.69064	3.48888
25.83010	-5.69064	3.48888
25.83416	-5.69064	3.48888
25.83822	-5.69064	3.48888
25.84228	-5.69064	3.48888
25.84633	-5.69064	3.48888
25.85039	-5.69064	3.48888
25.85445	-5.69064	3.48888
25.85851	-5.69064	3.48888
25.86256	-5.71261	3.48888
25.86662	-5.71261	3.48888
25.87068	-5.71261	3.48888
25.87474	-5.71261	3.48888
25.87879	-5.73459	3.48888
25.88308	-5.73459	3.48888
25.88715	-5.73459	3.48888
25.89121	-5.73459	3.48888
25.89526	-5.73459	3.48888
25.89932	-5.73459	3.48888
25.90338	-5.75656	3.48888
25.90744	-5.73459	3.48888
25.91151	-5.75656	3.48888
25.91557	-5.75656	3.48888
25.91962	-5.75656	3.48888
25.92368	-5.75656	3.48888
25.92774	-5.77853	3.48888
25.93180	-5.75656	3.48888
25.93586	-5.75656	3.48888
25.93991	-5.77853	3.48888
25.94397	-5.77853	3.48888
25.94803	-5.77853	3.48888
25.95209	-5.77853	3.48888
25.95614	-5.77853	3.48888
25.96018	-5.77853	3.48888
25.96424	-5.80050	3.48888
25.96830	-5.80050	3.48888
25.97236	-5.80050	3.48888
25.97641	-5.80050	3.48888
25.98047	-5.80050	3.48888
25.98475	-5.80050	3.48888
25.98882	-5.82248	3.48888
25.99287	-5.82248	3.48888
25.99693	-5.82248	3.48888
26.00099	-5.82248	3.48888
26.00505	-5.82248	3.48888
26.00910	-5.82248	3.48888
26.01316	-5.84445	3.48888
26.01722	-5.84445	3.48888
26.02129	-5.84445	3.48888
26.02535	-5.84445	3.48888
26.02941	-5.86642	3.48888
26.03347	-5.86642	3.48888
26.03753	-5.86642	3.48888
26.04158	-5.86642	3.48888
26.04564	-5.86642	3.48888
26.04970	-5.88839	3.48888
26.05376	-5.88839	3.48888
26.05781	-5.88839	3.48888
26.06187	-5.91037	3.48888
26.06593	-5.91037	3.48888
26.06998	-5.88839	3.48888
26.07404	-5.91037	3.48888
26.07810	-5.91037	3.48888
26.08216	-5.91037	3.48888
26.08644	-5.93234	3.48888
26.09051	-5.93234	3.48888
26.09456	-5.91037	3.48888
26.09862	-5.93234	3.48888
26.10268	-5.93234	3.48888
26.10674	-5.93234	3.48888
26.11079	-5.95431	3.48888
26.11486	-5.95431	3.48888
26.11892	-5.95431	3.48888
26.12298	-5.97629	3.48888
26.12703	-5.97629	3.48888
26.13110	-5.97629	3.48888
26.13515	-5.97629	3.48888
26.13921	-5.97629	3.48888
26.14327	-5.99826	3.48888
26.14733	-5.99826	3.48888
26.15138	-5.99826	3.48888
26.15544	-5.99826	3.48888
26.15950	-5.99826	3.48888
26.16356	-6.02023	3.48888
26.16761	-6.02023	3.48888
26.17167	-6.02023	3.48888
26.17573	-6.02023	3.48888
26.17979	-6.04220	3.48888
26.18384	-6.04220	3.48888
26.18813	-6.04220	3.48888
26.19218	-6.04220	3.48888
26.19624	-6.04220	3.48888
26.20030	-6.06418	3.48888
26.20436	-6.06418	3.48888
26.20841	-6.06418	3.48888
26.21247	-6.06418	3.48888
26.21654	-6.06418	3.48888
26.22060	-6.08615	3.48888
26.22466	-6.08615	3.48888
26.22871	-6.08615	3.48888
26.23278	-6.10812	3.48888
26.23683	-6.10812	3.48888
26.24089	-6.10812	3.48888
26.24495	-6.10812	3.48888
26.24901	-6.10812	3.48888
26.25307	-6.13009	3.48888
26.25712	-6.13009	3.48888
26.26118	-6.13009	3.48888
26.26524	-6.13009	3.48888
26.26929	-6.15207	3.48888
26.27335	-6.15207	3.48888
26.27741	-6.15207	3.48888
26.28147	-6.15207	3.48888
26.28553	-6.17404	3.48888
26.28981	-6.17404	3.48888
26.29387	-6.17404	3.48888
26.29793	-6.17404	3.48888
26.30199	-6.17404	3.48888
26.30604	-6.17404	3.48888
26.31010	-6.19601	3.48888
26.31416	-6.19601	3.48888
26.31822	-6.19601	3.48888
26.32228	-6.19601	3.48888
26.32634	-6.21798	3.48888
26.33040	-6.19601	3.48888
26.33446	-6.21798	3.48888
26.33852	-6.23996	3.48888
26.34257	-6.23996	3.48888
26.34663	-6.23996	3.48888
26.35069	-6.23996	3.48888
26.35475	-6.23996	3.48888
26.35880	-6.23996	3.48888
26.36286	-6.26193	3.48888
26.36692	-6.26193	3.48888
26.37097	-6.26193	3.48888
26.37503	-6.26193	3.48888
26.37909	-6.26193	3.48888
26.38314	-6.28390	3.48888
26.38720	-6.28390	3.48888
26.39149	-6.28390	3.48888
26.39555	-6.28390	3.48888
26.39961	-6.30588	3.48888
26.40367	-6.30588	3.48888
26.40772	-6.30588	3.48888
26.41178	-6.30588	3.48888
26.41584	-6.30588	3.48888
26.41991	-6.30588	3.48888
26.42397	-6.30588	3.48888
26.42803	-6.30588	3.48888
26.43209	-6.32785	3.48888
26.43615	-6.32785	3.48888
26.44019	-6.32785	3.48888
26.44424	-6.34982	3.48888
26.44830	-6.34982	3.48888
26.45236	-6.34982	3.48888
26.45642	-6.34982	3.48888
26.46048	-6.34982	3.48888
26.46453	-6.34982	3.48888
26.46859	-6.34982	3.48888
26.47265	-6.34982	3.48888
26.47670	-6.37179	3.48888
26.48076	-6.37179	3.48888
26.48482	-6.37179	3.48888
26.48887	-6.37179	3.48888
26.49316	-6.37179	3.48888
26.49722	-6.37179	3.48888
26.50128	-6.37179	3.48888
26.50534	-6.39377	3.48888
26.50939	-6.39377	3.48888
26.51345	-6.39377	3.48888
26.51751	-6.39377	3.48888
26.52158	-6.39377	3.48888
26.52564	-6.39377	3.48888
26.52970	-6.39377	3.48888
26.53376	-6.39377	3.48888
26.53781	-6.39377	3.48888
26.54187	-6.41574	3.48888
26.54593	-6.41574	3.48888
26.54999	-6.41574	3.48888
26.55404	-6.41574	3.48888
26.55810	-6.41574	3.48888
26.56216	-6.41574	3.48888
26.56622	-6.41574	3.48888
26.57027	-6.41574	3.48888
26.57433	-6.43771	3.48888
26.57839	-6.43771	3.48888
26.58244	-6.43771	3.48888
26.58650	-6.43771	3.48888
26.59056	-6.43771	3.48888
26.59484	-6.43771	3.48888
26.59890	-6.43771	3.48888
26.60296	-6.43771	3.48888
26.60702	-6.43771	3.48888
26.61107	-6.43771	3.48888
26.61513	-6.43771	3.48888
26.61919	-6.45968	3.48888
26.62326	-6.45968	3.48888
26.62732	-6.43771	3.48888
26.63136	-6.45968	3.48888
26.63542	-6.45968	3.48888
26.63947	-6.45968	3.48888
26.64353	-6.45968	3.48888
26.64759	-6.45968	3.48888
26.65165	-6.45968	3.48888
26.65570	-6.45968	3.48888
26.65976	-6.45968	3.48888
26.66382	-6.45968	3.48888
26.66788	-6.45968	3.48888
26.67193	-6.45968	3.48888
26.67599	-6.45968	3.48888
26.68005	-6.48166	3.48888
26.68411	-6.48166	3.48888
26.68816	-6.48166	3.48888
26.69218	-6.48166	3.48888
26.69647	-6.48166	3.48888
26.70053	-6.48166	3.48888
26.70458	-6.48166	3.48888
26.70864	-6.48166	3.48888
26.71270	-6.48166	3.48888
26.71676	-6.48166	3.48888
26.72082	-6.50363	3.48888
26.72488	-6.48166	3.48888
26.72894	-6.48166	3.48888
26.73300	-6.48166	3.48888
26.73706	-6.50363	3.48888
26.74113	-6.48166	3.48888
26.74518	-6.50363	3.48888
26.74924	-6.50363	3.48888
26.75330	-6.50363	3.48888
26.75736	-6.50363	3.48888
26.76141	-6.50363	3.48888
26.76547	-6.50363	3.48888
26.76953	-6.50363	3.48888
26.77358	-6.50363	3.48888
26.77764	-6.52560	3.48888
26.78170	-6.52560	3.48888
26.78576	-6.52560	3.48888
26.78981	-6.52560	3.48888
26.79387	-6.52560	3.48888
26.79817	-6.52560	3.48888
26.80223	-6.52560	3.48888
26.80628	-6.52560	3.48888
26.81034	-6.52560	3.48888
26.81440	-6.52560	3.48888
26.81846	-6.52560	3.48888
26.82251	-6.52560	3.48888
26.82658	-6.54757	3.48888
26.83064	-6.54757	3.48888
26.83470	-6.54757	3.48888
26.83876	-6.54757	3.48888
26.84282	-6.54757	3.48888
26.84687	-6.54757	3.48888
26.85093	-6.54757	3.48888
26.85499	-6.54757	3.48888
26.85905	-6.54757	3.48888
26.86310	-6.54757	3.48888
26.86716	-6.56955	3.48888
26.87122	-6.56955	3.48888
26.87528	-6.56955	3.48888
26.87933	-6.56955	3.48888
26.88339	-6.56955	3.48888
26.88745	-6.56955	3.48888
26.89151	-6.56955	3.48888
26.89556	-6.56955	3.48888
26.89985	-6.56955	3.48888
26.90391	-6.56955	3.48888
26.90797	-6.59152	3.48888
26.91203	-6.59152	3.48888
26.91608	-6.59152	3.48888
26.92014	-6.59152	3.48888
26.92418	-6.59152	3.48888
26.92825	-6.59152	3.48888
26.93232	-6.59152	3.48888
26.93637	-6.61349	3.48888
26.94043	-6.61349	3.48888
26.94449	-6.61349	3.48888
26.94855	-6.61349	3.48888
26.95261	-6.61349	3.48888
26.95666	-6.61349	3.48888
26.96072	-6.61349	3.48888
26.96478	-6.63547	3.48888
26.96883	-6.61349	3.48888
26.97289	-6.61349	3.48888
26.97695	-6.63547	3.48888
26.98100	-6.63547	3.48888
26.98506	-6.63547	3.48888
26.98912	-6.63547	3.48888
26.99318	-6.63547	3.48888
26.99723	-6.63547	3.48888
27.00152	-6.63547	3.48888
27.00558	-6.63547	3.48888
27.00963	-6.63547	3.48888
27.01370	-6.63547	3.48888
27.01776	-6.65744	3.48888
27.02182	-6.65744	3.48888
27.02588	-6.65744	3.48888
27.02995	-6.65744	3.48888
27.03401	-6.65744	3.48888
27.03807	-6.65744	3.48888
27.04213	-6.65744	3.48888
27.04618	-6.65744	3.48888
27.05024	-6.65744	3.48888
27.05430	-6.67941	3.48888
27.05835	-6.67941	3.48888
27.06241	-6.67941	3.48888
27.06647	-6.67941	3.48888
27.07053	-6.67941	3.48888
27.07458	-6.67941	3.48888
27.07864	-6.67941	3.48888
27.08270	-6.70138	3.48888
27.08675	-6.70138	3.48888
27.09081	-6.70138	3.48888
27.09487	-6.70138	3.48888
27.09892	-6.70138	3.48888
27.10323	-6.70138	3.48888
27.10729	-6.70138	3.48888
27.11134	-6.72336	3.48888
27.11540	-6.72336	3.48888
27.11946	-6.72336	3.48888
27.12351	-6.72336	3.48888
27.12757	-6.72336	3.48888
27.13164	-6.72336	3.48888
27.13570	-6.72336	3.48888
27.13976	-6.72336	3.48888
27.14382	-6.72336	3.48888
27.14788	-6.74533	3.48888
27.15193	-6.74533	3.48888
27.15599	-6.74533	3.48888
27.16005	-6.74533	3.48888
27.16411	-6.74533	3.48888
27.16818	-6.74533	3.48888
27.17224	-6.74533	3.48888
27.17629	-6.74533	3.48888
27.18035	-6.74533	3.48888
27.18441	-6.76730	3.48888
27.18847	-6.76730	3.48888
27.19252	-6.76730	3.48888
27.19658	-6.76730	3.48888
27.20064	-6.76730	3.48888
27.20492	-6.76730	3.48888
27.20898	-6.76730	3.48888
27.21304	-6.78927	3.48888
27.21710	-6.78927	3.48888
27.22115	-6.78927	3.48888
27.22521	-6.78927	3.48888
27.22927	-6.78927	3.48888
27.23334	-6.78927	3.48888
27.23740	-6.78927	3.48888
27.24145	-6.81125	3.48888
27.24551	-6.81125	3.48888
27.24957	-6.78927	3.48888
27.25363	-6.78927	3.48888
27.25768	-6.81125	3.48888
27.26174	-6.81125	3.48888
27.26580	-6.78927	3.48888
27.26986	-6.81125	3.48888
27.27391	-6.81125	3.48888
27.27798	-6.81125	3.48888
27.28203	-6.81125	3.48888
27.28609	-6.81125	3.48888
27.29015	-6.81125	3.48888
27.29421	-6.81125	3.48888
27.29827	-6.81125	3.48888
27.30232	-6.81125	3.48888
27.30661	-6.81125	3.48888
27.31067	-6.81125	3.48888
27.31472	-6.81125	3.48888
27.31878	-6.81125	3.48888
27.32284	-6.81125	3.48888
27.32690	-6.81125	3.48888
27.33095	-6.81125	3.48888
27.33503	-6.81125	3.48888
27.33909	-6.81125	3.48888
27.34315	-6.81125	3.48888
27.34721	-6.81125	3.48888
27.35127	-6.81125	3.48888
27.35532	-6.81125	3.48888
27.35938	-6.81125	3.48888
27.36344	-6.81125	3.48888
27.36750	-6.81125	3.48888
27.37155	-6.81125	3.48888
27.37561	-6.81125	3.48888
27.37967	-6.81125	3.48888
27.38372	-6.81125	3.48888
27.38778	-6.81125	3.48888
27.39184	-6.81125	3.48888
27.39590	-6.81125	3.48888
27.39995	-6.81125	3.48888
27.40401	-6.81125	3.48888
27.40831	-6.81125	3.48888
27.41237	-6.81125	3.48888
27.41643	-6.81125	3.48888
27.42048	-6.81125	3.48888
27.42454	-6.81125	3.48888
27.42860	-6.81125	3.48888
27.43266	-6.78927	3.48888
27.43672	-6.78927	3.48888
27.44078	-6.81125	3.48888
27.44484	-6.78927	3.48888
27.44890	-6.81125	3.48888
27.45296	-6.78927	3.48888
27.45702	-6.78927	3.48888
27.46108	-6.78927	3.48888
27.46513	-6.78927	3.48888
27.46919	-6.78927	3.48888
27.47325	-6.78927	3.48888
27.47730	-6.78927	3.48888
27.48136	-6.78927	3.48888
27.48542	-6.78927	3.48888
27.48947	-6.78927	3.48888
27.49353	-6.78927	3.48888
27.49759	-6.78927	3.48888
27.50165	-6.78927	3.48888
27.50571	-6.78927	3.48888
27.51000	-6.78927	3.48888
27.51406	-6.78927	3.48888
27.51812	-6.78927	3.48888
27.52218	-6.78927	3.48888
27.52623	-6.78927	3.48888
27.53029	-6.78927	3.48888
27.53435	-6.78927	3.48888
27.53842	-6.76730	3.48888
27.54248	-6.76730	3.48888
27.54654	-6.76730	3.48888
27.55060	-6.78927	3.48888
27.55466	-6.76730	3.48888
27.55871	-6.76730	3.48888
27.56277	-6.76730	3.48888
27.56683	-6.76730	3.48888
27.57088	-6.76730	3.48888
27.57494	-6.76730	3.48888
27.57900	-6.76730	3.48888
27.58306	-6.76730	3.48888
27.58711	-6.76730	3.48888
27.59117	-6.76730	3.48888
27.59523	-6.76730	3.48888
27.59928	-6.76730	3.48888
27.60334	-6.76730	3.48888
27.60740	-6.76730	3.48888
27.61169	-6.76730	3.48888
27.61575	-6.76730	3.48888
27.61980	-6.74533	3.48888
27.62386	-6.76730	3.48888
27.62792	-6.74533	3.48888
27.63198	-6.74533	3.48888
27.63604	-6.74533	3.48888
27.64011	-6.74533	3.48888
27.64417	-6.74533	3.48888
27.64820	-6.74533	3.48888
27.65226	-6.74533	3.48888
27.65632	-6.76730	3.48888
27.66038	-6.74533	3.48888
27.66444	-6.74533	3.48888
27.66850	-6.74533	3.48888
27.67256	-6.74533	3.48888
27.67662	-6.74533	3.48888
27.68067	-6.74533	3.48888
27.68473	-6.74533	3.48888
27.68879	-6.74533	3.48888
27.69285	-6.74533	3.48888
27.69690	-6.74533	3.48888
27.70096	-6.74533	3.48888
27.70502	-6.74533	3.48888
27.70908	-6.74533	3.48888
27.71337	-6.74533	3.48888
27.71743	-6.74533	3.48888
27.72149	-6.74533	3.48888
27.72555	-6.72336	3.48888
27.72961	-6.74533	3.48888
27.73367	-6.74533	3.48888
27.73773	-6.74533	3.48888
27.74189	-6.72336	3.48888
27.74596	-6.72336	3.48888
27.75002	-6.72336	3.48888
27.75408	-6.72336	3.48888
27.75814	-6.72336	3.48888
27.76220	-6.72336	3.48888
27.76625	-6.72336	3.48888
27.77032	-6.72336	3.48888
27.77437	-6.72336	3.48888
27.77843	-6.72336	3.48888
27.78249	-6.70138	3.48888
27.78655	-6.70138	3.48888
27.79060	-6.70138	3.48888
27.79466	-6.70138	3.48888
27.79872	-6.70138	3.48888
27.80278	-6.70138	3.48888
27.80683	-6.70138	3.48888
27.81089	-6.70138	3.48888
27.81518	-6.70138	3.48888
27.81924	-6.67941	3.48888
27.82330	-6.67941	3.48888
27.82736	-6.67941	3.48888
27.83142	-6.67941	3.48888
27.83548	-6.67941	3.48888
27.83953	-6.67941	3.48888
27.84366	-6.67941	3.48888
27.84773	-6.67941	3.48888
27.85179	-6.67941	3.48888
27.85585	-6.65744	3.48888
27.85991	-6.65744	3.48888
27.86396	-6.65744	3.48888
27.86802	-6.67941	3.48888
27.87208	-6.65744	3.48888
27.87613	-6.65744	3.48888
27.88018	-6.65744	3.48888
27.88424	-6.63547	3.48888
27.88830	-6.63547	3.48888
27.89235	-6.63547	3.48888
27.89641	-6.63547	3.48888
27.90047	-6.63547	3.48888
27.90452	-6.63547	3.48888
27.90858	-6.63547	3.48888
27.91264	-6.63547	3.48888
27.91693	-6.61349	3.48888
27.92098	-6.61349	3.48888
27.92504	-6.61349	3.48888
27.92910	-6.61349	3.48888
27.93316	-6.61349	3.48888
27.93721	-6.61349	3.48888
27.94127	-6.59152	3.48888
27.94534	-6.59152	3.48888
27.94941	-6.59152	3.48888
27.95347	-6.59152	3.48888
27.95753	-6.59152	3.48888
27.96158	-6.56955	3.48888
27.96565	-6.56955	3.48888
27.96970	-6.56955	3.48888
27.97376	-6.56955	3.48888
27.97782	-6.56955	3.48888
27.98188	-6.56955	3.48888
27.98593	-6.56955	3.48888
27.98999	-6.56955	3.48888
27.99405	-6.54757	3.48888
27.99810	-6.54757	3.48888
28.00216	-6.54757	3.48888
28.00622	-6.52560	3.48888
28.01029	-6.52560	3.48888
28.01435	-6.52560	3.48888
28.01865	-6.52560	3.48888
28.02271	-6.52560	3.48888
28.02677	-6.50363	3.48888
28.03082	-6.50363	3.48888
28.03488	-6.50363	3.48888
28.03894	-6.50363	3.48888
28.04299	-6.48166	3.48888
28.04713	-6.48166	3.48888
28.05120	-6.48166	3.48888
28.05525	-6.48166	3.48888
28.05931	-6.48166	3.48888
28.06338	-6.48166	3.48888
28.06744	-6.45968	3.48888
28.07149	-6.45968	3.48888
28.07555	-6.45968	3.48888
28.07961	-6.45968	3.48888
28.08366	-6.45968	3.48888
28.08772	-6.43771	3.48888
28.09178	-6.43771	3.48888
28.09584	-6.43771	3.48888
28.09989	-6.43771	3.48888
28.10395	-6.43771	3.48888
28.10801	-6.41574	3.48888
28.11207	-6.41574	3.48888
28.11613	-6.41574	3.48888
28.12042	-6.41574	3.48888
28.12448	-6.39377	3.48888
28.12854	-6.39377	3.48888
28.13260	-6.41574	3.48888
28.13665	-6.39377	3.48888
28.14071	-6.39377	3.48888
28.14477	-6.39377	3.48888
28.14892	-6.39377	3.48888
28.15298	-6.37179	3.48888
28.15704	-6.37179	3.48888
28.16110	-6.37179	3.48888
28.16516	-6.37179	3.48888
28.16922	-6.34982	3.48888
28.17328	-6.34982	3.48888
28.17734	-6.34982	3.48888
28.18139	-6.34982	3.48888
28.18545	-6.34982	3.48888
28.18951	-6.34982	3.48888
28.19357	-6.34982	3.48888
28.19762	-6.32785	3.48888
28.20168	-6.32785	3.48888
28.20574	-6.32785	3.48888
28.20980	-6.32785	3.48888
28.21385	-6.32785	3.48888
28.21791	-6.30588	3.48888
28.22221	-6.32785	3.48888
28.22626	-6.30588	3.48888
28.23032	-6.30588	3.48888
28.23438	-6.30588	3.48888
28.23844	-6.30588	3.48888
28.24249	-6.28390	3.48888
28.24655	-6.28390	3.48888
28.25069	-6.28390	3.48888
28.25476	-6.28390	3.48888
28.25882	-6.28390	3.48888
28.26288	-6.28390	3.48888
28.26694	-6.28390	3.48888
28.27100	-6.26193	3.48888
28.27506	-6.26193	3.48888
28.27911	-6.26193	3.48888
28.28317	-6.26193	3.48888
28.28723	-6.26193	3.48888
28.29128	-6.26193	3.48888
28.29534	-6.26193	3.48888
28.29940	-6.26193	3.48888
28.30346	-6.26193	3.48888
28.30751	-6.23996	3.48888
28.31157	-6.23996	3.48888
28.31563	-6.23996	3.48888
28.31969	-6.23996	3.48888
28.32398	-6.23996	3.48888
28.32804	-6.23996	3.48888
28.33210	-6.23996	3.48888
28.33616	-6.23996	3.48888
28.34018	-6.23996	3.48888
28.34424	-6.23996	3.48888
28.34829	-6.23996	3.48888
28.35249	-6.23996	3.48888
28.35655	-6.23996	3.48888
28.36061	-6.23996	3.48888
28.36467	-6.23996	3.48888
28.36873	-6.23996	3.48888
28.37279	-6.21798	3.48888
28.37684	-6.21798	3.48888
28.38090	-6.21798	3.48888
28.38496	-6.21798	3.48888
28.38902	-6.21798	3.48888
28.39307	-6.21798	3.48888
28.39713	-6.21798	3.48888
28.40119	-6.21798	3.48888
28.40524	-6.21798	3.48888
28.40930	-6.21798	3.48888
28.41336	-6.21798	3.48888
28.41741	-6.21798	3.48888
28.42147	-6.21798	3.48888
28.42577	-6.21798	3.48888
28.42982	-6.21798	3.48888
28.43388	-6.21798	3.48888
28.43794	-6.21798	3.48888
28.44200	-6.21798	3.48888
28.44605	-6.21798	3.48888
28.45011	-6.21798	3.48888
28.45428	-6.21798	3.48888
28.45834	-6.21798	3.48888
28.46241	-6.21798	3.48888
28.46647	-6.21798	3.48888
28.47053	-6.21798	3.48888
28.47458	-6.23996	3.48888
28.47864	-6.23996	3.48888
28.48270	-6.23996	3.48888
28.48676	-6.23996	3.48888
28.49081	-6.23996	3.48888
28.49487	-6.23996	3.48888
28.49893	-6.23996	3.48888
28.50298	-6.23996	3.48888
28.50704	-6.23996	3.48888
28.51110	-6.23996	3.48888
28.51516	-6.23996	3.48888
28.51922	-6.23996	3.48888
28.52328	-6.23996	3.48888
28.52757	-6.26193	3.48888
28.53163	-6.26193	3.48888
28.53569	-6.23996	3.48888
28.53975	-6.23996	3.48888
28.54380	-6.23996	3.48888
28.54786	-6.26193	3.48888
28.55192	-6.26193	3.48888
28.55604	-6.26193	3.48888
28.56011	-6.26193	3.48888
28.56418	-6.26193	3.48888
28.56824	-6.26193	3.48888
28.57230	-6.26193	3.48888
28.57635	-6.26193	3.48888
28.58041	-6.26193	3.48888
28.58447	-6.26193	3.48888
28.58853	-6.26193	3.48888
28.59258	-6.26193	3.48888
28.59664	-6.26193	3.48888
28.60070	-6.26193	3.48888
28.60475	-6.28390	3.48888
28.60923	-6.28390	3.48888
28.61329	-6.28390	3.48888
28.61735	-6.28390	3.48888
28.62141	-6.28390	3.48888
28.62547	-6.28390	3.48888
28.62976	-6.28390	3.48888
28.63381	-6.28390	3.48888
28.63787	-6.30588	3.48888
28.64193	-6.30588	3.48888
28.64599	-6.30588	3.48888
28.65004	-6.30588	3.48888
28.65410	-6.30588	3.48888
28.65820	-6.30588	3.48888
28.66234	-6.32785	3.48888
28.66640	-6.32785	3.48888
28.67045	-6.30588	3.48888
28.67451	-6.32785	3.48888
28.67857	-6.32785	3.48888
28.68263	-6.32785	3.48888
28.68668	-6.34982	3.48888
28.69074	-6.34982	3.48888
28.69480	-6.32785	3.48888
28.69886	-6.34982	3.48888
28.70291	-6.34982	3.48888
28.70697	-6.34982	3.48888
28.71103	-6.34982	3.48888
28.71508	-6.34982	3.48888
28.71914	-6.37179	3.48888
28.72320	-6.37179	3.48888
28.72726	-6.37179	3.48888
28.73155	-6.37179	3.48888
28.73561	-6.37179	3.48888
28.73966	-6.39377	3.48888
28.74372	-6.39377	3.48888
28.74778	-6.39377	3.48888
28.75184	-6.39377	3.48888
28.75589	-6.39377	3.48888
28.76000	-6.39377	3.48888
28.76407	-6.41574	3.48888
28.76813	-6.41574	3.48888
28.77218	-6.41574	3.48888
28.77624	-6.41574	3.48888
28.78030	-6.41574	3.48888
28.78435	-6.43771	3.48888
28.78841	-6.43771	3.48888
28.79247	-6.43771	3.48888
28.79653	-6.43771	3.48888
28.80058	-6.43771	3.48888
28.80464	-6.45968	3.48888
28.80870	-6.45968	3.48888
28.81275	-6.45968	3.48888
28.81681	-6.45968	3.48888
28.82087	-6.48166	3.48888
28.82493	-6.48166	3.48888
28.82899	-6.48166	3.48888
28.83328	-6.50363	3.48888
28.83734	-6.50363	3.48888
28.84140	-6.50363	3.48888
28.84545	-6.50363	3.48888
28.84951	-6.52560	3.48888
28.85357	-6.50363	3.48888
28.85763	-6.52560	3.48888
28.86176	-6.52560	3.48888
28.86582	-6.52560	3.48888
28.86988	-6.52560	3.48888
28.87394	-6.54757	3.48888
28.87799	-6.54757	3.48888
28.88205	-6.54757	3.48888
28.88611	-6.54757	3.48888
28.89017	-6.56955	3.48888
28.89422	-6.56955	3.48888
28.89828	-6.56955	3.48888
28.90234	-6.56955	3.48888
28.90640	-6.56955	3.48888
28.91045	-6.56955	3.48888
28.91451	-6.59152	3.48888
28.91858	-6.59152	3.48888
28.92264	-6.59152	3.48888
28.92669	-6.61349	3.48888
28.93075	-6.61349	3.48888
28.93505	-6.61349	3.48888
28.93910	-6.61349	3.48888
28.94316	-6.61349	3.48888
28.94722	-6.61349	3.48888
28.95128	-6.63547	3.48888
28.95533	-6.63547	3.48888
28.95939	-6.63547	3.48888
28.96351	-6.63547	3.48888
28.96757	-6.63547	3.48888
28.97163	-6.65744	3.48888
28.97569	-6.65744	3.48888
28.97976	-6.65744	3.48888
28.98382	-6.65744	3.48888
28.98788	-6.65744	3.48888
28.99193	-6.67941	3.48888
28.99599	-6.67941	3.48888
29.00005	-6.67941	3.48888
29.00411	-6.67941	3.48888
29.00816	-6.67941	3.48888
29.01218	-6.70138	3.48888
29.01624	-6.70138	3.48888
29.02030	-6.70138	3.48888
29.02435	-6.70138	3.48888
29.02841	-6.70138	3.48888
29.03247	-6.70138	3.48888
29.03676	-6.70138	3.48888
29.04082	-6.70138	3.48888
29.04488	-6.70138	3.48888
29.04893	-6.72336	3.48888
29.05299	-6.72336	3.48888
29.05705	-6.72336	3.48888
29.06111	-6.72336	3.48888
29.06518	-6.72336	3.48888
29.06924	-6.72336	3.48888
29.07333	-6.72336	3.48888
29.07739	-6.72336	3.48888
29.08145	-6.72336	3.48888
29.08551	-6.74533	3.48888
29.08956	-6.74533	3.48888
29.09362	-6.74533	3.48888
29.09768	-6.74533	3.48888
29.10173	-6.74533	3.48888
29.10579	-6.74533	3.48888
29.10985	-6.74533	3.48888
29.11391	-6.74533	3.48888
29.11796	-6.74533	3.48888
29.12203	-6.74533	3.48888
29.12609	-6.74533	3.48888
29.13014	-6.76730	3.48888
29.13420	-6.74533	3.48888
29.13850	-6.74533	3.48888
29.14255	-6.74533	3.48888
29.14661	-6.76730	3.48888
29.15067	-6.74533	3.48888
29.15473	-6.76730	3.48888
29.15879	-6.76730	3.48888
29.16284	-6.76730	3.48888
29.16692	-6.76730	3.48888
29.17097	-6.76730	3.48888
29.17503	-6.74533	3.48888
29.17909	-6.76730	3.48888
29.18315	-6.76730	3.48888
29.18720	-6.74533	3.48888
29.19126	-6.74533	3.48888
29.19532	-6.74533	3.48888
29.19938	-6.74533	3.48888
29.20343	-6.74533	3.48888
29.20749	-6.74533	3.48888
29.21155	-6.76730	3.48888
29.21561	-6.74533	3.48888
29.21966	-6.74533	3.48888
29.22372	-6.74533	3.48888
29.22778	-6.74533	3.48888
29.23184	-6.74533	3.48888
29.23590	-6.74533	3.48888
29.24020	-6.74533	3.48888
29.24426	-6.74533	3.48888
29.24832	-6.74533	3.48888
29.25238	-6.74533	3.48888
29.25643	-6.72336	3.48888
29.26049	-6.72336	3.48888
29.26455	-6.72336	3.48888
29.26862	-6.72336	3.48888
29.27267	-6.72336	3.48888
29.27673	-6.72336	3.48888
29.28079	-6.72336	3.48888
29.28485	-6.70138	3.48888
29.28890	-6.70138	3.48888
29.29296	-6.70138	3.48888
29.29702	-6.70138	3.48888
29.30108	-6.70138	3.48888
29.30513	-6.70138	3.48888
29.30919	-6.70138	3.48888
29.31325	-6.70138	3.48888
29.31731	-6.67941	3.48888
29.32136	-6.67941	3.48888
29.32542	-6.67941	3.48888
29.32948	-6.65744	3.48888
29.33353	-6.65744	3.48888
29.33759	-6.65744	3.48888
29.34189	-6.65744	3.48888
29.34594	-6.65744	3.48888
29.35000	-6.63547	3.48888
29.35406	-6.63547	3.48888
29.35812	-6.63547	3.48888
29.36217	-6.61349	3.48888
29.36623	-6.63547	3.48888
29.37030	-6.61349	3.48888
29.37436	-6.61349	3.48888
29.37842	-6.61349	3.48888
29.38247	-6.59152	3.48888
29.38653	-6.59152	3.48888
29.39059	-6.56955	3.48888
29.39464	-6.56955	3.48888
29.39870	-6.56955	3.48888
29.40276	-6.56955	3.48888
29.40682	-6.54757	3.48888
29.41087	-6.54757	3.48888
29.41493	-6.52560	3.48888
29.41899	-6.52560	3.48888
29.42305	-6.52560	3.48888
29.42710	-6.50363	3.48888
29.43116	-6.50363	3.48888
29.43522	-6.50363	3.48888
29.43927	-6.50363	3.48888
29.44360	-6.48166	3.48888
29.44766	-6.48166	3.48888
29.45171	-6.45968	3.48888
29.45577	-6.45968	3.48888
29.45983	-6.43771	3.48888
29.46389	-6.43771	3.48888
29.46794	-6.41574	3.48888
29.47202	-6.41574	3.48888
29.47607	-6.39377	3.48888
29.48013	-6.39377	3.48888
29.48418	-6.39377	3.48888
29.48824	-6.37179	3.48888
29.49230	-6.34982	3.48888
29.49635	-6.37179	3.48888
29.50041	-6.37179	3.48888
29.50447	-6.34982	3.48888
29.50853	-6.32785	3.48888
29.51258	-6.32785	3.48888
29.51664	-6.30588	3.48888
29.52070	-6.30588	3.48888
29.52475	-6.30588	3.48888
29.52881	-6.28390	3.48888
29.53287	-6.28390	3.48888
29.53693	-6.26193	3.48888
29.54098	-6.23996	3.48888
29.54527	-6.23996	3.48888
29.54933	-6.23996	3.48888
29.55339	-6.21798	3.48888
29.55745	-6.19601	3.48888
29.56150	-6.19601	3.48888
29.56556	-6.19601	3.48888
29.56962	-6.17404	3.48888
29.57369	-6.17404	3.48888
29.57775	-6.15207	3.48888
29.58180	-6.15207	3.48888
29.58586	-6.13009	3.48888
29.58992	-6.13009	3.48888
29.59398	-6.10812	3.48888
29.59803	-6.10812	3.48888
29.60209	-6.08615	3.48888
29.60615	-6.08615	3.48888
29.61020	-6.08615	3.48888
29.61426	-6.06418	3.48888
29.61832	-6.06418	3.48888
29.62238	-6.04220	3.48888
29.62644	-6.02023	3.48888
29.63049	-6.02023	3.48888
29.63455	-5.99826	3.48888
29.63861	-5.97629	3.48888
29.64266	-5.97629	3.48888
29.64695	-5.95431	3.48888
29.65101	-5.93234	3.48888
29.65507	-5.93234	3.48888
29.65913	-5.93234	3.48888
29.66318	-5.91037	3.48888
29.66724	-5.91037	3.48888
29.67130	-5.91037	3.48888
29.67537	-5.91037	3.48888
29.67943	-5.86642	3.48888
29.68349	-5.86642	3.48888
29.68754	-5.84445	3.48888
29.69160	-5.82248	3.48888
29.69566	-5.82248	3.48888
29.69971	-5.82248	3.48888
29.70377	-5.80050	3.48888
29.70783	-5.77853	3.48888
29.71189	-5.77853	3.48888
29.71594	-5.75656	3.48888
29.72000	-5.75656	3.48888
29.72406	-5.73459	3.48888
29.72812	-5.73459	3.48888
29.73218	-5.71261	3.48888
29.73624	-5.71261	3.48888
29.74029	-5.71261	3.48888
29.74435	-5.69064	3.48888
29.74864	-5.66867	3.48888
29.75270	-5.66867	3.48888
29.75676	-5.64670	3.48888
29.76081	-5.64670	3.48888
29.76487	-5.62472	3.48888
29.76893	-5.60275	3.48888
29.77299	-5.60275	3.48888
29.77705	-5.58078	3.48888
29.78111	-5.58078	3.48888
29.78517	-5.55881	3.48888
29.78922	-5.55881	3.48888
29.79328	-5.55881	3.48888
29.79734	-5.53683	3.48888
29.80139	-5.53683	3.48888
29.80545	-5.51486	3.48888
29.80951	-5.51486	3.48888
29.81357	-5.49289	3.48888
29.81762	-5.47091	3.48888
29.82168	-5.47091	3.48888
29.82574	-5.47091	3.48888
29.82979	-5.44894	3.48888
29.83385	-5.44894	3.48888
29.83791	-5.42697	3.48888
29.84196	-5.42697	3.48888
29.84602	-5.42697	3.48888
29.85031	-5.40500	3.48888
29.85436	-5.40500	3.48888
29.85842	-5.38302	3.48888
29.86248	-5.36105	3.48888
29.86654	-5.36105	3.48888
29.87059	-5.36105	3.48888
29.87465	-5.36105	3.48888
29.87872	-5.33908	3.48888
29.88278	-5.33908	3.48888
29.88683	-5.31711	3.48888
29.89089	-5.31711	3.48888
29.89495	-5.31711	3.48888
29.89901	-5.29513	3.48888
29.90306	-5.29513	3.48888
29.90712	-5.27316	3.48888
29.91118	-5.27316	3.48888
29.91523	-5.27316	3.48888
29.91929	-5.27316	3.48888
29.92335	-5.25119	3.48888
29.92741	-5.25119	3.48888
29.93146	-5.25119	3.48888
29.93552	-5.25119	3.48888
29.93958	-5.22922	3.48888
29.94363	-5.20724	3.48888
29.94769	-5.20724	3.48888
29.95197	-5.20724	3.48888
29.95603	-5.20724	3.48888
29.96009	-5.20724	3.48888
29.96414	-5.18527	3.48888
29.96818	-5.18527	3.48888
29.97224	-5.18527	3.48888
29.97630	-5.18527	3.48888
29.98037	-5.16330	3.48888
29.98443	-5.16330	3.48888
29.98848	-5.14132	3.48888
29.99254	-5.16330	3.48888
29.99660	-5.16330	3.48888
