Time (s)   roll (deg)   Delta
0.00039	-2.39474	11.27051
0.00461	-2.39474	11.27051
0.00882	-2.39474	11.27051
0.01302	-2.39474	11.27051
0.01731	-2.37277	11.27051
0.02150	-2.37277	11.27051
0.02566	-2.35080	11.27051
0.02983	-2.35080	11.27051
0.03400	-2.32882	11.27051
0.03816	-2.35080	11.27051
0.04233	-2.35080	11.27051
0.04674	-2.32882	11.27051
0.05094	-2.32882	11.27051
0.05512	-2.32882	11.27051
0.05929	-2.30685	11.27051
0.06347	-2.30685	11.27051
0.06764	-2.30685	11.27051
0.07181	-2.30685	11.27051
0.07611	-2.28488	11.27051
0.08036	-2.28488	11.27051
0.08455	-2.28488	11.27051
0.08873	-2.28488	11.27051
0.09290	-2.28488	11.27051
0.09708	-2.28488	11.27051
0.10135	-2.28488	11.27051
0.10559	-2.28488	11.27051
0.10991	-2.28488	11.27051
0.11417	-2.28488	11.27051
0.11840	-2.28488	11.27051
0.12259	-2.28488	11.27051
0.12678	-2.28488	11.27051
0.13098	-2.28488	11.27051
0.13517	-2.30685	11.27051
0.13949	-2.30685	11.27051
0.14369	-2.30685	11.27051
0.14788	-2.30685	11.27051
0.15207	-2.32882	11.27051
0.15625	-2.32882	11.27051
0.16044	-2.35080	11.27051
0.16462	-2.35080	11.27051
0.16903	-2.37277	11.27051
0.17327	-2.37277	11.27051
0.17747	-2.39474	11.27051
0.18166	-2.39474	11.27051
0.18586	-2.41672	11.27051
0.19005	-2.43869	11.27051
0.19424	-2.43869	11.27051
0.19855	-2.46066	11.27051
0.20295	-2.46066	11.27051
0.20715	-2.48263	11.27051
0.21135	-2.50461	11.27051
0.21554	-2.52658	11.27051
0.21973	-2.57052	11.27051
0.22392	-2.57052	11.27051
0.22817	-2.59250	11.27051
0.23245	-2.61447	11.27051
0.23665	-2.63644	11.27051
0.24084	-2.68039	11.27051
0.24503	-2.70236	11.27051
0.24922	-2.74631	11.27051
0.25341	-2.74631	11.27051
0.25760	-2.76828	11.27051
0.26194	-2.81222	11.27051
0.26617	-2.83420	11.27051
0.27036	-2.87814	11.27051
0.27454	-2.92209	11.27051
0.27873	-2.92209	11.27051
0.28292	-2.96603	11.27051
0.28711	-2.98800	11.27051
0.29151	-3.03195	11.27051
0.29573	-3.07589	11.27051
0.29992	-3.11984	11.27051
0.30422	-3.18576	11.27051
0.30841	-3.18576	11.27051
0.31261	-3.22970	11.27051
0.31680	-3.27365	11.27051
0.32111	-3.31759	11.27051
0.32537	-3.38351	11.27051
0.32957	-3.42746	11.27051
0.33376	-3.47140	11.27051
0.33795	-3.47140	11.27051
0.34214	-3.53732	11.27051
0.34633	-3.60324	11.27051
0.35057	-3.64718	11.27051
0.35485	-3.71310	11.27051
0.35906	-3.71310	11.27051
0.36325	-3.77902	11.27051
0.36745	-3.84494	11.27051
0.37164	-3.91086	11.27051
0.37583	-3.95480	11.27051
0.38002	-4.02072	11.27051
0.38432	-4.08664	11.27051
0.38852	-4.08664	11.27051
0.39271	-4.15256	11.27051
0.39690	-4.21847	11.27051
0.40108	-4.30636	11.27051
0.40537	-4.37228	11.27051
0.40956	-4.43820	11.27051
0.41397	-4.43820	11.27051
0.41820	-4.52609	11.27051
0.42239	-4.59201	11.27051
0.42658	-4.67990	11.27051
0.43077	-4.74582	11.27051
0.43497	-4.74582	11.27051
0.43916	-4.83371	11.27051
0.44345	-4.92160	11.27051
0.44773	-4.98752	11.27051
0.45193	-5.07541	11.27051
0.45612	-5.18527	11.27051
0.46032	-5.22922	11.27051
0.46451	-5.22922	11.27051
0.46870	-5.33908	11.27051
0.47295	-5.40500	11.27051
0.47724	-5.51486	11.27051
0.48144	-5.60275	11.27051
0.48564	-5.69064	11.27051
0.48983	-5.69064	11.27051
0.49402	-5.77853	11.27051
0.49821	-5.88839	11.27051
0.50240	-5.95431	11.27051
0.50682	-6.04220	11.27051
0.51102	-6.15207	11.27051
0.51521	-6.23996	11.27051
0.51940	-6.23996	11.27051
0.52359	-6.34982	11.27051
0.52777	-6.43771	11.27051
0.53195	-6.54757	11.27051
0.53637	-6.63547	11.27051
0.54059	-6.63547	11.27051
0.54478	-6.83322	11.27051
0.54897	-6.83322	11.27051
0.55316	-6.94308	11.27051
0.55735	-7.03097	11.27051
0.56154	-7.14084	11.27051
0.56584	-7.25070	11.27051
0.57010	-7.25070	11.27051
0.57430	-7.36056	11.27051
0.57849	-7.47043	11.27051
0.58268	-7.58029	11.27051
0.58687	-7.66818	11.27051
0.59103	-7.77804	11.27051
0.59527	-7.88791	11.27051
0.59956	-7.88791	11.27051
0.60376	-7.99777	11.27051
0.60807	-8.10763	11.27051
0.61225	-8.21750	11.27051
0.61644	-8.34933	11.27051
0.62063	-8.45920	11.27051
0.62482	-8.45920	11.27051
0.62912	-8.56906	11.27051
0.63333	-8.65695	11.27051
0.63752	-8.76681	11.27051
0.64171	-8.89865	11.27051
0.64590	-9.00851	11.27051
0.65008	-9.00851	11.27051
0.65427	-9.11838	11.27051
0.65868	-9.25021	11.27051
0.66291	-9.36007	11.27051
0.66710	-9.46994	11.27051
0.67129	-9.60177	11.27051
0.67548	-9.60177	11.27051
0.67967	-9.71164	11.27051
0.68386	-9.82150	11.27051
0.68816	-9.95334	11.27051
0.69242	-10.08517	11.27051
0.69661	-10.19504	11.27051
0.70081	-10.19504	11.27051
0.70500	-10.30490	11.27051
0.70929	-10.43673	11.27051
0.71347	-10.54660	11.27051
0.71772	-10.65646	11.27051
0.72199	-10.76632	11.27051
0.72619	-10.87619	11.27051
0.73038	-10.87619	11.27051
0.73456	-11.00802	11.27051
0.73875	-11.11789	11.27051
0.74294	-11.24972	11.27051
0.74713	-11.35959	11.27051
0.75141	-11.35959	11.27051
0.75562	-11.49142	11.27051
0.75980	-11.57931	11.27051
0.76399	-11.71115	11.27051
0.76817	-11.82101	11.27051
0.77236	-11.95285	11.27051
0.77654	-12.06271	11.27051
0.78093	-12.06271	11.27051
0.78515	-12.19455	11.27051
0.78934	-12.30441	11.27051
0.79353	-12.41427	11.27051
0.79772	-12.54611	11.27051
0.80191	-12.63400	11.27051
0.80610	-12.76584	11.27051
0.81058	-12.76584	11.27051
0.81481	-12.87570	11.27051
0.81901	-13.00754	11.27051
0.82320	-13.11740	11.27051
0.82738	-13.24923	11.27051
0.83157	-13.35910	11.27051
0.83575	-13.35910	11.27051
0.84000	-13.49093	11.27051
0.84426	-13.57882	11.27051
0.84847	-13.71066	11.27051
0.85266	-13.82052	11.27051
0.85684	-13.93039	11.27051
0.86102	-13.93039	11.27051
0.86521	-14.06222	11.27051
0.86940	-14.17209	11.27051
0.87368	-14.28195	11.27051
0.87789	-14.41379	11.27051
0.88209	-14.52365	11.27051
0.88628	-14.63351	11.27051
0.89047	-14.63351	11.27051
0.89465	-14.74338	11.27051
0.89884	-14.85324	11.27051
0.90325	-14.98507	11.27051
0.90747	-15.09494	11.27051
0.91177	-15.20480	11.27051
0.91597	-15.20480	11.27051
0.92016	-15.33664	11.27051
0.92435	-15.44650	11.27051
0.92854	-15.55636	11.27051
0.93285	-15.66623	11.27051
0.93710	-15.79806	11.27051
0.94130	-15.79806	11.27051
0.94549	-15.90793	11.27051
0.94968	-16.01779	11.27051
0.95388	-16.12765	11.27051
0.95807	-16.23752	11.27051
0.96230	-16.23752	11.27051
0.96657	-16.36935	11.27051
0.97078	-16.45724	11.27051
0.97499	-16.56711	11.27051
0.97918	-16.67697	11.27051
0.98337	-16.78683	11.27051
0.98756	-16.89670	11.27051
0.99175	-16.89670	11.27051
0.99604	-16.98459	11.27051
1.00024	-17.11642	11.27051
1.00443	-17.20431	11.27051
1.00861	-17.31418	11.27051
1.01290	-17.40207	11.27051
1.01709	-17.51193	11.27051
1.02128	-17.51193	11.27051
1.02567	-17.62179	11.27051
1.02989	-17.73166	11.27051
1.03409	-17.81955	11.27051
1.03828	-17.92941	11.27051
1.04247	-18.01730	11.27051
1.04666	-18.01730	11.27051
1.05085	-18.12716	11.27051
1.05516	-18.21506	11.27051
1.05942	-18.30295	11.27051
1.06362	-18.39084	11.27051
1.06781	-18.50070	11.27051
1.07200	-18.50070	11.27051
1.07619	-18.61056	11.27051
1.08038	-18.69845	11.27051
1.08461	-18.78634	11.27051
1.08888	-18.89621	11.27051
1.09308	-18.98410	11.27051
1.09727	-19.05002	11.27051
1.10146	-19.05002	11.27051
1.10565	-19.13791	11.27051
1.10984	-19.24777	11.27051
1.11413	-19.33566	11.27051
1.11843	-19.42355	11.27051
1.12264	-19.51144	11.27051
1.12683	-19.51144	11.27051
1.13103	-19.59933	11.27051
1.13521	-19.68722	11.27051
1.13939	-19.77511	11.27051
1.14358	-19.84103	11.27051
1.14796	-19.90695	11.27051
1.15217	-20.01681	11.27051
1.15636	-20.01681	11.27051
1.16054	-20.08273	11.27051
1.16473	-20.17062	11.27051
1.16891	-20.23654	11.27051
1.17309	-20.32443	11.27051
1.17736	-20.32443	11.27051
1.18160	-20.41232	11.27051
1.18579	-20.47824	11.27051
1.18998	-20.54416	11.27051
1.19416	-20.61007	11.27051
1.19834	-20.67599	11.27051
1.20253	-20.67599	11.27051
1.20677	-20.74191	11.27051
1.21104	-20.80783	11.27051
1.21535	-20.85177	11.27051
1.21954	-20.91769	11.27051
1.22372	-20.96164	11.27051
1.22791	-21.00558	11.27051
1.23209	-21.00558	11.27051
1.23627	-21.04953	11.27051
1.24056	-21.07150	11.27051
1.24477	-21.09347	11.27051
1.24896	-21.11545	11.27051
1.25314	-21.11545	11.27051
1.25733	-21.13742	11.27051
1.26154	-21.15939	11.27051
1.26573	-21.15939	11.27051
1.27012	-21.15939	11.27051
1.27434	-21.15939	11.27051
1.27854	-21.15939	11.27051
1.28274	-21.15939	11.27051
1.28694	-21.15939	11.27051
1.29113	-21.11545	11.27051
1.29532	-21.09347	11.27051
1.29962	-21.07150	11.27051
1.30388	-21.02756	11.27051
1.30808	-21.02756	11.27051
1.31227	-21.00558	11.27051
1.31657	-20.96164	11.27051
1.32076	-20.91769	11.27051
1.32495	-20.87375	11.27051
1.32919	-20.82980	11.27051
1.33346	-20.76388	11.27051
1.33767	-20.76388	11.27051
1.34186	-20.71994	11.27051
1.34605	-20.65402	11.27051
1.35024	-20.58810	11.27051
1.35442	-20.56613	11.27051
1.35861	-20.50021	11.27051
1.36291	-20.43429	11.27051
1.36713	-20.43429	11.27051
1.37132	-20.36838	11.27051
1.37550	-20.30246	11.27051
1.37968	-20.25851	11.27051
1.38387	-20.17062	11.27051
1.38805	-20.17062	11.27051
1.39244	-20.10470	11.27051
1.39668	-20.06076	11.27051
1.40088	-19.99484	11.27051
1.40508	-19.92892	11.27051
1.40927	-19.86300	11.27051
1.41346	-19.79709	11.27051
1.41776	-19.79709	11.27051
1.42204	-19.73117	11.27051
1.42629	-19.64328	11.27051
1.43049	-19.57736	11.27051
1.43469	-19.51144	11.27051
1.43887	-19.44552	11.27051
1.44303	-19.44552	11.27051
1.44722	-19.37961	11.27051
1.45147	-19.29172	11.27051
1.45574	-19.22580	11.27051
1.45994	-19.13791	11.27051
1.46413	-19.13791	11.27051
1.46831	-19.07199	11.27051
1.47250	-19.00607	11.27051
1.47668	-18.91818	11.27051
1.48087	-18.85226	11.27051
1.48515	-18.78634	11.27051
1.48937	-18.69845	11.27051
1.49355	-18.69845	11.27051
1.49774	-18.63254	11.27051
1.50192	-18.54464	11.27051
1.50611	-18.47873	11.27051
1.51029	-18.41281	11.27051
1.51470	-18.32492	11.27051
1.51905	-18.32492	11.27051
1.52325	-18.23703	11.27051
1.52744	-18.17111	11.27051
1.53163	-18.08322	11.27051
1.53582	-18.01730	11.27051
1.54001	-17.92941	11.27051
1.54431	-17.86349	11.27051
1.54857	-17.86349	11.27051
1.55278	-17.77560	11.27051
1.55697	-17.68771	11.27051
1.56116	-17.62179	11.27051
1.56534	-17.53390	11.27051
1.56953	-17.46798	11.27051
1.57377	-17.46798	11.27051
1.57804	-17.38009	11.27051
1.58225	-17.29220	11.27051
1.58644	-17.20431	11.27051
1.59062	-17.13839	11.27051
1.59481	-17.05050	11.27051
1.59900	-17.05050	11.27051
1.60318	-16.96261	11.27051
1.60747	-16.87472	11.27051
1.61167	-16.83078	11.27051
1.61586	-16.72091	11.27051
1.62015	-16.65500	11.27051
1.62434	-16.56711	11.27051
1.62852	-16.56711	11.27051
1.63270	-16.47922	11.27051
1.63710	-16.39132	11.27051
1.64132	-16.30343	11.27051
1.64551	-16.23752	11.27051
1.64970	-16.14963	11.27051
1.65389	-16.08371	11.27051
1.65808	-16.08371	11.27051
1.66227	-15.99582	11.27051
1.66658	-15.90793	11.27051
1.67083	-15.82004	11.27051
1.67504	-15.75412	11.27051
1.67923	-15.75412	11.27051
1.68342	-15.64425	11.27051
1.68762	-15.55636	11.27051
1.69181	-15.49045	11.27051
1.69605	-15.40256	11.27051
1.70032	-15.31466	11.27051
1.70453	-15.31466	11.27051
1.70872	-15.22677	11.27051
1.71291	-15.16086	11.27051
1.71709	-15.07297	11.27051
1.72139	-14.98507	11.27051
1.72557	-14.89718	11.27051
1.72986	-14.89718	11.27051
1.73408	-14.80929	11.27051
1.73827	-14.74338	11.27051
1.74246	-14.67746	11.27051
1.74664	-14.58957	11.27051
1.75082	-14.50168	11.27051
1.75501	-14.50168	11.27051
1.75941	-14.43576	11.27051
1.76363	-14.34787	11.27051
1.76782	-14.25998	11.27051
1.77202	-14.17209	11.27051
1.77621	-14.10617	11.27051
1.78039	-14.04025	11.27051
1.78458	-14.04025	11.27051
1.78889	-13.95236	11.27051
1.79316	-13.88644	11.27051
1.79735	-13.79855	11.27051
1.80155	-13.73263	11.27051
1.80574	-13.64474	11.27051
1.80993	-13.64474	11.27051
1.81412	-13.57882	11.27051
1.81838	-13.51291	11.27051
1.82276	-13.42502	11.27051
1.82698	-13.35910	11.27051
1.83116	-13.29318	11.27051
1.83535	-13.22726	11.27051
1.83954	-13.22726	11.27051
1.84372	-13.13937	11.27051
1.84790	-13.07345	11.27051
1.85219	-13.00754	11.27051
1.85640	-12.91964	11.27051
1.86059	-12.91964	11.27051
1.86477	-12.78781	11.27051
1.86896	-12.78781	11.27051
1.87315	-12.72189	11.27051
1.87734	-12.65597	11.27051
1.88174	-12.59006	11.27051
1.88597	-12.50216	11.27051
1.89016	-12.50216	11.27051
1.89435	-12.45822	11.27051
1.89854	-12.39230	11.27051
1.90274	-12.32638	11.27051
1.90694	-12.26047	11.27051
1.91125	-12.19455	11.27051
1.91550	-12.12863	11.27051
1.91970	-12.12863	11.27051
1.92401	-12.06271	11.27051
1.92820	-12.01877	11.27051
1.93238	-11.95285	11.27051
1.93657	-11.88693	11.27051
1.94081	-11.82101	11.27051
1.94509	-11.82101	11.27051
1.94929	-11.75509	11.27051
1.95348	-11.68918	11.27051
1.95766	-11.64523	11.27051
1.96185	-11.57931	11.27051
1.96603	-11.57931	11.27051
1.97021	-11.51339	11.27051
1.97449	-11.46945	11.27051
1.97870	-11.40353	11.27051
1.98290	-11.33761	11.27051
1.98709	-11.29367	11.27051
1.99128	-11.29367	11.27051
1.99546	-11.22775	11.27051
1.99965	-11.20578	11.27051
2.00404	-11.13986	11.27051
2.00827	-11.09591	11.27051
2.01246	-11.05197	11.27051
2.01665	-10.98605	11.27051
2.02084	-10.98605	11.27051
2.02514	-10.94211	11.27051
2.02933	-10.89816	11.27051
2.03364	-10.85422	11.27051
2.03789	-10.81027	11.27051
2.04209	-10.76632	11.27051
2.04628	-10.72238	11.27051
2.05046	-10.72238	11.27051
2.05465	-10.65646	11.27051
2.05883	-10.63449	11.27051
2.06308	-10.56857	11.27051
2.06735	-10.52463	11.27051
2.07155	-10.52463	11.27051
2.07573	-10.50265	11.27051
2.07992	-10.45871	11.27051
2.08410	-10.41476	11.27051
2.08829	-10.37082	11.27051
2.09247	-10.32687	11.27051
2.09676	-10.30490	11.27051
2.10097	-10.30490	11.27051
2.10516	-10.26095	11.27051
2.10935	-10.21701	11.27051
2.11355	-10.19504	11.27051
2.11774	-10.15109	11.27051
2.12192	-10.12912	11.27051
2.12647	-10.08517	11.27051
2.13069	-10.08517	11.27051
2.13488	-10.06320	11.27051
2.13904	-10.01925	11.27051
2.14323	-9.99728	11.27051
2.14742	-9.97531	11.27051
2.15161	-9.93136	11.27051
2.15591	-9.93136	11.27051
2.16017	-9.90939	11.27051
2.16436	-9.88742	11.27051
2.16855	-9.86545	11.27051
2.17275	-9.84347	11.27051
2.17694	-9.79953	11.27051
2.18115	-9.77756	11.27051
2.18543	-9.77756	11.27051
2.18971	-9.75558	11.27051
2.19392	-9.73361	11.27051
2.19812	-9.71164	11.27051
2.20232	-9.68966	11.27051
2.20651	-9.68966	11.27051
2.21070	-9.66769	11.27051
2.21490	-9.64572	11.27051
2.21920	-9.62375	11.27051
2.22342	-9.62375	11.27051
2.22773	-9.60177	11.27051
2.23192	-9.60177	11.27051
2.23611	-9.57980	11.27051
2.24030	-9.55783	11.27051
2.24449	-9.55783	11.27051
2.24890	-9.53586	11.27051
2.25313	-9.53586	11.27051
2.25732	-9.51388	11.27051
2.26154	-9.51388	11.27051
2.26573	-9.49191	11.27051
2.26994	-9.49191	11.27051
2.27413	-9.46994	11.27051
2.27843	-9.46994	11.27051
2.28269	-9.46994	11.27051
2.28691	-9.46994	11.27051
2.29110	-9.44797	11.27051
2.29528	-9.44797	11.27051
2.29947	-9.44797	11.27051
2.30365	-9.44797	11.27051
2.30790	-9.44797	11.27051
2.31217	-9.42599	11.27051
2.31638	-9.42599	11.27051
2.32057	-9.42599	11.27051
2.32476	-9.42599	11.27051
2.32904	-9.42599	11.27051
2.33323	-9.42599	11.27051
2.33741	-9.42599	11.27051
2.34170	-9.42599	11.27051
2.34591	-9.42599	11.27051
2.35011	-9.42599	11.27051
2.35429	-9.42599	11.27051
2.35848	-9.44797	11.27051
2.36266	-9.44797	11.27051
2.36685	-9.44797	11.27051
2.37127	-9.44797	11.27051
2.37549	-9.44797	11.27051
2.37969	-9.46994	11.27051
2.38388	-9.46994	11.27051
2.38807	-9.46994	11.27051
2.39226	-9.49191	11.27051
2.39645	-9.49191	11.27051
2.40072	-9.49191	11.27051
2.40497	-9.49191	11.27051
2.40917	-9.51388	11.27051
2.41335	-9.53586	11.27051
2.41754	-9.53586	11.27051
2.42173	-9.53586	11.27051
2.42591	-9.55783	11.27051
2.43027	-9.57980	11.27051
2.43453	-9.57980	11.27051
2.43873	-9.60177	11.27051
2.44293	-9.62375	11.27051
2.44712	-9.62375	11.27051
2.45130	-9.64572	11.27051
2.45549	-9.66769	11.27051
2.45967	-9.66769	11.27051
2.46396	-9.68966	11.27051
2.46817	-9.71164	11.27051
2.47236	-9.71164	11.27051
2.47654	-9.75558	11.27051
2.48073	-9.75558	11.27051
2.48491	-9.77756	11.27051
2.48910	-9.82150	11.27051
2.49350	-9.84347	11.27051
2.49773	-9.84347	11.27051
2.50193	-9.86545	11.27051
2.50612	-9.88742	11.27051
2.51031	-9.90939	11.27051
2.51450	-9.93136	11.27051
2.51869	-9.95334	11.27051
2.52301	-9.95334	11.27051
2.52728	-9.99728	11.27051
2.53160	-10.01925	11.27051
2.53579	-10.06320	11.27051
2.53998	-10.08517	11.27051
2.54417	-10.12912	11.27051
2.54836	-10.15109	11.27051
2.55261	-10.15109	11.27051
2.55687	-10.17306	11.27051
2.56107	-10.19504	11.27051
2.56526	-10.23898	11.27051
2.56944	-10.28293	11.27051
2.57363	-10.30490	11.27051
2.57781	-10.30490	11.27051
2.58200	-10.34884	11.27051
2.58628	-10.39279	11.27051
2.59049	-10.41476	11.27051
2.59468	-10.43673	11.27051
2.59887	-10.48068	11.27051
2.60303	-10.48068	11.27051
2.60722	-10.52463	11.27051
2.61140	-10.54660	11.27051
2.61580	-10.59054	11.27051
2.62001	-10.63449	11.27051
2.62420	-10.67843	11.27051
2.62839	-10.67843	11.27051
2.63269	-10.72238	11.27051
2.63688	-10.74435	11.27051
2.64107	-10.78830	11.27051
2.64537	-10.83224	11.27051
2.64963	-10.87619	11.27051
2.65382	-10.92013	11.27051
2.65800	-10.92013	11.27051
2.66219	-10.94211	11.27051
2.66637	-11.00802	11.27051
2.67056	-11.03000	11.27051
2.67479	-11.09591	11.27051
2.67907	-11.11789	11.27051
2.68327	-11.16183	11.27051
2.68746	-11.16183	11.27051
2.69165	-11.20578	11.27051
2.69584	-11.24972	11.27051
2.70003	-11.29367	11.27051
2.70421	-11.33761	11.27051
2.70851	-11.40353	11.27051
2.71273	-11.40353	11.27051
2.71692	-11.46945	11.27051
2.72111	-11.49142	11.27051
2.72529	-11.53537	11.27051
2.72948	-11.57931	11.27051
2.73377	-11.57931	11.27051
2.73818	-11.64523	11.27051
2.74240	-11.68918	11.27051
2.74660	-11.73312	11.27051
2.75079	-11.77707	11.27051
2.75499	-11.82101	11.27051
2.75918	-11.82101	11.27051
2.76337	-11.88693	11.27051
2.76768	-11.90890	11.27051
2.77193	-11.97482	11.27051
2.77613	-12.01877	11.27051
2.78032	-12.06271	11.27051
2.78451	-12.12863	11.27051
2.78870	-12.12863	11.27051
2.79288	-12.17257	11.27051
2.79712	-12.23849	11.27051
2.80139	-12.28244	11.27051
2.80559	-12.32638	11.27051
2.80978	-12.37033	11.27051
2.81396	-12.37033	11.27051
2.81815	-12.43625	11.27051
2.82234	-12.48019	11.27051
2.82652	-12.52414	11.27051
2.83081	-12.59006	11.27051
2.83514	-12.63400	11.27051
2.83933	-12.63400	11.27051
2.84351	-12.69992	11.27051
2.84770	-12.74386	11.27051
2.85188	-12.78781	11.27051
2.85606	-12.85373	11.27051
2.86045	-12.89767	11.27051
2.86468	-12.96359	11.27051
2.86888	-12.96359	11.27051
2.87307	-13.00754	11.27051
2.87726	-13.05148	11.27051
2.88145	-13.11740	11.27051
2.88564	-13.18332	11.27051
2.88994	-13.20529	11.27051
2.89420	-13.27121	11.27051
2.89841	-13.27121	11.27051
2.90260	-13.33713	11.27051
2.90679	-13.38107	11.27051
2.91098	-13.42502	11.27051
2.91517	-13.49093	11.27051
2.91941	-13.49093	11.27051
2.92368	-13.53488	11.27051
2.92789	-13.60080	11.27051
2.93208	-13.64474	11.27051
2.93637	-13.71066	11.27051
2.94056	-13.75461	11.27051
2.94474	-13.79855	11.27051
2.94892	-13.79855	11.27051
2.95321	-13.86447	11.27051
2.95742	-13.93039	11.27051
2.96161	-13.97433	11.27051
2.96580	-14.04025	11.27051
2.96998	-14.08420	11.27051
2.97417	-14.08420	11.27051
2.97911	-14.15011	11.27051
2.98345	-14.19406	11.27051
2.98772	-14.25998	11.27051
2.99196	-14.30392	11.27051
2.99618	-14.34787	11.27051
3.00041	-14.41379	11.27051
3.00461	-14.41379	11.27051
3.00880	-14.45773	11.27051
3.01347	-14.52365	11.27051
3.01775	-14.56759	11.27051
3.02198	-14.61154	11.27051
3.02621	-14.67746	11.27051
3.03043	-14.72140	11.27051
3.03463	-14.72140	11.27051
3.03895	-14.78732	11.27051
3.04327	-14.83127	11.27051
3.04754	-14.87521	11.27051
3.05177	-14.94113	11.27051
3.05598	-15.00705	11.27051
3.06018	-15.02902	11.27051
3.06437	-15.02902	11.27051
3.06856	-15.09494	11.27051
3.07282	-15.13888	11.27051
3.07710	-15.18283	11.27051
3.08134	-15.24875	11.27051
3.08555	-15.29269	11.27051
3.08975	-15.29269	11.27051
3.09395	-15.35861	11.27051
3.09814	-15.40256	11.27051
3.10233	-15.44650	11.27051
3.10664	-15.49045	11.27051
3.11097	-15.53439	11.27051
3.11525	-15.60031	11.27051
3.11947	-15.60031	11.27051
3.12368	-15.64425	11.27051
3.12789	-15.68820	11.27051
3.13209	-15.75412	11.27051
3.13656	-15.79806	11.27051
3.14093	-15.86398	11.27051
3.14513	-15.86398	11.27051
3.14933	-15.86398	11.27051
3.15352	-15.92990	11.27051
3.15772	-15.97384	11.27051
3.16191	-16.01779	11.27051
3.16618	-16.06173	11.27051
3.17045	-16.12765	11.27051
3.17468	-16.12765	11.27051
3.17891	-16.17160	11.27051
3.18311	-16.21554	11.27051
3.18730	-16.25949	11.27051
3.19148	-16.28146	11.27051
3.19574	-16.34738	11.27051
3.20003	-16.39132	11.27051
3.20425	-16.39132	11.27051
3.20845	-16.43527	11.27051
3.21263	-16.47922	11.27051
3.21682	-16.52316	11.27051
3.22101	-16.56711	11.27051
3.22519	-16.56711	11.27051
3.22951	-16.61105	11.27051
3.23373	-16.63302	11.27051
3.23792	-16.69894	11.27051
3.24221	-16.72091	11.27051
3.24640	-16.76486	11.27051
3.25058	-16.76486	11.27051
3.25477	-16.80881	11.27051
3.25924	-16.85275	11.27051
3.26345	-16.89670	11.27051
3.26765	-16.94064	11.27051
3.27183	-16.96261	11.27051
3.27602	-17.00656	11.27051
3.28020	-17.00656	11.27051
3.28439	-17.05050	11.27051
3.28869	-17.07248	11.27051
3.29297	-17.11642	11.27051
3.29717	-17.16037	11.27051
3.30137	-17.16037	11.27051
3.30556	-17.18234	11.27051
3.30975	-17.22629	11.27051
3.31393	-17.27023	11.27051
3.31818	-17.29220	11.27051
3.32246	-17.33615	11.27051
3.32669	-17.35812	11.27051
3.33091	-17.35812	11.27051
3.33511	-17.40207	11.27051
3.33930	-17.42404	11.27051
3.34359	-17.46798	11.27051
3.34777	-17.51193	11.27051
3.35206	-17.53390	11.27051
3.35626	-17.53390	11.27051
3.36045	-17.55588	11.27051
3.36464	-17.57785	11.27051
3.36882	-17.62179	11.27051
3.37302	-17.64377	11.27051
3.37721	-17.66574	11.27051
3.38163	-17.70968	11.27051
3.38584	-17.70968	11.27051
3.39003	-17.73166	11.27051
3.39422	-17.75363	11.27051
3.39843	-17.79757	11.27051
3.40262	-17.81955	11.27051
3.40681	-17.84152	11.27051
3.41109	-17.86349	11.27051
3.41537	-17.86349	11.27051
3.41956	-17.88547	11.27051
3.42375	-17.90744	11.27051
3.42796	-17.92941	11.27051
3.43216	-17.95138	11.27051
3.43635	-17.95138	11.27051
3.44060	-17.99533	11.27051
3.44500	-18.01730	11.27051
3.44921	-18.01730	11.27051
3.45340	-18.06125	11.27051
3.45759	-18.06125	11.27051
3.46178	-18.08322	11.27051
3.46596	-18.08322	11.27051
3.47015	-18.10519	11.27051
3.47444	-18.12716	11.27051
3.47865	-18.14914	11.27051
3.48284	-18.17111	11.27051
3.48703	-18.19308	11.27051
3.49122	-18.19308	11.27051
3.49540	-18.21506	11.27051
3.49959	-18.23703	11.27051
3.50400	-18.23703	11.27051
3.50821	-18.25900	11.27051
3.51240	-18.15597	11.27051
3.51659	-18.28097	11.27051
3.52077	-18.30295	11.27051
3.52496	-18.30295	11.27051
3.52916	-18.30295	11.27051
3.53343	-18.32492	11.27051
3.53770	-18.34689	11.27051
3.54190	-18.34689	11.27051
3.54619	-18.34689	11.27051
3.55038	-18.36886	11.27051
3.55457	-18.39084	11.27051
3.55875	-18.39084	11.27051
3.56301	-18.39084	11.27051
3.56729	-18.39084	11.27051
3.57149	-18.41281	11.27051
3.57568	-18.41281	11.27051
3.57987	-18.43478	11.27051
3.58405	-18.43478	11.27051
3.58824	-18.43478	11.27051
3.59242	-18.43478	11.27051
3.59671	-18.43478	11.27051
3.60091	-18.45675	11.27051
3.60510	-18.45675	11.27051
3.60928	-18.45675	11.27051
3.61347	-18.45675	11.27051
3.61765	-18.47873	11.27051
3.62184	-18.47873	11.27051
3.62625	-18.45675	11.27051
3.63047	-18.47873	11.27051
3.63466	-18.45675	11.27051
3.63885	-18.47873	11.27051
3.64303	-18.47873	11.27051
3.64732	-18.47873	11.27051
3.65150	-18.47873	11.27051
3.65576	-18.47873	11.27051
3.66002	-18.47873	11.27051
3.66422	-18.47873	11.27051
3.66841	-18.47873	11.27051
3.67259	-18.47873	11.27051
3.67678	-18.47873	11.27051
3.68096	-18.47873	11.27051
3.68521	-18.45675	11.27051
3.68949	-18.45675	11.27051
3.69368	-18.45675	11.27051
3.69787	-18.45675	11.27051
3.70206	-18.45675	11.27051
3.70624	-18.45675	11.27051
3.71042	-18.43478	11.27051
3.71461	-18.43478	11.27051
3.71891	-18.43478	11.27051
3.72312	-18.43478	11.27051
3.72731	-18.43478	11.27051
3.73149	-18.41281	11.27051
3.73567	-18.41281	11.27051
3.73986	-18.39084	11.27051
3.74404	-18.39084	11.27051
3.74857	-18.39084	11.27051
3.75277	-18.39084	11.27051
3.75696	-18.36886	11.27051
3.76114	-18.36886	11.27051
3.76533	-18.34689	11.27051
3.76951	-18.34689	11.27051
3.77370	-18.32492	11.27051
3.77795	-18.32492	11.27051
3.78221	-18.30295	11.27051
3.78640	-18.30295	11.27051
3.79059	-18.28097	11.27051
3.79477	-18.28097	11.27051
3.79896	-18.25900	11.27051
3.80314	-18.25900	11.27051
3.80739	-18.23703	11.27051
3.81166	-18.23703	11.27051
3.81586	-18.21506	11.27051
3.82005	-18.19308	11.27051
3.82423	-18.17111	11.27051
3.82842	-18.17111	11.27051
3.83260	-18.17111	11.27051
3.83679	-18.14914	11.27051
3.84108	-18.12716	11.27051
3.84528	-18.10519	11.27051
3.84957	-18.10519	11.27051
3.85375	-18.08322	11.27051
3.85794	-18.08322	11.27051
3.86212	-18.06125	11.27051
3.86630	-18.03927	11.27051
3.87072	-18.03927	11.27051
3.87494	-18.01730	11.27051
3.87913	-17.99533	11.27051
3.88331	-17.97336	11.27051
3.88750	-17.97336	11.27051
3.89168	-17.95138	11.27051
3.89586	-17.92941	11.27051
3.90012	-17.90744	11.27051
3.90437	-17.88547	11.27051
3.90856	-17.88547	11.27051
3.91275	-17.86349	11.27051
3.91693	-17.84152	11.27051
3.92111	-17.81955	11.27051
3.92530	-17.79757	11.27051
3.92955	-17.77560	11.27051
3.93382	-17.75363	11.27051
3.93802	-17.75363	11.27051
3.94220	-17.73166	11.27051
3.94639	-17.70968	11.27051
3.95067	-17.68771	11.27051
3.95486	-17.68771	11.27051
3.95903	-17.64377	11.27051
3.96332	-17.62179	11.27051
3.96752	-17.62179	11.27051
3.97170	-17.59982	11.27051
3.97589	-17.57785	11.27051
3.98007	-17.55588	11.27051
3.98425	-17.53390	11.27051
3.98844	-17.53390	11.27051
3.99284	-17.51193	11.27051
3.99704	-17.48996	11.27051
4.00123	-17.44601	11.27051
4.00542	-17.42404	11.27051
4.00960	-17.42404	11.27051
4.01379	-17.42404	11.27051
4.01797	-17.38009	11.27051
4.02222	-17.35812	11.27051
4.02648	-17.33615	11.27051
4.03067	-17.31418	11.27051
4.03486	-17.27023	11.27051
4.03903	-17.27023	11.27051
4.04321	-17.24826	11.27051
4.04739	-17.24826	11.27051
4.05178	-17.20431	11.27051
4.05605	-17.18234	11.27051
4.06025	-17.16037	11.27051
4.06444	-17.13839	11.27051
4.06863	-17.13839	11.27051
4.07281	-17.11642	11.27051
4.07699	-17.07248	11.27051
4.08118	-17.05050	11.27051
4.08547	-17.02853	11.27051
4.08967	-17.00656	11.27051
4.09386	-17.00656	11.27051
4.09804	-16.98459	11.27051
4.10223	-16.96261	11.27051
4.10641	-16.91867	11.27051
4.11068	-16.89670	11.27051
4.11517	-16.87472	11.27051
4.11938	-16.87472	11.27051
4.12357	-16.85275	11.27051
4.12775	-16.83078	11.27051
4.13195	-16.80881	11.27051
4.13613	-16.76486	11.27051
4.14032	-16.74289	11.27051
4.14458	-16.72091	11.27051
4.14886	-16.72091	11.27051
4.15317	-16.69894	11.27051
4.15735	-16.67697	11.27051
4.16154	-16.65500	11.27051
4.16572	-16.61105	11.27051
4.16990	-16.58908	11.27051
4.17416	-16.56711	11.27051
4.17844	-16.56711	11.27051
4.18264	-16.54513	11.27051
4.18683	-16.52316	11.27051
4.19102	-16.50119	11.27051
4.19521	-16.45724	11.27051
4.19939	-16.45724	11.27051
4.20357	-16.45724	11.27051
4.20786	-16.41330	11.27051
4.21207	-16.39132	11.27051
4.21626	-16.34738	11.27051
4.22044	-16.34738	11.27051
4.22462	-16.32541	11.27051
4.22881	-16.32541	11.27051
4.23300	-16.28146	11.27051
4.23741	-16.25949	11.27051
4.24162	-16.23752	11.27051
4.24581	-16.21554	11.27051
4.25000	-16.19357	11.27051
4.25428	-16.19357	11.27051
4.25847	-16.17160	11.27051
4.26265	-16.14963	11.27051
4.26693	-16.12765	11.27051
4.27120	-16.08371	11.27051
4.27539	-16.06173	11.27051
4.27958	-16.06173	11.27051
4.28376	-16.03976	11.27051
4.28795	-16.01779	11.27051
4.29213	-15.99582	11.27051
4.29638	-15.97384	11.27051
4.30066	-15.95187	11.27051
4.30486	-15.95187	11.27051
4.30905	-15.92990	11.27051
4.31323	-15.90793	11.27051
4.31742	-15.88595	11.27051
4.32160	-15.86398	11.27051
4.32578	-15.84201	11.27051
4.33008	-15.84201	11.27051
4.33430	-15.82004	11.27051
4.33849	-15.79806	11.27051
4.34267	-15.77609	11.27051
4.34686	-15.75412	11.27051
4.35103	-15.71017	11.27051
4.35531	-15.71017	11.27051
4.35973	-15.71017	11.27051
4.36395	-15.68820	11.27051
4.36813	-15.66623	11.27051
4.37232	-15.64425	11.27051
4.37650	-15.62228	11.27051
4.38069	-15.62228	11.27051
4.38487	-15.60031	11.27051
4.38912	-15.57834	11.27051
4.39338	-15.55636	11.27051
4.39759	-15.53439	11.27051
4.40178	-15.51242	11.27051
4.40597	-15.49045	11.27051
4.41015	-15.49045	11.27051
4.41434	-15.46847	11.27051
4.41860	-15.46847	11.27051
4.42288	-15.44650	11.27051
4.42704	-15.42453	11.27051
4.43123	-15.40256	11.27051
4.43542	-15.38058	11.27051
4.43960	-15.38058	11.27051
4.44379	-15.35861	11.27051
4.44797	-15.35861	11.27051
4.45226	-15.33664	11.27051
4.45657	-15.31466	11.27051
4.46075	-15.29269	11.27051
4.46494	-15.29269	11.27051
4.46912	-15.27072	11.27051
4.47331	-15.27072	11.27051
4.47749	-15.24875	11.27051
4.48191	-15.22677	11.27051
4.48612	-15.22677	11.27051
4.49031	-15.22677	11.27051
4.49449	-15.20480	11.27051
4.49867	-15.18283	11.27051
4.50286	-15.16086	11.27051
4.50703	-15.16086	11.27051
4.51128	-15.13888	11.27051
4.51554	-15.13888	11.27051
4.51973	-15.11691	11.27051
4.52392	-15.11691	11.27051
4.52810	-15.09494	11.27051
4.53228	-15.09494	11.27051
4.53647	-15.07297	11.27051
4.54072	-15.07297	11.27051
4.54500	-15.05099	11.27051
4.54920	-15.05099	11.27051
4.55338	-15.02902	11.27051
4.55767	-15.02902	11.27051
4.56189	-15.00705	11.27051
4.56608	-15.00705	11.27051
4.57026	-14.98507	11.27051
4.57456	-14.98507	11.27051
4.57877	-14.98507	11.27051
4.58297	-14.96310	11.27051
4.58715	-14.94113	11.27051
4.59134	-14.94113	11.27051
4.59552	-14.96310	11.27051
4.59971	-14.94113	11.27051
4.60411	-14.91916	11.27051
4.60832	-14.91916	11.27051
4.61250	-14.89718	11.27051
4.61669	-14.89718	11.27051
4.62087	-14.89718	11.27051
4.62506	-14.89718	11.27051
4.62924	-14.89718	11.27051
4.63350	-14.87521	11.27051
4.63776	-14.87521	11.27051
4.64195	-14.87521	11.27051
4.64614	-14.85324	11.27051
4.65032	-14.85324	11.27051
4.65450	-14.85324	11.27051
4.65879	-14.83127	11.27051
4.66305	-14.83127	11.27051
4.66733	-14.83127	11.27051
4.67153	-14.83127	11.27051
4.67572	-14.83127	11.27051
4.67990	-14.80929	11.27051
4.68408	-14.80929	11.27051
4.68827	-14.80929	11.27051
4.69245	-14.80929	11.27051
4.69675	-14.80929	11.27051
4.70096	-14.80929	11.27051
4.70514	-14.78732	11.27051
4.70932	-14.78732	11.27051
4.71351	-14.78732	11.27051
4.71771	-14.76535	11.27051
4.72190	-14.78732	11.27051
4.72634	-14.78732	11.27051
4.73057	-14.78732	11.27051
4.73476	-14.78732	11.27051
4.73897	-14.78732	11.27051
4.74315	-14.76535	11.27051
4.74734	-14.78732	11.27051
4.75152	-14.76535	11.27051
4.75578	-14.76535	11.27051
4.76015	-14.76535	11.27051
4.76434	-14.76535	11.27051
4.76853	-14.76535	11.27051
4.77272	-14.78732	11.27051
4.77690	-14.78732	11.27051
4.78108	-14.76535	11.27051
4.78534	-14.78732	11.27051
4.78961	-14.76535	11.27051
4.79381	-14.78732	11.27051
4.79799	-14.78732	11.27051
4.80218	-14.78732	11.27051
4.80636	-14.76535	11.27051
4.81055	-14.78732	11.27051
4.81473	-14.78732	11.27051
4.81904	-14.78732	11.27051
4.82324	-14.78732	11.27051
4.82743	-14.78732	11.27051
4.83161	-14.78732	11.27051
4.83580	-14.78732	11.27051
4.83998	-14.78732	11.27051
4.84416	-14.80929	11.27051
4.84859	-14.80929	11.27051
4.85280	-14.80929	11.27051
4.85699	-14.80929	11.27051
4.86127	-14.80929	11.27051
4.86546	-14.80929	11.27051
4.86964	-14.83127	11.27051
4.87383	-14.83127	11.27051
4.87808	-14.85324	11.27051
4.88236	-14.85324	11.27051
4.88656	-14.83127	11.27051
4.89075	-14.85324	11.27051
4.89494	-14.85324	11.27051
4.89912	-14.85324	11.27051
4.90331	-14.87521	11.27051
4.90758	-14.87521	11.27051
4.91185	-14.87521	11.27051
4.91606	-14.89718	11.27051
4.92025	-14.89718	11.27051
4.92443	-14.89718	11.27051
4.92862	-14.91916	11.27051
4.93280	-14.91916	11.27051
4.93698	-14.94113	11.27051
4.94128	-14.94113	11.27051
4.94548	-14.94113	11.27051
4.94967	-14.94113	11.27051
4.95385	-14.96310	11.27051
4.95804	-14.96310	11.27051
4.96233	-14.96310	11.27051
4.96651	-14.98507	11.27051
4.97094	-14.98507	11.27051
4.97515	-15.00705	11.27051
4.97934	-15.00705	11.27051
4.98352	-15.00705	11.27051
4.98771	-15.02902	11.27051
4.99190	-15.02902	11.27051
4.99608	-15.02902	11.27051
5.00034	-15.05099	11.27051
5.00459	-15.05099	11.27051
5.00878	-15.07297	11.27051
5.01297	-15.07297	11.27051
5.01715	-15.07297	11.27051
5.02134	-15.09494	11.27051
5.02552	-15.09494	11.27051
5.02977	-15.11691	11.27051
5.03405	-15.13888	11.27051
5.03825	-15.13888	11.27051
5.04243	-15.13888	11.27051
5.04662	-15.16086	11.27051
5.05080	-15.16086	11.27051
5.05499	-15.16086	11.27051
5.05918	-15.18283	11.27051
5.06358	-15.18283	11.27051
5.06778	-15.18283	11.27051
5.07197	-15.20480	11.27051
5.07615	-15.20480	11.27051
5.08033	-15.22677	11.27051
5.08451	-15.24875	11.27051
5.08870	-15.24875	11.27051
5.09311	-15.24875	11.27051
5.09732	-15.27072	11.27051
5.10150	-15.27072	11.27051
5.10569	-15.29269	11.27051
5.10989	-15.29269	11.27051
5.11411	-15.31466	11.27051
5.11831	-15.33664	11.27051
5.12258	-15.33664	11.27051
5.12685	-15.33664	11.27051
5.13105	-15.35861	11.27051
5.13523	-15.38058	11.27051
5.13942	-15.38058	11.27051
5.14360	-15.38058	11.27051
5.14778	-15.40256	11.27051
5.15204	-15.40256	11.27051
5.15631	-15.42453	11.27051
5.16051	-15.42453	11.27051
5.16480	-15.44650	11.27051
5.16898	-15.46847	11.27051
5.17317	-15.46847	11.27051
5.17735	-15.46847	11.27051
5.18153	-15.49045	11.27051
5.18582	-15.49045	11.27051
5.19003	-15.51242	11.27051
5.19422	-15.51242	11.27051
5.19840	-15.53439	11.27051
5.20259	-15.53439	11.27051
5.20677	-15.55636	11.27051
5.21097	-15.55636	11.27051
5.21539	-15.57834	11.27051
5.21959	-15.57834	11.27051
5.22378	-15.60031	11.27051
5.22796	-15.60031	11.27051
5.23215	-15.62228	11.27051
5.23633	-15.62228	11.27051
5.24053	-15.64425	11.27051
5.24478	-15.64425	11.27051
5.24904	-15.66623	11.27051
5.25324	-15.66623	11.27051
5.25742	-15.66623	11.27051
5.26161	-15.68820	11.27051
5.26589	-15.71017	11.27051
5.27008	-15.73214	11.27051
5.27433	-15.73214	11.27051
5.27860	-15.73214	11.27051
5.28281	-15.75412	11.27051
5.28701	-15.77609	11.27051
5.29119	-15.77609	11.27051
5.29537	-15.79806	11.27051
5.29956	-15.79806	11.27051
5.30374	-15.79806	11.27051
5.30803	-15.82004	11.27051
5.31223	-15.82004	11.27051
5.31641	-15.84201	11.27051
5.32060	-15.86398	11.27051
5.32478	-15.86398	11.27051
5.32896	-15.86398	11.27051
5.33315	-15.88595	11.27051
5.33756	-15.88595	11.27051
5.34178	-15.90793	11.27051
5.34596	-15.92990	11.27051
5.35014	-15.92990	11.27051
5.35433	-15.92990	11.27051
5.35851	-15.95187	11.27051
5.36269	-15.97384	11.27051
5.36708	-15.97384	11.27051
5.37133	-15.99582	11.27051
5.37552	-15.99582	11.27051
5.37970	-16.01779	11.27051
5.38389	-16.01779	11.27051
5.38808	-16.01779	11.27051
5.39226	-16.03976	11.27051
5.39655	-16.06173	11.27051
5.40083	-16.06173	11.27051
5.40503	-16.08371	11.27051
5.40922	-16.08371	11.27051
5.41341	-16.08371	11.27051
5.41761	-16.10568	11.27051
5.42180	-16.10568	11.27051
5.42599	-16.12765	11.27051
5.43036	-16.12765	11.27051
5.43458	-16.14963	11.27051
5.43877	-16.14963	11.27051
5.44298	-16.17160	11.27051
5.44716	-16.17160	11.27051
5.45136	-16.17160	11.27051
5.45554	-16.19357	11.27051
5.45996	-16.19357	11.27051
5.46418	-16.19357	11.27051
5.46847	-16.21554	11.27051
5.47266	-16.21554	11.27051
5.47684	-16.23752	11.27051
5.48102	-16.23752	11.27051
5.48521	-16.25949	11.27051
5.48947	-16.25949	11.27051
5.49376	-16.28146	11.27051
5.49797	-16.28146	11.27051
5.50215	-16.30343	11.27051
5.50634	-16.30343	11.27051
5.51052	-16.32541	11.27051
5.51471	-16.32541	11.27051
5.51897	-16.32541	11.27051
5.52325	-16.34738	11.27051
5.52745	-16.34738	11.27051
5.53163	-16.34738	11.27051
5.53582	-16.36935	11.27051
5.54000	-16.36935	11.27051
5.54419	-16.36935	11.27051
5.54837	-16.39132	11.27051
5.55266	-16.39132	11.27051
5.55686	-16.41330	11.27051
5.56105	-16.41330	11.27051
5.56523	-16.41330	11.27051
5.56952	-16.41330	11.27051
5.57370	-16.43527	11.27051
5.57788	-16.43527	11.27051
5.58228	-16.43527	11.27051
5.58650	-16.45724	11.27051
5.59068	-16.47922	11.27051
5.59486	-16.47922	11.27051
5.59903	-16.47922	11.27051
5.60321	-16.47922	11.27051
5.60741	-16.50119	11.27051
5.61166	-16.50119	11.27051
5.61593	-16.50119	11.27051
5.62013	-16.52316	11.27051
5.62431	-16.52316	11.27051
5.62850	-16.52316	11.27051
5.63268	-16.54513	11.27051
5.63686	-16.54513	11.27051
5.64111	-16.56711	11.27051
5.64538	-16.56711	11.27051
5.64959	-16.54513	11.27051
5.65377	-16.56711	11.27051
5.65795	-16.56711	11.27051
5.66214	-16.58908	11.27051
5.66632	-16.58908	11.27051
5.67061	-16.58908	11.27051
5.67491	-16.58908	11.27051
5.67911	-16.61105	11.27051
5.68329	-16.61105	11.27051
5.68748	-16.61105	11.27051
5.69166	-16.63302	11.27051
5.69584	-16.63302	11.27051
5.70003	-16.63302	11.27051
5.70445	-16.63302	11.27051
5.70866	-16.65500	11.27051
5.71284	-16.65500	11.27051
5.71703	-16.65500	11.27051
5.72121	-16.65500	11.27051
5.72539	-16.67697	11.27051
5.72958	-16.67697	11.27051
5.73383	-16.67697	11.27051
5.73809	-16.67697	11.27051
5.74228	-16.67697	11.27051
5.74648	-16.69894	11.27051
5.75066	-16.69894	11.27051
5.75484	-16.69894	11.27051
5.75903	-16.69894	11.27051
5.76327	-16.72091	11.27051
5.76755	-16.72091	11.27051
5.77185	-16.72091	11.27051
5.77604	-16.72091	11.27051
5.78022	-16.72091	11.27051
5.78440	-16.72091	11.27051
5.78859	-16.74289	11.27051
5.79277	-16.74289	11.27051
5.79706	-16.74289	11.27051
5.80127	-16.74289	11.27051
5.80545	-16.74289	11.27051
5.80963	-16.76486	11.27051
5.81382	-16.74289	11.27051
5.81800	-16.74289	11.27051
5.82218	-16.76486	11.27051
5.82661	-16.76486	11.27051
5.83082	-16.76486	11.27051
5.83502	-16.78683	11.27051
5.83920	-16.76486	11.27051
5.84338	-16.76486	11.27051
5.84757	-16.78683	11.27051
5.85175	-16.76486	11.27051
5.85600	-16.76486	11.27051
5.86027	-16.78683	11.27051
5.86446	-16.78683	11.27051
5.86865	-16.78683	11.27051
5.87293	-16.78683	11.27051
5.87712	-16.78683	11.27051
5.88130	-16.80881	11.27051
5.88553	-16.80881	11.27051
5.88981	-16.78683	11.27051
5.89401	-16.80881	11.27051
5.89820	-16.78683	11.27051
5.90238	-16.78683	11.27051
5.90656	-16.78683	11.27051
5.91074	-16.80881	11.27051
5.91494	-16.78683	11.27051
5.91923	-16.80881	11.27051
5.92343	-16.78683	11.27051
5.92761	-16.78683	11.27051
5.93179	-16.80881	11.27051
5.93598	-16.80881	11.27051
5.94016	-16.78683	11.27051
5.94434	-16.80881	11.27051
5.94875	-16.78683	11.27051
5.95296	-16.80881	11.27051
5.95714	-16.78683	11.27051
5.96132	-16.78683	11.27051
5.96551	-16.78683	11.27051
5.96969	-16.80881	11.27051
5.97397	-16.78683	11.27051
5.97822	-16.80881	11.27051
5.98249	-16.78683	11.27051
5.98669	-16.78683	11.27051
5.99087	-16.78683	11.27051
5.99503	-16.78683	11.27051
5.99921	-16.78683	11.27051
6.00340	-16.78683	11.27051
6.00763	-16.76486	11.27051
6.01191	-16.78683	11.27051
6.01611	-16.78683	11.27051
6.02029	-16.76486	11.27051
6.02447	-16.76486	11.27051
6.02866	-16.76486	11.27051
6.03284	-16.76486	11.27051
6.03702	-16.76486	11.27051
6.04131	-16.76486	11.27051
6.04552	-16.74289	11.27051
6.04970	-16.76486	11.27051
6.05388	-16.74289	11.27051
6.05807	-16.74289	11.27051
6.06225	-16.74289	11.27051
6.06644	-16.74289	11.27051
6.07086	-16.74289	11.27051
6.07516	-16.74289	11.27051
6.07934	-16.72091	11.27051
6.08352	-16.74289	11.27051
6.08771	-16.74289	11.27051
6.09189	-16.72091	11.27051
6.09607	-16.72091	11.27051
6.10032	-16.72091	11.27051
6.10458	-16.69894	11.27051
6.10878	-16.72091	11.27051
6.11300	-16.69894	11.27051
6.11721	-16.69894	11.27051
6.12140	-16.69894	11.27051
6.12558	-16.69894	11.27051
6.12985	-16.67697	11.27051
6.13419	-16.69894	11.27051
6.13841	-16.67697	11.27051
6.14260	-16.67697	11.27051
6.14686	-16.67697	11.27051
6.15104	-16.67697	11.27051
6.15523	-16.65500	11.27051
6.15941	-16.65500	11.27051
6.16378	-16.65500	11.27051
6.16798	-16.65500	11.27051
6.17218	-16.65500	11.27051
6.17649	-16.63302	11.27051
6.18068	-16.63302	11.27051
6.18487	-16.63302	11.27051
6.18906	-16.63302	11.27051
6.19357	-16.63302	11.27051
6.19779	-16.61105	11.27051
6.20198	-16.61105	11.27051
6.20617	-16.61105	11.27051
6.21036	-16.58908	11.27051
6.21455	-16.58908	11.27051
6.21873	-16.58908	11.27051
6.22301	-16.58908	11.27051
6.22727	-16.58908	11.27051
6.23147	-16.58908	11.27051
6.23566	-16.56711	11.27051
6.23984	-16.56711	11.27051
6.24402	-16.56711	11.27051
6.24821	-16.54513	11.27051
6.25246	-16.54513	11.27051
6.25674	-16.54513	11.27051
6.26094	-16.52316	11.27051
6.26513	-16.54513	11.27051
6.26931	-16.52316	11.27051
6.27350	-16.52316	11.27051
6.27779	-16.52316	11.27051
6.28197	-16.52316	11.27051
6.28626	-16.50119	11.27051
6.29047	-16.50119	11.27051
6.29465	-16.47922	11.27051
6.29884	-16.47922	11.27051
6.30302	-16.47922	11.27051
6.30721	-16.47922	11.27051
6.31139	-16.45724	11.27051
6.31579	-16.45724	11.27051
6.32000	-16.45724	11.27051
6.32419	-16.45724	11.27051
6.32837	-16.45724	11.27051
6.33256	-16.43527	11.27051
6.33674	-16.43527	11.27051
6.34092	-16.43527	11.27051
6.34518	-16.41330	11.27051
6.34945	-16.41330	11.27051
6.35364	-16.39132	11.27051
6.35782	-16.39132	11.27051
6.36201	-16.41330	11.27051
6.36619	-16.39132	11.27051
6.37037	-16.36935	11.27051
6.37462	-16.36935	11.27051
6.37902	-16.36935	11.27051
6.38322	-16.36935	11.27051
6.38740	-16.34738	11.27051
6.39158	-16.34738	11.27051
6.39577	-16.32541	11.27051
6.39996	-16.32541	11.27051
6.40414	-16.32541	11.27051
6.40844	-16.32541	11.27051
6.41264	-16.32541	11.27051
6.41682	-16.30343	11.27051
6.42101	-16.30343	11.27051
6.42519	-16.28146	11.27051
6.42937	-16.28146	11.27051
6.43355	-16.28146	11.27051
6.43798	-16.28146	11.27051
6.44219	-16.25949	11.27051
6.44637	-16.25949	11.27051
6.45057	-16.23752	11.27051
6.45475	-16.23752	11.27051
6.45894	-16.23752	11.27051
6.46312	-16.23752	11.27051
6.46738	-16.21554	11.27051
6.47165	-16.21554	11.27051
6.47584	-16.19357	11.27051
6.48013	-16.19357	11.27051
6.48432	-16.19357	11.27051
6.48850	-16.17160	11.27051
6.49270	-16.17160	11.27051
6.49703	-16.17160	11.27051
6.50132	-16.17160	11.27051
6.50553	-16.14963	11.27051
6.50971	-16.14963	11.27051
6.51390	-16.14963	11.27051
6.51808	-16.12765	11.27051
6.52227	-16.12765	11.27051
6.52645	-16.12765	11.27051
6.53075	-16.12765	11.27051
6.53496	-16.10568	11.27051
6.53915	-16.10568	11.27051
6.54333	-16.10568	11.27051
6.54752	-16.08371	11.27051
6.55171	-16.08371	11.27051
6.55589	-16.08371	11.27051
6.56029	-16.06173	11.27051
6.56450	-16.06173	11.27051
6.56869	-16.06173	11.27051
6.57287	-16.03976	11.27051
6.57706	-16.03976	11.27051
6.58134	-16.01779	11.27051
6.58553	-16.01779	11.27051
6.58978	-16.01779	11.27051
6.59404	-16.01779	11.27051
6.59824	-16.01779	11.27051
6.60243	-15.99582	11.27051
6.60661	-15.99582	11.27051
6.61080	-15.99582	11.27051
6.61499	-15.97384	11.27051
6.61923	-15.97384	11.27051
6.62351	-15.95187	11.27051
6.62771	-15.97384	11.27051
6.63189	-15.92990	11.27051
6.63608	-15.92990	11.27051
6.64026	-15.92990	11.27051
6.64444	-15.92990	11.27051
6.64863	-15.92990	11.27051
6.65292	-15.92990	11.27051
6.65712	-15.90793	11.27051
6.66131	-15.90793	11.27051
6.66549	-15.88595	11.27051
6.66968	-15.88595	11.27051
6.67386	-15.88595	11.27051
6.67805	-15.88595	11.27051
6.68257	-15.86398	11.27051
6.68678	-15.86398	11.27051
6.69097	-15.84201	11.27051
6.69515	-15.84201	11.27051
6.69934	-15.84201	11.27051
6.70352	-15.84201	11.27051
6.70771	-15.82004	11.27051
6.71197	-15.82004	11.27051
6.71622	-15.79806	11.27051
6.72041	-15.79806	11.27051
6.72460	-15.79806	11.27051
6.72878	-15.79806	11.27051
6.73297	-15.79806	11.27051
6.73715	-15.79806	11.27051
6.74140	-15.77609	11.27051
6.74566	-15.77609	11.27051
6.74987	-15.75412	11.27051
6.75407	-15.75412	11.27051
6.75826	-15.75412	11.27051
6.76245	-15.73214	11.27051
6.76663	-15.75412	11.27051
6.77081	-15.73214	11.27051
6.77512	-15.71017	11.27051
6.77933	-15.71017	11.27051
6.78362	-15.71017	11.27051
6.78780	-15.71017	11.27051
6.79199	-15.71017	11.27051
6.79617	-15.71017	11.27051
6.80035	-15.68820	11.27051
6.80475	-15.68820	11.27051
6.80896	-15.68820	11.27051
6.81316	-15.66623	11.27051
6.81734	-15.66623	11.27051
6.82153	-15.66623	11.27051
6.82571	-15.66623	11.27051
6.82990	-15.66623	11.27051
6.83416	-15.64425	11.27051
6.83840	-15.64425	11.27051
6.84260	-15.64425	11.27051
6.84678	-15.62228	11.27051
6.85097	-15.62228	11.27051
6.85516	-15.62228	11.27051
6.85934	-15.62228	11.27051
6.86360	-15.62228	11.27051
6.86786	-15.62228	11.27051
6.87206	-15.60031	11.27051
6.87625	-15.60031	11.27051
6.88044	-15.60031	11.27051
6.88472	-15.60031	11.27051
6.88891	-15.60031	11.27051
6.89309	-15.57834	11.27051
6.89738	-15.57834	11.27051
6.90159	-15.57834	11.27051
6.90577	-15.57834	11.27051
6.90996	-15.57834	11.27051
6.91414	-15.57834	11.27051
6.91833	-15.55636	11.27051
6.92251	-15.55636	11.27051
6.92693	-15.55636	11.27051
6.93115	-15.55636	11.27051
6.93534	-15.55636	11.27051
6.93953	-15.55636	11.27051
6.94371	-15.53439	11.27051
6.94789	-15.55636	11.27051
6.95207	-15.53439	11.27051
6.95633	-15.55636	11.27051
6.96057	-15.53439	11.27051
6.96476	-15.53439	11.27051
6.96895	-15.53439	11.27051
6.97313	-15.53439	11.27051
6.97731	-15.53439	11.27051
6.98151	-15.53439	11.27051
6.98592	-15.53439	11.27051
6.99019	-15.53439	11.27051
6.99439	-15.53439	11.27051
6.99859	-15.53439	11.27051
7.00277	-15.53439	11.27051
7.00696	-15.53439	11.27051
7.01117	-15.51242	11.27051
7.01536	-15.51242	11.27051
7.01966	-15.53439	11.27051
7.02388	-15.53439	11.27051
7.02808	-15.51242	11.27051
7.03227	-15.53439	11.27051
7.03645	-15.51242	11.27051
7.04064	-15.53439	11.27051
7.04482	-15.53439	11.27051
7.04923	-15.51242	11.27051
7.05345	-15.53439	11.27051
7.05765	-15.51242	11.27051
7.06184	-15.51242	11.27051
7.06602	-15.53439	11.27051
7.07021	-15.53439	11.27051
7.07440	-15.53439	11.27051
7.07866	-15.53439	11.27051
7.08292	-15.53439	11.27051
7.08722	-15.53439	11.27051
7.09140	-15.53439	11.27051
7.09558	-15.53439	11.27051
7.09977	-15.53439	11.27051
7.10395	-15.53439	11.27051
7.10822	-15.53439	11.27051
7.11257	-15.53439	11.27051
7.11681	-15.53439	11.27051
7.12100	-15.53439	11.27051
7.12519	-15.53439	11.27051
7.12937	-15.53439	11.27051
7.13356	-15.53439	11.27051
7.13775	-15.55636	11.27051
7.14204	-15.53439	11.27051
7.14626	-15.53439	11.27051
7.15046	-15.55636	11.27051
7.15465	-15.55636	11.27051
7.15884	-15.55636	11.27051
7.16303	-15.55636	11.27051
7.16721	-15.55636	11.27051
7.17163	-15.57834	11.27051
7.17584	-15.57834	11.27051
7.18003	-15.57834	11.27051
7.18422	-15.57834	11.27051
7.18851	-15.60031	11.27051
7.19270	-15.57834	11.27051
7.19688	-15.57834	11.27051
7.20121	-15.60031	11.27051
7.20550	-15.60031	11.27051
7.20972	-15.60031	11.27051
7.21393	-15.60031	11.27051
7.21813	-15.60031	11.27051
7.22233	-15.62228	11.27051
7.22653	-15.62228	11.27051
7.23083	-15.62228	11.27051
7.23512	-15.64425	11.27051
7.23934	-15.62228	11.27051
7.24353	-15.64425	11.27051
7.24773	-15.66623	11.27051
7.25192	-15.66623	11.27051
7.25611	-15.66623	11.27051
7.26036	-15.66623	11.27051
7.26467	-15.66623	11.27051
7.26890	-15.66623	11.27051
7.27310	-15.68820	11.27051
7.27728	-15.71017	11.27051
7.28147	-15.71017	11.27051
7.28569	-15.71017	11.27051
7.28998	-15.71017	11.27051
7.29442	-15.73214	11.27051
7.29864	-15.73214	11.27051
7.30283	-15.73214	11.27051
7.30702	-15.75412	11.27051
7.31121	-15.75412	11.27051
7.31539	-15.75412	11.27051
7.31958	-15.77609	11.27051
7.32384	-15.77609	11.27051
7.32809	-15.79806	11.27051
7.33230	-15.79806	11.27051
7.33649	-15.79806	11.27051
7.34068	-15.82004	11.27051
7.34486	-15.82004	11.27051
7.34905	-15.82004	11.27051
7.35331	-15.84201	11.27051
7.35757	-15.84201	11.27051
7.36178	-15.86398	11.27051
7.36597	-15.86398	11.27051
7.37016	-15.88595	11.27051
7.37434	-15.88595	11.27051
7.37853	-15.90793	11.27051
7.38271	-15.90793	11.27051
7.38701	-15.90793	11.27051
7.39133	-15.92990	11.27051
7.39552	-15.92990	11.27051
7.39971	-15.95187	11.27051
7.40390	-15.97384	11.27051
7.40808	-15.97384	11.27051
7.41226	-15.99582	11.27051
7.41668	-15.99582	11.27051
7.42089	-15.99582	11.27051
7.42508	-16.01779	11.27051
7.42926	-16.01779	11.27051
7.43345	-16.03976	11.27051
7.43763	-16.06173	11.27051
7.44182	-16.06173	11.27051
7.44608	-16.06173	11.27051
7.45032	-16.08371	11.27051
7.45452	-16.08371	11.27051
7.45871	-16.10568	11.27051
7.46291	-16.12765	11.27051
7.46711	-16.12765	11.27051
7.47130	-16.12765	11.27051
7.47554	-16.14963	11.27051
7.47981	-16.14963	11.27051
7.48402	-16.17160	11.27051
7.48821	-16.19357	11.27051
7.49253	-16.19357	11.27051
7.49672	-16.21554	11.27051
7.50091	-16.21554	11.27051
7.50510	-16.23752	11.27051
7.50939	-16.25949	11.27051
7.51361	-16.25949	11.27051
7.51781	-16.25949	11.27051
7.52200	-16.25949	11.27051
7.52619	-16.28146	11.27051
7.53038	-16.30343	11.27051
7.53457	-16.32541	11.27051
7.53898	-16.32541	11.27051
7.54320	-16.34738	11.27051
7.54740	-16.34738	11.27051
7.55158	-16.34738	11.27051
7.55577	-16.36935	11.27051
7.55996	-16.39132	11.27051
7.56415	-16.39132	11.27051
7.56840	-16.41330	11.27051
7.57264	-16.41330	11.27051
7.57684	-16.41330	11.27051
7.58102	-16.43527	11.27051
7.58521	-16.43527	11.27051
7.58939	-16.47922	11.27051
7.59368	-16.47922	11.27051
7.59792	-16.47922	11.27051
7.60219	-16.50119	11.27051
7.60639	-16.50119	11.27051
7.61057	-16.52316	11.27051
7.61476	-16.54513	11.27051
7.61895	-16.54513	11.27051
7.62314	-16.54513	11.27051
7.62732	-16.56711	11.27051
7.63160	-16.58908	11.27051
7.63581	-16.58908	11.27051
7.64000	-16.61105	11.27051
7.64418	-16.61105	11.27051
7.64837	-16.61105	11.27051
7.65255	-16.63302	11.27051
7.65673	-16.65500	11.27051
7.66116	-16.65500	11.27051
7.66537	-16.67697	11.27051
7.66956	-16.67697	11.27051
7.67374	-16.69894	11.27051
7.67792	-16.69894	11.27051
7.68211	-16.72091	11.27051
7.68629	-16.72091	11.27051
7.69055	-16.74289	11.27051
7.69494	-16.74289	11.27051
7.69914	-16.76486	11.27051
7.70333	-16.76486	11.27051
7.70751	-16.76486	11.27051
7.71169	-16.78683	11.27051
7.71587	-16.80881	11.27051
7.72012	-16.80881	11.27051
7.72440	-16.83078	11.27051
7.72860	-16.83078	11.27051
7.73278	-16.83078	11.27051
7.73696	-16.85275	11.27051
7.74115	-16.85275	11.27051
7.74533	-16.87472	11.27051
7.74951	-16.89670	11.27051
7.75381	-16.89670	11.27051
7.75801	-16.89670	11.27051
7.76220	-16.91867	11.27051
7.76639	-16.91867	11.27051
7.77057	-16.91867	11.27051
7.77475	-16.94064	11.27051
7.77894	-16.96261	11.27051
7.78337	-16.96261	11.27051
7.78757	-16.98459	11.27051
7.79176	-16.98459	11.27051
7.79604	-17.00656	11.27051
7.80023	-17.00656	11.27051
7.80441	-17.02853	11.27051
7.80859	-17.02853	11.27051
7.81285	-17.02853	11.27051
7.81712	-17.02853	11.27051
7.82131	-17.05050	11.27051
7.82550	-17.07248	11.27051
7.82968	-17.07248	11.27051
7.83386	-17.07248	11.27051
7.83805	-17.09445	11.27051
7.84229	-17.09445	11.27051
7.84657	-17.11642	11.27051
7.85077	-17.11642	11.27051
7.85497	-17.13839	11.27051
7.85915	-17.13839	11.27051
7.86333	-17.13839	11.27051
7.86751	-17.16037	11.27051
7.87170	-17.16037	11.27051
7.87599	-17.16037	11.27051
7.88019	-17.18234	11.27051
7.88438	-17.18234	11.27051
7.88856	-17.18234	11.27051
7.89274	-17.20431	11.27051
7.89703	-17.20431	11.27051
7.90121	-17.22629	11.27051
7.90565	-17.22629	11.27051
7.90985	-17.22629	11.27051
7.91404	-17.22629	11.27051
7.91823	-17.24826	11.27051
7.92241	-17.24826	11.27051
7.92659	-17.27023	11.27051
7.93077	-17.27023	11.27051
7.93504	-17.29220	11.27051
7.93931	-17.29220	11.27051
7.94350	-17.29220	11.27051
7.94768	-17.29220	11.27051
7.95187	-17.31418	11.27051
7.95605	-17.31418	11.27051
7.96023	-17.31418	11.27051
7.96448	-17.31418	11.27051
7.96876	-17.33615	11.27051
7.97296	-17.31418	11.27051
7.97714	-17.33615	11.27051
7.98133	-17.33615	11.27051
7.98551	-17.35812	11.27051
7.98969	-17.35812	11.27051
7.99387	-17.35812	11.27051
7.99829	-17.35812	11.27051
8.00249	-17.38009	11.27051
8.00668	-17.38009	11.27051
8.01086	-17.38009	11.27051
8.01503	-17.38009	11.27051
8.01921	-17.38009	11.27051
8.02340	-17.38009	11.27051
8.02778	-17.40207	11.27051
8.03200	-17.38009	11.27051
8.03618	-17.40207	11.27051
8.04037	-17.40207	11.27051
8.04455	-17.40207	11.27051
8.04873	-17.42404	11.27051
8.05291	-17.42404	11.27051
8.05716	-17.40207	11.27051
8.06142	-17.42404	11.27051
8.06562	-17.42404	11.27051
8.06981	-17.42404	11.27051
8.07399	-17.42404	11.27051
8.07818	-17.42404	11.27051
8.08236	-17.42404	11.27051
8.08660	-17.44601	11.27051
8.09088	-17.42404	11.27051
8.09504	-17.42404	11.27051
8.09933	-17.44601	11.27051
8.10351	-17.42404	11.27051
8.10770	-17.44601	11.27051
8.11190	-17.44601	11.27051
8.11609	-17.44601	11.27051
8.12039	-17.44601	11.27051
8.12458	-17.44601	11.27051
8.12877	-17.44601	11.27051
8.13295	-17.44601	11.27051
8.13714	-17.44601	11.27051
8.14132	-17.44601	11.27051
8.14550	-17.44601	11.27051
8.14992	-17.44601	11.27051
8.15413	-17.44601	11.27051
8.15831	-17.44601	11.27051
8.16250	-17.42404	11.27051
8.16670	-17.44601	11.27051
8.17091	-17.42404	11.27051
8.17511	-17.42404	11.27051
8.17954	-17.42404	11.27051
8.18382	-17.44601	11.27051
8.18802	-17.42404	11.27051
8.19221	-17.44601	11.27051
8.19643	-17.42404	11.27051
8.20073	-17.42404	11.27051
8.20492	-17.42404	11.27051
8.20918	-17.42404	11.27051
8.21352	-17.42404	11.27051
8.21772	-17.42404	11.27051
8.22191	-17.42404	11.27051
8.22610	-17.42404	11.27051
8.23030	-17.40207	11.27051
8.23449	-17.40207	11.27051
8.23868	-17.40207	11.27051
8.24300	-17.40207	11.27051
8.24721	-17.38009	11.27051
8.25140	-17.40207	11.27051
8.25558	-17.40207	11.27051
8.25977	-17.38009	11.27051
8.26396	-17.38009	11.27051
8.26815	-17.38009	11.27051
8.27258	-17.38009	11.27051
8.27679	-17.38009	11.27051
8.28098	-17.35812	11.27051
8.28517	-17.35812	11.27051
8.28935	-17.35812	11.27051
8.29354	-17.35812	11.27051
8.29772	-17.33615	11.27051
8.30212	-17.35812	11.27051
8.30636	-17.33615	11.27051
8.31055	-17.33615	11.27051
8.31474	-17.33615	11.27051
8.31893	-17.31418	11.27051
8.32312	-17.31418	11.27051
8.32730	-17.31418	11.27051
8.33155	-17.29220	11.27051
8.33586	-17.29220	11.27051
8.34007	-17.29220	11.27051
8.34427	-17.29220	11.27051
8.34845	-17.29220	11.27051
8.35264	-17.27023	11.27051
8.35683	-17.27023	11.27051
8.36103	-17.27023	11.27051
8.36534	-17.24826	11.27051
8.36956	-17.24826	11.27051
8.37375	-17.22629	11.27051
8.37794	-17.22629	11.27051
8.38214	-17.22629	11.27051
8.38633	-17.22629	11.27051
8.39053	-17.20431	11.27051
8.39501	-17.20431	11.27051
8.39925	-17.18234	11.27051
8.40356	-17.16037	11.27051
8.40775	-17.16037	11.27051
8.41194	-17.16037	11.27051
8.41613	-17.16037	11.27051
8.42032	-17.13839	11.27051
8.42461	-17.13839	11.27051
8.42887	-17.11642	11.27051
8.43310	-17.11642	11.27051
8.43729	-17.09445	11.27051
8.44148	-17.09445	11.27051
8.44567	-17.09445	11.27051
8.44985	-17.07248	11.27051
8.45411	-17.07248	11.27051
8.45838	-17.05050	11.27051
8.46259	-17.02853	11.27051
8.46678	-17.02853	11.27051
8.47098	-17.02853	11.27051
8.47518	-17.00656	11.27051
8.47936	-17.00656	11.27051
8.48355	-16.98459	11.27051
8.48784	-16.98459	11.27051
8.49208	-16.96261	11.27051
8.49628	-16.96261	11.27051
8.50046	-16.94064	11.27051
8.50475	-16.94064	11.27051
8.50894	-16.91867	11.27051
8.51312	-16.91867	11.27051
8.51753	-16.89670	11.27051
8.52174	-16.89670	11.27051
8.52593	-16.89670	11.27051
8.53012	-16.87472	11.27051
8.53432	-16.85275	11.27051
8.53852	-16.85275	11.27051
8.54271	-16.83078	11.27051
8.54700	-16.83078	11.27051
8.55127	-16.83078	11.27051
8.55547	-16.80881	11.27051
8.55965	-16.78683	11.27051
8.56387	-16.78683	11.27051
8.56806	-16.76486	11.27051
8.57224	-16.76486	11.27051
8.57650	-16.74289	11.27051
8.58078	-16.74289	11.27051
8.58498	-16.72091	11.27051
8.58917	-16.72091	11.27051
8.59335	-16.69894	11.27051
8.59753	-16.67697	11.27051
8.60172	-16.67697	11.27051
8.60600	-16.65500	11.27051
8.61030	-16.65500	11.27051
8.61450	-16.63302	11.27051
8.61869	-16.63302	11.27051
8.62288	-16.61105	11.27051
8.62703	-16.61105	11.27051
8.63121	-16.58908	11.27051
8.63541	-16.58908	11.27051
8.63985	-16.56711	11.27051
8.64407	-16.54513	11.27051
8.64826	-16.54513	11.27051
8.65245	-16.52316	11.27051
8.65663	-16.52316	11.27051
8.66082	-16.50119	11.27051
8.66500	-16.47922	11.27051
8.66926	-16.47922	11.27051
8.67353	-16.45724	11.27051
8.67773	-16.45724	11.27051
8.68192	-16.43527	11.27051
8.68611	-16.43527	11.27051
8.69029	-16.41330	11.27051
8.69448	-16.41330	11.27051
8.69872	-16.39132	11.27051
8.70302	-16.36935	11.27051
8.70732	-16.36935	11.27051
8.71151	-16.34738	11.27051
8.71569	-16.34738	11.27051
8.71988	-16.32541	11.27051
8.72406	-16.30343	11.27051
8.72825	-16.30343	11.27051
8.73254	-16.30343	11.27051
8.73676	-16.28146	11.27051
8.74096	-16.25949	11.27051
8.74514	-16.25949	11.27051
8.74933	-16.23752	11.27051
8.75351	-16.21554	11.27051
8.75770	-16.21554	11.27051
8.76211	-16.21554	11.27051
8.76633	-16.19357	11.27051
8.77051	-16.17160	11.27051
8.77470	-16.14963	11.27051
8.77888	-16.14963	11.27051
8.78303	-16.12765	11.27051
8.78721	-16.12765	11.27051
8.79147	-16.12765	11.27051
8.79575	-16.10568	11.27051
8.79995	-16.08371	11.27051
8.80413	-16.08371	11.27051
8.80842	-16.06173	11.27051
8.81260	-16.06173	11.27051
8.81679	-16.06173	11.27051
8.82103	-16.03976	11.27051
8.82530	-16.01779	11.27051
8.82951	-16.01779	11.27051
8.83371	-15.99582	11.27051
8.83791	-15.97384	11.27051
8.84210	-15.97384	11.27051
8.84629	-15.95187	11.27051
8.85047	-15.95187	11.27051
8.85477	-15.92990	11.27051
8.85900	-15.92990	11.27051
8.86319	-15.90793	11.27051
8.86739	-15.90793	11.27051
8.87157	-15.88595	11.27051
8.87576	-15.88595	11.27051
8.87994	-15.86398	11.27051
8.88441	-15.86398	11.27051
8.88862	-15.86398	11.27051
8.89281	-15.84201	11.27051
8.89700	-15.82004	11.27051
8.90119	-15.82004	11.27051
8.90538	-15.79806	11.27051
8.90967	-15.79806	11.27051
8.91394	-15.77609	11.27051
8.91821	-15.77609	11.27051
8.92240	-15.77609	11.27051
8.92659	-15.75412	11.27051
8.93078	-15.75412	11.27051
8.93500	-15.73214	11.27051
8.93918	-15.71017	11.27051
8.94345	-15.71017	11.27051
8.94774	-15.71017	11.27051
8.95195	-15.71017	11.27051
8.95613	-15.68820	11.27051
8.96032	-15.68820	11.27051
8.96450	-15.66623	11.27051
8.96870	-15.66623	11.27051
8.97288	-15.66623	11.27051
8.97718	-15.64425	11.27051
8.98140	-15.64425	11.27051
8.98559	-15.62228	11.27051
8.98978	-15.62228	11.27051
8.99396	-15.62228	11.27051
8.99814	-15.62228	11.27051
9.00233	-15.60031	11.27051
9.00674	-15.60031	11.27051
9.01107	-15.57834	11.27051
9.01525	-15.57834	11.27051
9.01944	-15.57834	11.27051
9.02364	-15.57834	11.27051
9.02782	-15.55636	11.27051
9.03201	-15.53439	11.27051
9.03629	-15.53439	11.27051
9.04056	-15.53439	11.27051
9.04476	-15.53439	11.27051
9.04895	-15.51242	11.27051
9.05314	-15.51242	11.27051
9.05732	-15.51242	11.27051
9.06150	-15.49045	11.27051
9.06576	-15.49045	11.27051
9.07004	-15.49045	11.27051
9.07424	-15.49045	11.27051
9.07843	-15.46847	11.27051
9.08261	-15.46847	11.27051
9.08680	-15.46847	11.27051
9.09099	-15.46847	11.27051
9.09518	-15.44650	11.27051
9.09947	-15.44650	11.27051
9.10367	-15.44650	11.27051
9.10786	-15.42453	11.27051
9.11217	-15.42453	11.27051
9.11637	-15.42453	11.27051
9.12056	-15.42453	11.27051
9.12474	-15.40256	11.27051
9.12905	-15.40256	11.27051
9.13328	-15.40256	11.27051
9.13749	-15.40256	11.27051
9.14168	-15.38058	11.27051
9.14587	-15.40256	11.27051
9.15006	-15.38058	11.27051
9.15425	-15.38058	11.27051
9.15852	-15.38058	11.27051
9.16276	-15.38058	11.27051
9.16697	-15.38058	11.27051
9.17115	-15.38058	11.27051
9.17534	-15.35861	11.27051
9.17952	-15.35861	11.27051
9.18370	-15.35861	11.27051
9.18795	-15.35861	11.27051
9.19221	-15.35861	11.27051
9.19642	-15.35861	11.27051
9.20060	-15.33664	11.27051
9.20479	-15.33664	11.27051
9.20897	-15.33664	11.27051
9.21326	-15.33664	11.27051
9.21744	-15.33664	11.27051
9.22173	-15.33664	11.27051
9.22594	-15.33664	11.27051
9.23013	-15.33664	11.27051
9.23433	-15.33664	11.27051
9.23853	-15.31466	11.27051
9.24272	-15.33664	11.27051
9.24691	-15.31466	11.27051
9.25132	-15.31466	11.27051
9.25554	-15.31466	11.27051
9.25972	-15.31466	11.27051
9.26391	-15.31466	11.27051
9.26809	-15.31466	11.27051
9.27228	-15.31466	11.27051
9.27646	-15.31466	11.27051
9.28073	-15.31466	11.27051
9.28497	-15.31466	11.27051
9.28916	-15.31466	11.27051
9.29335	-15.31466	11.27051
9.29753	-15.31466	11.27051
9.30171	-15.31466	11.27051
9.30590	-15.31466	11.27051
9.31014	-15.31466	11.27051
9.31450	-15.31466	11.27051
9.31871	-15.31466	11.27051
9.32291	-15.31466	11.27051
9.32709	-15.31466	11.27051
9.33128	-15.31466	11.27051
9.33548	-15.31466	11.27051
9.33967	-15.31466	11.27051
9.34396	-15.31466	11.27051
9.34818	-15.31466	11.27051
9.35238	-15.31466	11.27051
9.35657	-15.31466	11.27051
9.36075	-15.31466	11.27051
9.36494	-15.33664	11.27051
9.36912	-15.33664	11.27051
9.37351	-15.33664	11.27051
9.37774	-15.31466	11.27051
9.38193	-15.33664	11.27051
9.38611	-15.33664	11.27051
9.39030	-15.33664	11.27051
9.39448	-15.33664	11.27051
9.39867	-15.33664	11.27051
9.40323	-15.33664	11.27051
9.40754	-15.33664	11.27051
9.41179	-15.33664	11.27051
9.41614	-15.33664	11.27051
9.42035	-15.35861	11.27051
9.42455	-15.35861	11.27051
9.42874	-15.35861	11.27051
9.43301	-15.35861	11.27051
9.43734	-15.35861	11.27051
9.44160	-15.35861	11.27051
9.44582	-15.38058	11.27051
9.45003	-15.38058	11.27051
9.45422	-15.38058	11.27051
9.45840	-15.38058	11.27051
9.46259	-15.38058	11.27051
9.46691	-15.38058	11.27051
9.47112	-15.38058	11.27051
9.47529	-15.38058	11.27051
9.47945	-15.38058	11.27051
9.48362	-15.40256	11.27051
9.48778	-15.40256	11.27051
9.49194	-15.40256	11.27051
9.49635	-15.40256	11.27051
9.50053	-15.40256	11.27051
9.50469	-15.42453	11.27051
9.50885	-15.42453	11.27051
9.51302	-15.42453	11.27051
9.51727	-15.42453	11.27051
9.52144	-15.42453	11.27051
9.52571	-15.44650	11.27051
9.52995	-15.44650	11.27051
9.53418	-15.44650	11.27051
9.53835	-15.44650	11.27051
9.54252	-15.44650	11.27051
9.54669	-15.44650	11.27051
9.55085	-15.46847	11.27051
9.55507	-15.46847	11.27051
9.55932	-15.46847	11.27051
9.56351	-15.49045	11.27051
9.56769	-15.49045	11.27051
9.57188	-15.49045	11.27051
9.57607	-15.49045	11.27051
9.58025	-15.49045	11.27051
9.58444	-15.49045	11.27051
9.58873	-15.51242	11.27051
9.59293	-15.51242	11.27051
9.59712	-15.51242	11.27051
9.60131	-15.51242	11.27051
9.60549	-15.51242	11.27051
9.60968	-15.51242	11.27051
9.61386	-15.53439	11.27051
9.61827	-15.53439	11.27051
9.62249	-15.55636	11.27051
9.62668	-15.55636	11.27051
9.63087	-15.55636	11.27051
9.63505	-15.55636	11.27051
9.63925	-15.55636	11.27051
9.64344	-15.55636	11.27051
9.64770	-15.57834	11.27051
9.65198	-15.57834	11.27051
9.65617	-15.57834	11.27051
9.66036	-15.60031	11.27051
9.66455	-15.60031	11.27051
9.66873	-15.60031	11.27051
9.67293	-15.62228	11.27051
9.67717	-15.62228	11.27051
9.68145	-15.62228	11.27051
9.68566	-15.62228	11.27051
9.68985	-15.62228	11.27051
9.69404	-15.64425	11.27051
9.69822	-15.64425	11.27051
9.70241	-15.66623	11.27051
9.70660	-15.66623	11.27051
9.71090	-15.66623	11.27051
9.71511	-15.68820	11.27051
9.71940	-15.68820	11.27051
9.72359	-15.68820	11.27051
9.72777	-15.71017	11.27051
9.73197	-15.71017	11.27051
9.73617	-15.71017	11.27051
9.74061	-15.71017	11.27051
9.74483	-15.73214	11.27051
9.74903	-15.73214	11.27051
9.75322	-15.75412	11.27051
9.75741	-15.77609	11.27051
9.76159	-15.77609	11.27051
9.76578	-15.77609	11.27051
9.77004	-15.77609	11.27051
9.77431	-15.79806	11.27051
9.77850	-15.79806	11.27051
9.78270	-15.79806	11.27051
9.78688	-15.82004	11.27051
9.79103	-15.82004	11.27051
9.79522	-15.84201	11.27051
9.79949	-15.84201	11.27051
9.80376	-15.86398	11.27051
9.80796	-15.86398	11.27051
9.81216	-15.86398	11.27051
9.81634	-15.86398	11.27051
9.82063	-15.88595	11.27051
9.82482	-15.88595	11.27051
9.82900	-15.90793	11.27051
9.83330	-15.90793	11.27051
9.83753	-15.92990	11.27051
9.84172	-15.92990	11.27051
9.84592	-15.92990	11.27051
9.85011	-15.95187	11.27051
9.85430	-15.95187	11.27051
9.85849	-15.97384	11.27051
9.86294	-15.97384	11.27051
9.86715	-15.97384	11.27051
9.87136	-15.97384	11.27051
9.87554	-15.99582	11.27051
9.87974	-16.01779	11.27051
9.88393	-16.01779	11.27051
9.88812	-16.01779	11.27051
9.89238	-16.03976	11.27051
9.89666	-16.03976	11.27051
9.90086	-16.03976	11.27051
9.90504	-16.06173	11.27051
9.90923	-16.06173	11.27051
9.91342	-16.08371	11.27051
9.91760	-16.08371	11.27051
9.92196	-16.08371	11.27051
9.92623	-16.08371	11.27051
9.93044	-16.12765	11.27051
9.93468	-16.12765	11.27051
9.93887	-16.12765	11.27051
9.94304	-16.14963	11.27051
9.94723	-16.14963	11.27051
9.95142	-16.14963	11.27051
9.95571	-16.17160	11.27051
9.95992	-16.17160	11.27051
9.96411	-16.17160	11.27051
9.96829	-16.19357	11.27051
9.97248	-16.19357	11.27051
9.97667	-16.19357	11.27051
9.98085	-16.21554	11.27051
9.98526	-16.21554	11.27051
9.98947	-16.23752	11.27051
9.99365	-16.23752	11.27051
9.99784	-16.25949	11.27051
10.00203	-16.25949	11.27051
10.00621	-16.28146	11.27051
10.01040	-16.25949	11.27051
10.01466	-16.28146	11.27051
10.01894	-16.28146	11.27051
10.02324	-16.30343	11.27051
10.02742	-16.30343	11.27051
10.03161	-16.30343	11.27051
10.03581	-16.32541	11.27051
10.04001	-16.32541	11.27051
10.04427	-16.32541	11.27051
10.04856	-16.34738	11.27051
10.05276	-16.34738	11.27051
10.05695	-16.34738	11.27051
10.06114	-16.36935	11.27051
10.06536	-16.39132	11.27051
10.06956	-16.39132	11.27051
10.07374	-16.41330	11.27051
10.07810	-16.41330	11.27051
10.08233	-16.41330	11.27051
10.08653	-16.43527	11.27051
10.09073	-16.43527	11.27051
10.09493	-16.43527	11.27051
10.09912	-16.45724	11.27051
10.10331	-16.45724	11.27051
10.10787	-16.47922	11.27051
10.11218	-16.47922	11.27051
10.11642	-16.47922	11.27051
10.12063	-16.50119	11.27051
10.12495	-16.50119	11.27051
10.12915	-16.50119	11.27051
10.13334	-16.52316	11.27051
10.13764	-16.52316	11.27051
10.14192	-16.52316	11.27051
10.14613	-16.54513	11.27051
10.15032	-16.54513	11.27051
10.15451	-16.56711	11.27051
10.15871	-16.56711	11.27051
10.16290	-16.56711	11.27051
10.16716	-16.58908	11.27051
10.17145	-16.58908	11.27051
10.17566	-16.58908	11.27051
10.17985	-16.61105	11.27051
10.18404	-16.61105	11.27051
10.18823	-16.63302	11.27051
10.19242	-16.63302	11.27051
10.19661	-16.63302	11.27051
10.20092	-16.63302	11.27051
10.20513	-16.65500	11.27051
10.20932	-16.65500	11.27051
10.21351	-16.65500	11.27051
10.21770	-16.67697	11.27051
10.22189	-16.67697	11.27051
10.22619	-16.67697	11.27051
10.23061	-16.69894	11.27051
10.23482	-16.69894	11.27051
10.23903	-16.72091	11.27051
10.24322	-16.72091	11.27051
10.24741	-16.72091	11.27051
10.25160	-16.74289	11.27051
10.25579	-16.74289	11.27051
10.26009	-16.74289	11.27051
10.26437	-16.76486	11.27051
10.26871	-16.76486	11.27051
10.27292	-16.76486	11.27051
10.27711	-16.76486	11.27051
10.28130	-16.76486	11.27051
10.28548	-16.78683	11.27051
10.28973	-16.78683	11.27051
10.29401	-16.78683	11.27051
10.29823	-16.78683	11.27051
10.30242	-16.80881	11.27051
10.30660	-16.80881	11.27051
10.31079	-16.83078	11.27051
10.31498	-16.83078	11.27051
10.31916	-16.83078	11.27051
10.32346	-16.85275	11.27051
10.32778	-16.85275	11.27051
10.33197	-16.85275	11.27051
10.33615	-16.85275	11.27051
10.34034	-16.85275	11.27051
10.34452	-16.87472	11.27051
10.34871	-16.87472	11.27051
10.35313	-16.87472	11.27051
10.35734	-16.87472	11.27051
10.36154	-16.89670	11.27051
10.36573	-16.89670	11.27051
10.36992	-16.89670	11.27051
10.37411	-16.89670	11.27051
10.37831	-16.89670	11.27051
10.38262	-16.89670	11.27051
10.38691	-16.91867	11.27051
10.39111	-16.91867	11.27051
10.39530	-16.94064	11.27051
10.39949	-16.91867	11.27051
10.40369	-16.91867	11.27051
10.40788	-16.94064	11.27051
10.41212	-16.94064	11.27051
10.41640	-16.94064	11.27051
10.42060	-16.94064	11.27051
10.42479	-16.94064	11.27051
10.42910	-16.94064	11.27051
10.43329	-16.96261	11.27051
10.43748	-16.96261	11.27051
10.44167	-16.96261	11.27051
10.44597	-16.96261	11.27051
10.45018	-16.96261	11.27051
10.45438	-16.96261	11.27051
10.45857	-16.98459	11.27051
10.46276	-16.98459	11.27051
10.46695	-16.98459	11.27051
10.47114	-17.00656	11.27051
10.47555	-16.98459	11.27051
10.47977	-16.98459	11.27051
10.48396	-16.98459	11.27051
10.48815	-16.98459	11.27051
10.49234	-17.00656	11.27051
10.49653	-17.00656	11.27051
10.50072	-17.00656	11.27051
10.50501	-17.00656	11.27051
10.50928	-17.00656	11.27051
10.51349	-17.00656	11.27051
10.51768	-17.00656	11.27051
10.52187	-17.00656	11.27051
10.52606	-17.02853	11.27051
10.53036	-17.02853	11.27051
10.53460	-17.02853	11.27051
10.53889	-17.02853	11.27051
10.54310	-17.02853	11.27051
10.54728	-17.02853	11.27051
10.55147	-17.05050	11.27051
10.55565	-17.02853	11.27051
10.55984	-17.02853	11.27051
10.56402	-17.02853	11.27051
10.56832	-17.02853	11.27051
10.57253	-17.02853	11.27051
10.57671	-17.05050	11.27051
10.58090	-17.05050	11.27051
10.58509	-17.05050	11.27051
10.58927	-17.05050	11.27051
10.59346	-17.05050	11.27051
10.59786	-17.05050	11.27051
10.60208	-17.05050	11.27051
10.60628	-17.05050	11.27051
10.61047	-17.05050	11.27051
10.61466	-17.05050	11.27051
10.61885	-17.05050	11.27051
10.62303	-17.05050	11.27051
10.62734	-17.05050	11.27051
10.63170	-17.05050	11.27051
10.63590	-17.07248	11.27051
10.64009	-17.05050	11.27051
10.64428	-17.05050	11.27051
10.64846	-17.07248	11.27051
10.65264	-17.05050	11.27051
10.65688	-17.07248	11.27051
10.66114	-17.07248	11.27051
10.66535	-17.07248	11.27051
10.66954	-17.05050	11.27051
10.67372	-17.07248	11.27051
10.67791	-17.05050	11.27051
10.68209	-17.07248	11.27051
10.68627	-17.05050	11.27051
10.69056	-17.05050	11.27051
10.69477	-17.05050	11.27051
10.69897	-17.07248	11.27051
10.70315	-17.05050	11.27051
10.70734	-17.07248	11.27051
10.71152	-17.05050	11.27051
10.71571	-17.07248	11.27051
10.72010	-17.07248	11.27051
10.72432	-17.05050	11.27051
10.72851	-17.05050	11.27051
10.73282	-17.07248	11.27051
10.73701	-17.05050	11.27051
10.74120	-17.07248	11.27051
10.74539	-17.05050	11.27051
10.74969	-17.05050	11.27051
10.75394	-17.05050	11.27051
10.75813	-17.05050	11.27051
10.76232	-17.05050	11.27051
10.76651	-17.05050	11.27051
10.77069	-17.05050	11.27051
10.77487	-17.02853	11.27051
10.77910	-17.05050	11.27051
10.78336	-17.02853	11.27051
10.78755	-17.05050	11.27051
10.79174	-17.05050	11.27051
10.79592	-17.02853	11.27051
10.80011	-17.02853	11.27051
10.80430	-17.02853	11.27051
10.80848	-17.02853	11.27051
10.81276	-17.02853	11.27051
10.81697	-17.00656	11.27051
10.82116	-17.00656	11.27051
10.82534	-17.00656	11.27051
10.82952	-17.00656	11.27051
10.83381	-17.00656	11.27051
10.83800	-17.00656	11.27051
10.84239	-17.00656	11.27051
10.84661	-16.98459	11.27051
10.85081	-16.98459	11.27051
10.85501	-16.98459	11.27051
10.85920	-16.98459	11.27051
10.86339	-16.98459	11.27051
10.86758	-16.96261	11.27051
10.87188	-16.96261	11.27051
10.87613	-16.96261	11.27051
10.88033	-16.96261	11.27051
10.88452	-16.96261	11.27051
10.88870	-16.96261	11.27051
10.89289	-16.94064	11.27051
10.89707	-16.96261	11.27051
10.90131	-16.94064	11.27051
10.90557	-16.94064	11.27051
10.90977	-16.91867	11.27051
10.91395	-16.91867	11.27051
10.91814	-16.91867	11.27051
10.92232	-16.91867	11.27051
10.92651	-16.91867	11.27051
10.93069	-16.89670	11.27051
10.93510	-16.89670	11.27051
10.93931	-16.89670	11.27051
10.94349	-16.87472	11.27051
10.94768	-16.87472	11.27051
10.95186	-16.87472	11.27051
10.95605	-16.87472	11.27051
10.96023	-16.87472	11.27051
10.96461	-16.85275	11.27051
10.96884	-16.83078	11.27051
10.97303	-16.83078	11.27051
10.97722	-16.83078	11.27051
10.98142	-16.83078	11.27051
10.98567	-16.83078	11.27051
10.98987	-16.80881	11.27051
10.99415	-16.80881	11.27051
10.99840	-16.78683	11.27051
11.00260	-16.78683	11.27051
11.00679	-16.78683	11.27051
11.01099	-16.78683	11.27051
11.01518	-16.76486	11.27051
11.01937	-16.76486	11.27051
11.02361	-16.74289	11.27051
11.02788	-16.74289	11.27051
11.03209	-16.74289	11.27051
11.03640	-16.74289	11.27051
11.04058	-16.72091	11.27051
11.04476	-16.72091	11.27051
11.04895	-16.69894	11.27051
11.05313	-16.69894	11.27051
11.05742	-16.69894	11.27051
11.06163	-16.69894	11.27051
11.06582	-16.67697	11.27051
11.07001	-16.67697	11.27051
11.07419	-16.65500	11.27051
11.07838	-16.65500	11.27051
11.08257	-16.63302	11.27051
11.08699	-16.63302	11.27051
11.09121	-16.63302	11.27051
11.09540	-16.63302	11.27051
11.09960	-16.61105	11.27051
11.10379	-16.61105	11.27051
11.10798	-16.58908	11.27051
11.11220	-16.58908	11.27051
11.11651	-16.58908	11.27051
11.12076	-16.56711	11.27051
11.12497	-16.56711	11.27051
11.12915	-16.56711	11.27051
11.13334	-16.54513	11.27051
11.13763	-16.54513	11.27051
11.14181	-16.52316	11.27051
11.14606	-16.52316	11.27051
11.15032	-16.52316	11.27051
11.15454	-16.50119	11.27051
11.15873	-16.50119	11.27051
11.16293	-16.50119	11.27051
11.16712	-16.50119	11.27051
11.17130	-16.47922	11.27051
11.17549	-16.47922	11.27051
11.17978	-16.45724	11.27051
11.18399	-16.45724	11.27051
11.18818	-16.43527	11.27051
11.19236	-16.43527	11.27051
11.19655	-16.43527	11.27051
11.20073	-16.41330	11.27051
11.20492	-16.41330	11.27051
11.20931	-16.41330	11.27051
11.21353	-16.39132	11.27051
11.21773	-16.39132	11.27051
11.22192	-16.39132	11.27051
11.22612	-16.36935	11.27051
11.23031	-16.36935	11.27051
11.23450	-16.36935	11.27051
11.23897	-16.32541	11.27051
11.24322	-16.34738	11.27051
11.24742	-16.34738	11.27051
11.25160	-16.32541	11.27051
11.25579	-16.32541	11.27051
11.25998	-16.32541	11.27051
11.26416	-16.30343	11.27051
11.26841	-16.30343	11.27051
11.27270	-16.28146	11.27051
11.27691	-16.28146	11.27051
11.28111	-16.28146	11.27051
11.28530	-16.25949	11.27051
11.28949	-16.25949	11.27051
11.29368	-16.25949	11.27051
11.29787	-16.23752	11.27051
11.30217	-16.23752	11.27051
11.30638	-16.23752	11.27051
11.31057	-16.21554	11.27051
11.31476	-16.21554	11.27051
11.31896	-16.21554	11.27051
11.32315	-16.19357	11.27051
11.32733	-16.19357	11.27051
11.33173	-16.19357	11.27051
11.33596	-16.17160	11.27051
11.34026	-16.17160	11.27051
11.34445	-16.17160	11.27051
11.34864	-16.14963	11.27051
11.35284	-16.17160	11.27051
11.35703	-16.17160	11.27051
11.36132	-16.14963	11.27051
11.36558	-16.12765	11.27051
11.36978	-16.12765	11.27051
11.37397	-16.12765	11.27051
11.37817	-16.12765	11.27051
11.38236	-16.10568	11.27051
11.38656	-16.10568	11.27051
11.39080	-16.10568	11.27051
11.39510	-16.08371	11.27051
11.39932	-16.08371	11.27051
11.40352	-16.08371	11.27051
11.40771	-16.08371	11.27051
11.41189	-16.06173	11.27051
11.41608	-16.06173	11.27051
11.42026	-16.03976	11.27051
11.42455	-16.06173	11.27051
11.42876	-16.03976	11.27051
11.43295	-16.03976	11.27051
11.43714	-16.03976	11.27051
11.44142	-16.03976	11.27051
11.44561	-16.01779	11.27051
11.44979	-16.01779	11.27051
11.45418	-15.99582	11.27051
11.45841	-15.99582	11.27051
11.46261	-15.99582	11.27051
11.46680	-15.99582	11.27051
11.47102	-15.99582	11.27051
11.47521	-15.97384	11.27051
11.47940	-15.97384	11.27051
11.48370	-15.97384	11.27051
11.48796	-15.97384	11.27051
11.49216	-15.97384	11.27051
11.49635	-15.97384	11.27051
11.50054	-15.95187	11.27051
11.50473	-15.95187	11.27051
11.50892	-15.95187	11.27051
11.51316	-15.95187	11.27051
11.51743	-15.92990	11.27051
11.52164	-15.92990	11.27051
11.52583	-15.92990	11.27051
11.53002	-15.92990	11.27051
11.53421	-15.90793	11.27051
11.53839	-15.90793	11.27051
11.54268	-15.90793	11.27051
11.54698	-15.90793	11.27051
11.55120	-15.88595	11.27051
11.55538	-15.90793	11.27051
11.55957	-15.88595	11.27051
11.56375	-15.88595	11.27051
11.56794	-15.88595	11.27051
11.57212	-15.88595	11.27051
11.57652	-15.88595	11.27051
11.58074	-15.88595	11.27051
11.58494	-15.86398	11.27051
11.58914	-15.86398	11.27051
11.59333	-15.86398	11.27051
11.59752	-15.86398	11.27051
11.60171	-15.86398	11.27051
11.60602	-15.84201	11.27051
11.61027	-15.84201	11.27051
11.61447	-15.84201	11.27051
11.61866	-15.84201	11.27051
11.62285	-15.84201	11.27051
11.62703	-15.84201	11.27051
11.63122	-15.84201	11.27051
11.63546	-15.82004	11.27051
11.63975	-15.84201	11.27051
11.64407	-15.82004	11.27051
11.64826	-15.82004	11.27051
11.65245	-15.82004	11.27051
11.65663	-15.82004	11.27051
11.66082	-15.82004	11.27051
11.66500	-15.82004	11.27051
11.66929	-15.82004	11.27051
11.67350	-15.82004	11.27051
11.67769	-15.82004	11.27051
11.68188	-15.82004	11.27051
11.68606	-15.82004	11.27051
11.69026	-15.79806	11.27051
11.69444	-15.79806	11.27051
11.69883	-15.79806	11.27051
11.70306	-15.79806	11.27051
11.70725	-15.79806	11.27051
11.71143	-15.79806	11.27051
11.71562	-15.79806	11.27051
11.71981	-15.79806	11.27051
11.72399	-15.79806	11.27051
11.72826	-15.79806	11.27051
11.73251	-15.79806	11.27051
11.73671	-15.79806	11.27051
11.74091	-15.77609	11.27051
11.74521	-15.79806	11.27051
11.74940	-15.79806	11.27051
11.75359	-15.79806	11.27051
11.75784	-15.79806	11.27051
11.76209	-15.79806	11.27051
11.76630	-15.77609	11.27051
11.77049	-15.79806	11.27051
11.77467	-15.77609	11.27051
11.77886	-15.77609	11.27051
11.78303	-15.79806	11.27051
11.78721	-15.79806	11.27051
11.79151	-15.77609	11.27051
11.79572	-15.79806	11.27051
11.79991	-15.79806	11.27051
11.80409	-15.77609	11.27051
11.80828	-15.77609	11.27051
11.81246	-15.79806	11.27051
11.81664	-15.77609	11.27051
11.82104	-15.79806	11.27051
11.82527	-15.77609	11.27051
11.82946	-15.77609	11.27051
11.83365	-15.79806	11.27051
11.83787	-15.77609	11.27051
11.84207	-15.79806	11.27051
11.84638	-15.77609	11.27051
11.85068	-15.77609	11.27051
11.85495	-15.79806	11.27051
11.85916	-15.79806	11.27051
11.86335	-15.77609	11.27051
11.86754	-15.79806	11.27051
11.87173	-15.79806	11.27051
11.87591	-15.77609	11.27051
11.88016	-15.79806	11.27051
11.88443	-15.79806	11.27051
11.88863	-15.77609	11.27051
11.89282	-15.79806	11.27051
11.89700	-15.79806	11.27051
11.90119	-15.79806	11.27051
11.90537	-15.79806	11.27051
11.90956	-15.79806	11.27051
11.91384	-15.79806	11.27051
11.91805	-15.79806	11.27051
11.92224	-15.79806	11.27051
11.92642	-15.79806	11.27051
11.93060	-15.79806	11.27051
11.93479	-15.79806	11.27051
11.93900	-15.79806	11.27051
11.94341	-15.79806	11.27051
11.94775	-15.79806	11.27051
11.95195	-15.79806	11.27051
11.95615	-15.79806	11.27051
11.96034	-15.79806	11.27051
11.96453	-15.79806	11.27051
11.96872	-15.79806	11.27051
11.97302	-15.79806	11.27051
11.97729	-15.79806	11.27051
11.98149	-15.79806	11.27051
11.98568	-15.79806	11.27051
11.98987	-15.79806	11.27051
11.99407	-15.79806	11.27051
11.99826	-15.82004	11.27051
12.00249	-15.82004	11.27051
12.00676	-15.82004	11.27051
12.01097	-15.82004	11.27051
12.01516	-15.82004	11.27051
12.01935	-15.79806	11.27051
12.02353	-15.82004	11.27051
12.02772	-15.82004	11.27051
12.03190	-15.79806	11.27051
12.03619	-15.82004	11.27051
12.04042	-15.82004	11.27051
12.04461	-15.82004	11.27051
12.04891	-15.82004	11.27051
12.05309	-15.82004	11.27051
12.05728	-15.82004	11.27051
12.06146	-15.82004	11.27051
12.06586	-15.82004	11.27051
12.07010	-15.82004	11.27051
12.07429	-15.84201	11.27051
12.07849	-15.82004	11.27051
12.08268	-15.84201	11.27051
12.08687	-15.84201	11.27051
12.09103	-15.84201	11.27051
12.09534	-15.84201	11.27051
12.09960	-15.84201	11.27051
12.10380	-15.82004	11.27051
12.10799	-15.84201	11.27051
12.11223	-15.84201	11.27051
12.11642	-15.84201	11.27051
12.12061	-15.84201	11.27051
12.12487	-15.84201	11.27051
12.12915	-15.84201	11.27051
12.13336	-15.84201	11.27051
12.13755	-15.84201	11.27051
12.14176	-15.84201	11.27051
12.14595	-15.84201	11.27051
12.15025	-15.84201	11.27051
12.15444	-15.84201	11.27051
12.15872	-15.84201	11.27051
12.16296	-15.84201	11.27051
12.16714	-15.86398	11.27051
12.17135	-15.84201	11.27051
12.17554	-15.84201	11.27051
12.17973	-15.86398	11.27051
12.18392	-15.86398	11.27051
12.18832	-15.86398	11.27051
12.19254	-15.86398	11.27051
12.19674	-15.86398	11.27051
12.20093	-15.86398	11.27051
12.20512	-15.86398	11.27051
12.20931	-15.86398	11.27051
12.21350	-15.86398	11.27051
12.21782	-15.86398	11.27051
12.22208	-15.86398	11.27051
12.22628	-15.86398	11.27051
12.23048	-15.88595	11.27051
12.23466	-15.88595	11.27051
12.23887	-15.88595	11.27051
12.24304	-15.88595	11.27051
12.24729	-15.88595	11.27051
12.25168	-15.88595	11.27051
12.25588	-15.88595	11.27051
12.26008	-15.88595	11.27051
12.26427	-15.88595	11.27051
12.26847	-15.88595	11.27051
12.27269	-15.90793	11.27051
12.27689	-15.88595	11.27051
12.28118	-15.88595	11.27051
12.28540	-15.88595	11.27051
12.28959	-15.90793	11.27051
12.29378	-15.90793	11.27051
12.29797	-15.90793	11.27051
12.30215	-15.90793	11.27051
12.30634	-15.90793	11.27051
12.31074	-15.90793	11.27051
12.31498	-15.90793	11.27051
12.31918	-15.90793	11.27051
12.32337	-15.92990	11.27051
12.32756	-15.90793	11.27051
12.33175	-15.92990	11.27051
12.33594	-15.92990	11.27051
12.34028	-15.92990	11.27051
12.34454	-15.92990	11.27051
12.34874	-15.92990	11.27051
12.35303	-15.92990	11.27051
12.35722	-15.92990	11.27051
12.36140	-15.92990	11.27051
12.36559	-15.92990	11.27051
12.36983	-15.92990	11.27051
12.37409	-15.92990	11.27051
12.37830	-15.92990	11.27051
12.38249	-15.92990	11.27051
12.38668	-15.92990	11.27051
12.39086	-15.92990	11.27051
12.39503	-15.95187	11.27051
12.39922	-15.95187	11.27051
12.40350	-15.95187	11.27051
12.40771	-15.95187	11.27051
12.41190	-15.92990	11.27051
12.41609	-15.92990	11.27051
12.42027	-15.95187	11.27051
12.42446	-15.95187	11.27051
12.42864	-15.95187	11.27051
12.43303	-15.95187	11.27051
12.43725	-15.95187	11.27051
12.44147	-15.95187	11.27051
12.44566	-15.95187	11.27051
12.44985	-15.95187	11.27051
12.45417	-15.95187	11.27051
12.45836	-15.95187	11.27051
12.46266	-15.95187	11.27051
12.46693	-15.95187	11.27051
12.47113	-15.95187	11.27051
12.47532	-15.97384	11.27051
12.47951	-15.95187	11.27051
12.48370	-15.95187	11.27051
12.48789	-15.95187	11.27051
12.49213	-15.97384	11.27051
12.49640	-15.95187	11.27051
12.50060	-15.97384	11.27051
12.50478	-15.95187	11.27051
12.50897	-15.95187	11.27051
12.51315	-15.97384	11.27051
12.51733	-15.97384	11.27051
12.52152	-15.95187	11.27051
12.52581	-15.97384	11.27051
12.53002	-15.97384	11.27051
12.53421	-15.97384	11.27051
12.53844	-15.97384	11.27051
12.54263	-15.95187	11.27051
12.54682	-15.95187	11.27051
12.55102	-15.97384	11.27051
12.55555	-15.95187	11.27051
12.55976	-15.97384	11.27051
12.56397	-15.97384	11.27051
12.56817	-15.95187	11.27051
12.57236	-15.95187	11.27051
12.57655	-15.97384	11.27051
12.58074	-15.95187	11.27051
12.58504	-15.97384	11.27051
12.58931	-15.95187	11.27051
12.59352	-15.97384	11.27051
12.59772	-15.97384	11.27051
12.60192	-15.97384	11.27051
12.60611	-15.97384	11.27051
12.61030	-15.97384	11.27051
12.61454	-15.95187	11.27051
12.61882	-15.97384	11.27051
12.62304	-15.97384	11.27051
12.62724	-15.97384	11.27051
12.63143	-15.97384	11.27051
12.63561	-15.97384	11.27051
12.63982	-15.97384	11.27051
12.64401	-15.97384	11.27051
12.64830	-15.97384	11.27051
12.65252	-15.97384	11.27051
12.65682	-15.97384	11.27051
12.66101	-15.97384	11.27051
12.66519	-15.97384	11.27051
12.66938	-15.97384	11.27051
12.67356	-15.97384	11.27051
12.67796	-15.97384	11.27051
12.68219	-15.97384	11.27051
12.68638	-15.97384	11.27051
12.69058	-15.97384	11.27051
12.69477	-15.97384	11.27051
12.69898	-15.97384	11.27051
12.70317	-15.97384	11.27051
12.70748	-15.97384	11.27051
12.71174	-15.97384	11.27051
12.71595	-15.97384	11.27051
12.72014	-15.97384	11.27051
12.72433	-15.97384	11.27051
12.72852	-15.97384	11.27051
12.73271	-15.97384	11.27051
12.73695	-15.97384	11.27051
12.74124	-15.97384	11.27051
12.74546	-15.97384	11.27051
12.74965	-15.97384	11.27051
12.75384	-15.97384	11.27051
12.75814	-15.97384	11.27051
12.76233	-15.97384	11.27051
12.76652	-15.97384	11.27051
12.77082	-15.97384	11.27051
12.77504	-15.97384	11.27051
12.77924	-15.95187	11.27051
12.78343	-15.95187	11.27051
12.78761	-15.97384	11.27051
12.79180	-15.97384	11.27051
12.79598	-15.97384	11.27051
12.80037	-15.97384	11.27051
12.80460	-15.97384	11.27051
12.80880	-15.97384	11.27051
12.81300	-15.97384	11.27051
12.81719	-15.95187	11.27051
12.82137	-15.97384	11.27051
12.82556	-15.97384	11.27051
12.82982	-15.95187	11.27051
12.83407	-15.97384	11.27051
12.83827	-15.97384	11.27051
12.84247	-15.95187	11.27051
12.84666	-15.95187	11.27051
12.85085	-15.95187	11.27051
12.85503	-15.95187	11.27051
12.85951	-15.95187	11.27051
12.86378	-15.95187	11.27051
12.86798	-15.95187	11.27051
12.87217	-15.95187	11.27051
12.87636	-15.95187	11.27051
12.88055	-15.95187	11.27051
12.88473	-15.95187	11.27051
12.88892	-15.95187	11.27051
12.89321	-15.95187	11.27051
12.89743	-15.95187	11.27051
12.90162	-15.92990	11.27051
12.90580	-15.92990	11.27051
12.90998	-15.92990	11.27051
12.91417	-15.92990	11.27051
12.91835	-15.92990	11.27051
12.92275	-15.95187	11.27051
12.92698	-15.92990	11.27051
12.93118	-15.95187	11.27051
12.93537	-15.92990	11.27051
12.93957	-15.92990	11.27051
12.94377	-15.92990	11.27051
12.94796	-15.92990	11.27051
12.95223	-15.92990	11.27051
12.95649	-15.92990	11.27051
12.96079	-15.92990	11.27051
12.96498	-15.92990	11.27051
12.96917	-15.92990	11.27051
12.97335	-15.90793	11.27051
12.97754	-15.90793	11.27051
12.98178	-15.92990	11.27051
12.98604	-15.90793	11.27051
12.99025	-15.90793	11.27051
12.99444	-15.90793	11.27051
12.99862	-15.92990	11.27051
13.00282	-15.92990	11.27051
13.00701	-15.90793	11.27051
13.01119	-15.90793	11.27051
13.01548	-15.90793	11.27051
13.01969	-15.90793	11.27051
13.02387	-15.90793	11.27051
13.02806	-15.92990	11.27051
13.03225	-15.90793	11.27051
13.03643	-15.90793	11.27051
13.04063	-15.90793	11.27051
13.04505	-15.90793	11.27051
13.04928	-15.90793	11.27051
13.05347	-15.90793	11.27051
13.05766	-15.90793	11.27051
13.06196	-15.90793	11.27051
13.06615	-15.90793	11.27051
13.07035	-15.90793	11.27051
13.07466	-15.90793	11.27051
13.07894	-15.90793	11.27051
13.08314	-15.90793	11.27051
13.08734	-15.92990	11.27051
13.09153	-15.90793	11.27051
13.09572	-15.92990	11.27051
13.09991	-15.90793	11.27051
13.10415	-15.90793	11.27051
13.10841	-15.90793	11.27051
13.11266	-15.90793	11.27051
13.11686	-15.90793	11.27051
13.12105	-15.92990	11.27051
13.12524	-15.90793	11.27051
13.12942	-15.90793	11.27051
13.13361	-15.90793	11.27051
13.13792	-15.92990	11.27051
13.14217	-15.90793	11.27051
13.14638	-15.92990	11.27051
13.15057	-15.90793	11.27051
13.15475	-15.90793	11.27051
13.15896	-15.92990	11.27051
13.16325	-15.90793	11.27051
13.16767	-15.92990	11.27051
13.17190	-15.92990	11.27051
13.17609	-15.92990	11.27051
13.18028	-15.92990	11.27051
13.18448	-15.92990	11.27051
13.18868	-15.92990	11.27051
13.19287	-15.92990	11.27051
13.19717	-15.92990	11.27051
13.20142	-15.92990	11.27051
13.20562	-15.95187	11.27051
13.20982	-15.95187	11.27051
13.21401	-15.92990	11.27051
13.21820	-15.95187	11.27051
13.22239	-15.95187	11.27051
13.22662	-15.95187	11.27051
13.23089	-15.95187	11.27051
13.23505	-15.95187	11.27051
13.23930	-15.95187	11.27051
13.24349	-15.95187	11.27051
13.24768	-15.95187	11.27051
13.25188	-15.95187	11.27051
13.25608	-15.95187	11.27051
13.26038	-15.95187	11.27051
13.26470	-15.95187	11.27051
13.26890	-15.95187	11.27051
13.27311	-15.95187	11.27051
13.27731	-15.95187	11.27051
13.28150	-15.95187	11.27051
13.28569	-15.95187	11.27051
13.29010	-15.97384	11.27051
13.29433	-15.95187	11.27051
13.29853	-15.97384	11.27051
13.30272	-15.97384	11.27051
13.30695	-15.97384	11.27051
13.31114	-15.97384	11.27051
13.31533	-15.97384	11.27051
13.31959	-15.97384	11.27051
13.32385	-15.97384	11.27051
13.32805	-15.97384	11.27051
13.33224	-15.97384	11.27051
13.33642	-15.97384	11.27051
13.34063	-15.97384	11.27051
13.34481	-15.97384	11.27051
13.34907	-15.99582	11.27051
13.35333	-15.97384	11.27051
13.35754	-15.99582	11.27051
13.36173	-15.99582	11.27051
13.36604	-15.99582	11.27051
13.37022	-15.99582	11.27051
13.37441	-15.99582	11.27051
13.37859	-15.99582	11.27051
13.38289	-15.99582	11.27051
13.38706	-15.99582	11.27051
13.39125	-15.99582	11.27051
13.39543	-15.99582	11.27051
13.39962	-16.01779	11.27051
13.40381	-15.99582	11.27051
13.40799	-16.01779	11.27051
13.41239	-15.99582	11.27051
13.41661	-16.01779	11.27051
13.42080	-16.01779	11.27051
13.42499	-15.99582	11.27051
13.42918	-15.99582	11.27051
13.43337	-16.01779	11.27051
13.43756	-16.01779	11.27051
13.44190	-16.01779	11.27051
13.44617	-16.01779	11.27051
13.45038	-16.01779	11.27051
13.45457	-16.01779	11.27051
13.45876	-16.01779	11.27051
13.46296	-16.01779	11.27051
13.46726	-16.01779	11.27051
13.47150	-16.01779	11.27051
13.47577	-16.01779	11.27051
13.47998	-16.01779	11.27051
13.48417	-16.01779	11.27051
13.48837	-16.01779	11.27051
13.49257	-16.01779	11.27051
13.49676	-16.01779	11.27051
13.50095	-16.01779	11.27051
13.50524	-16.03976	11.27051
13.50946	-16.01779	11.27051
13.51366	-16.03976	11.27051
13.51785	-16.01779	11.27051
13.52204	-16.03976	11.27051
13.52623	-16.03976	11.27051
13.53042	-16.03976	11.27051
13.53481	-16.01779	11.27051
13.53904	-16.03976	11.27051
13.54324	-16.03976	11.27051
13.54743	-16.03976	11.27051
13.55162	-16.03976	11.27051
13.55580	-16.03976	11.27051
13.55999	-16.03976	11.27051
13.56425	-16.03976	11.27051
13.56862	-16.03976	11.27051
13.57282	-16.03976	11.27051
13.57700	-16.03976	11.27051
13.58119	-16.03976	11.27051
13.58537	-16.03976	11.27051
13.58956	-16.03976	11.27051
13.59380	-16.03976	11.27051
13.59807	-16.03976	11.27051
13.60228	-16.03976	11.27051
13.60646	-16.03976	11.27051
13.61065	-16.03976	11.27051
13.61483	-16.03976	11.27051
13.61903	-16.03976	11.27051
13.62321	-16.03976	11.27051
13.62750	-16.03976	11.27051
13.63170	-16.03976	11.27051
13.63589	-16.03976	11.27051
13.64009	-16.03976	11.27051
13.64428	-16.03976	11.27051
13.64848	-16.03976	11.27051
13.65267	-16.01779	11.27051
13.65706	-16.03976	11.27051
13.66129	-16.03976	11.27051
13.66548	-16.01779	11.27051
13.66978	-16.03976	11.27051
13.67398	-16.03976	11.27051
13.67817	-16.01779	11.27051
13.68236	-16.01779	11.27051
13.68666	-16.01779	11.27051
13.69093	-16.01779	11.27051
13.69514	-16.01779	11.27051
13.69933	-16.01779	11.27051
13.70352	-16.01779	11.27051
13.70772	-16.01779	11.27051
13.71191	-16.01779	11.27051
13.71615	-15.99582	11.27051
13.72042	-16.01779	11.27051
13.72462	-15.99582	11.27051
13.72881	-16.01779	11.27051
13.73300	-15.99582	11.27051
13.73719	-15.99582	11.27051
13.74139	-15.99582	11.27051
13.74559	-15.99582	11.27051
13.74988	-15.99582	11.27051
13.75409	-15.99582	11.27051
13.75828	-15.99582	11.27051
13.76247	-15.99582	11.27051
13.76665	-15.99582	11.27051
13.77095	-15.97384	11.27051
13.77514	-15.97384	11.27051
13.77954	-15.99582	11.27051
13.78376	-15.97384	11.27051
13.78795	-15.97384	11.27051
13.79214	-15.97384	11.27051
13.79634	-15.95187	11.27051
13.80053	-15.95187	11.27051
13.80472	-15.95187	11.27051
13.80902	-15.95187	11.27051
13.81327	-15.95187	11.27051
13.81747	-15.95187	11.27051
13.82166	-15.95187	11.27051
13.82584	-15.95187	11.27051
13.83003	-15.92990	11.27051
13.83421	-15.92990	11.27051
13.83845	-15.95187	11.27051
13.84274	-15.95187	11.27051
13.84697	-15.92990	11.27051
13.85116	-15.92990	11.27051
13.85535	-15.90793	11.27051
13.85953	-15.90793	11.27051
13.86372	-15.90793	11.27051
13.86790	-15.88595	11.27051
13.87230	-15.88595	11.27051
13.87650	-15.90793	11.27051
13.88069	-15.88595	11.27051
13.88487	-15.88595	11.27051
13.88905	-15.88595	11.27051
13.89324	-15.88595	11.27051
13.89742	-15.88595	11.27051
13.90182	-15.88595	11.27051
13.90604	-15.86398	11.27051
13.91025	-15.86398	11.27051
13.91444	-15.86398	11.27051
13.91863	-15.86398	11.27051
13.92282	-15.86398	11.27051
13.92701	-15.84201	11.27051
13.93132	-15.84201	11.27051
13.93557	-15.84201	11.27051
13.93977	-15.82004	11.27051
13.94398	-15.82004	11.27051
13.94817	-15.82004	11.27051
13.95237	-15.82004	11.27051
13.95656	-15.82004	11.27051
13.96080	-15.82004	11.27051
13.96507	-15.79806	11.27051
13.96927	-15.79806	11.27051
13.97356	-15.79806	11.27051
13.97775	-15.79806	11.27051
13.98193	-15.77609	11.27051
13.98612	-15.77609	11.27051
13.99030	-15.77609	11.27051
13.99459	-15.77609	11.27051
13.99880	-15.77609	11.27051
14.00300	-15.77609	11.27051
14.00719	-15.75412	11.27051
14.01137	-15.75412	11.27051
14.01555	-15.75412	11.27051
14.01974	-15.75412	11.27051
14.02413	-15.75412	11.27051
14.02835	-15.75412	11.27051
14.03254	-15.73214	11.27051
14.03673	-15.73214	11.27051
14.04094	-15.73214	11.27051
14.04514	-15.73214	11.27051
14.04934	-15.73214	11.27051
14.05363	-15.73214	11.27051
14.05789	-15.71017	11.27051
14.06210	-15.71017	11.27051
14.06629	-15.71017	11.27051
14.07047	-15.71017	11.27051
14.07476	-15.71017	11.27051
14.07896	-15.68820	11.27051
14.08321	-15.68820	11.27051
14.08748	-15.68820	11.27051
14.09169	-15.68820	11.27051
14.09588	-15.68820	11.27051
14.10006	-15.68820	11.27051
14.10425	-15.66623	11.27051
14.10844	-15.66623	11.27051
14.11265	-15.66623	11.27051
14.11697	-15.66623	11.27051
14.12119	-15.66623	11.27051
14.12537	-15.66623	11.27051
14.12956	-15.66623	11.27051
14.13375	-15.66623	11.27051
14.13793	-15.66623	11.27051
14.14213	-15.64425	11.27051
14.14655	-15.66623	11.27051
14.15078	-15.64425	11.27051
14.15499	-15.64425	11.27051
14.15918	-15.64425	11.27051
14.16338	-15.64425	11.27051
14.16757	-15.64425	11.27051
14.17176	-15.64425	11.27051
14.17621	-15.64425	11.27051
14.18047	-15.64425	11.27051
14.18467	-15.64425	11.27051
14.18886	-15.64425	11.27051
14.19306	-15.62228	11.27051
14.19725	-15.64425	11.27051
14.20144	-15.62228	11.27051
14.20569	-15.64425	11.27051
14.20996	-15.62228	11.27051
14.21417	-15.62228	11.27051
14.21837	-15.62228	11.27051
14.22256	-15.62228	11.27051
14.22675	-15.62228	11.27051
14.23095	-15.62228	11.27051
14.23514	-15.62228	11.27051
14.23943	-15.62228	11.27051
14.24367	-15.62228	11.27051
14.24787	-15.62228	11.27051
14.25206	-15.60031	11.27051
14.25624	-15.62228	11.27051
14.26043	-15.62228	11.27051
14.26461	-15.62228	11.27051
14.26902	-15.62228	11.27051
14.27329	-15.60031	11.27051
14.27761	-15.60031	11.27051
14.28180	-15.60031	11.27051
14.28599	-15.60031	11.27051
14.29018	-15.60031	11.27051
14.29437	-15.60031	11.27051
14.29868	-15.60031	11.27051
14.30295	-15.60031	11.27051
14.30716	-15.60031	11.27051
14.31135	-15.60031	11.27051
14.31554	-15.60031	11.27051
14.31974	-15.60031	11.27051
14.32393	-15.60031	11.27051
14.32816	-15.60031	11.27051
14.33243	-15.60031	11.27051
14.33663	-15.60031	11.27051
14.34085	-15.60031	11.27051
14.34504	-15.60031	11.27051
14.34924	-15.60031	11.27051
14.35344	-15.60031	11.27051
14.35764	-15.60031	11.27051
14.36194	-15.60031	11.27051
14.36616	-15.60031	11.27051
14.37035	-15.60031	11.27051
14.37454	-15.60031	11.27051
14.37884	-15.60031	11.27051
14.38303	-15.60031	11.27051
14.38721	-15.60031	11.27051
14.39161	-15.57834	11.27051
14.39583	-15.60031	11.27051
14.40003	-15.60031	11.27051
14.40422	-15.60031	11.27051
14.40842	-15.60031	11.27051
14.41261	-15.60031	11.27051
14.41680	-15.60031	11.27051
14.42108	-15.60031	11.27051
14.42534	-15.60031	11.27051
14.42954	-15.60031	11.27051
14.43374	-15.60031	11.27051
14.43793	-15.57834	11.27051
14.44214	-15.60031	11.27051
14.44633	-15.60031	11.27051
14.45060	-15.60031	11.27051
14.45488	-15.60031	11.27051
14.45906	-15.60031	11.27051
14.46325	-15.60031	11.27051
14.46744	-15.60031	11.27051
14.47163	-15.60031	11.27051
14.47582	-15.60031	11.27051
14.48012	-15.57834	11.27051
14.48442	-15.57834	11.27051
14.48862	-15.60031	11.27051
14.49282	-15.60031	11.27051
14.49701	-15.60031	11.27051
14.50119	-15.60031	11.27051
14.50538	-15.60031	11.27051
14.50956	-15.60031	11.27051
14.51396	-15.60031	11.27051
14.51819	-15.60031	11.27051
14.52240	-15.60031	11.27051
14.52659	-15.60031	11.27051
14.53079	-15.60031	11.27051
14.53499	-15.60031	11.27051
14.53918	-15.60031	11.27051
14.54353	-15.60031	11.27051
14.54780	-15.60031	11.27051
14.55200	-15.60031	11.27051
14.55620	-15.60031	11.27051
14.56039	-15.60031	11.27051
14.56458	-15.62228	11.27051
14.56877	-15.62228	11.27051
14.57301	-15.62228	11.27051
14.57728	-15.62228	11.27051
14.58158	-15.62228	11.27051
14.58577	-15.62228	11.27051
14.58995	-15.62228	11.27051
14.59414	-15.62228	11.27051
14.59832	-15.62228	11.27051
14.60251	-15.62228	11.27051
14.60679	-15.62228	11.27051
14.61102	-15.62228	11.27051
14.61521	-15.62228	11.27051
14.61939	-15.62228	11.27051
14.62357	-15.62228	11.27051
14.62776	-15.62228	11.27051
14.63194	-15.64425	11.27051
14.63633	-15.62228	11.27051
14.64056	-15.62228	11.27051
14.64476	-15.62228	11.27051
14.64896	-15.64425	11.27051
14.65315	-15.62228	11.27051
14.65734	-15.64425	11.27051
14.66153	-15.64425	11.27051
14.66583	-15.64425	11.27051
14.67010	-15.64425	11.27051
14.67430	-15.64425	11.27051
14.67849	-15.64425	11.27051
14.68277	-15.66623	11.27051
14.68697	-15.64425	11.27051
14.69115	-15.64425	11.27051
14.69540	-15.64425	11.27051
14.69966	-15.66623	11.27051
14.70386	-15.66623	11.27051
14.70805	-15.66623	11.27051
14.71223	-15.66623	11.27051
14.71642	-15.66623	11.27051
14.72061	-15.66623	11.27051
14.72480	-15.66623	11.27051
14.72908	-15.66623	11.27051
14.73330	-15.66623	11.27051
14.73749	-15.66623	11.27051
14.74169	-15.66623	11.27051
14.74589	-15.66623	11.27051
14.75008	-15.66623	11.27051
14.75426	-15.68820	11.27051
14.75867	-15.68820	11.27051
14.76291	-15.68820	11.27051
14.76711	-15.68820	11.27051
14.77130	-15.68820	11.27051
14.77549	-15.68820	11.27051
14.77969	-15.71017	11.27051
14.78400	-15.71017	11.27051
14.78831	-15.71017	11.27051
14.79258	-15.71017	11.27051
14.79678	-15.71017	11.27051
14.80098	-15.71017	11.27051
14.80517	-15.71017	11.27051
14.80936	-15.71017	11.27051
14.81355	-15.71017	11.27051
14.81778	-15.71017	11.27051
14.82205	-15.73214	11.27051
14.82625	-15.73214	11.27051
14.83045	-15.73214	11.27051
14.83463	-15.73214	11.27051
14.83882	-15.73214	11.27051
14.84303	-15.73214	11.27051
14.84722	-15.73214	11.27051
14.85152	-15.73214	11.27051
14.85573	-15.75412	11.27051
14.85992	-15.75412	11.27051
14.86410	-15.73214	11.27051
14.86829	-15.75412	11.27051
14.87247	-15.75412	11.27051
14.87666	-15.75412	11.27051
14.88105	-15.75412	11.27051
14.88540	-15.77609	11.27051
14.88960	-15.75412	11.27051
14.89379	-15.77609	11.27051
14.89798	-15.77609	11.27051
14.90217	-15.79806	11.27051
14.90636	-15.79806	11.27051
14.91066	-15.79806	11.27051
14.91492	-15.77609	11.27051
14.91912	-15.79806	11.27051
14.92331	-15.79806	11.27051
14.92750	-15.79806	11.27051
14.93169	-15.79806	11.27051
14.93588	-15.79806	11.27051
14.94012	-15.79806	11.27051
14.94441	-15.82004	11.27051
14.94862	-15.82004	11.27051
14.95281	-15.82004	11.27051
14.95700	-15.82004	11.27051
14.96118	-15.82004	11.27051
14.96537	-15.84201	11.27051
14.96955	-15.84201	11.27051
14.97384	-15.84201	11.27051
14.97806	-15.86398	11.27051
14.98226	-15.84201	11.27051
14.98660	-15.84201	11.27051
14.99078	-15.86398	11.27051
14.99499	-15.86398	11.27051
14.99917	-15.86398	11.27051
15.00406	-15.88595	-0.40193
15.00813	-15.88595	-0.40193
15.01218	-15.88595	-0.40193
15.01624	-15.88595	-0.40193
15.02030	-15.88595	-0.40193
15.02436	-15.90793	-0.40193
15.02841	-15.90793	-0.40193
15.03247	-15.90793	-0.40193
15.03654	-15.90793	-0.40193
15.04060	-15.90793	-0.40193
15.04466	-15.92990	-0.40193
15.04872	-15.92990	-0.40193
15.05277	-15.92990	-0.40193
15.05683	-15.92990	-0.40193
15.06089	-15.92990	-0.40193
15.06495	-15.92990	-0.40193
15.06901	-15.92990	-0.40193
15.07306	-15.95187	-0.40193
15.07712	-15.95187	-0.40193
15.08118	-15.92990	-0.40193
15.08523	-15.92990	-0.40193
15.08929	-15.92990	-0.40193
15.09335	-15.92990	-0.40193
15.09741	-15.92990	-0.40193
15.10146	-15.92990	-0.40193
15.10575	-15.90793	-0.40193
15.10980	-15.90793	-0.40193
15.11387	-15.90793	-0.40193
15.11792	-15.90793	-0.40193
15.12198	-15.90793	-0.40193
15.12604	-15.88595	-0.40193
15.13010	-15.86398	-0.40193
15.13417	-15.86398	-0.40193
15.13822	-15.84201	-0.40193
15.14229	-15.84201	-0.40193
15.14634	-15.84201	-0.40193
15.15040	-15.82004	-0.40193
15.15446	-15.79806	-0.40193
15.15852	-15.77609	-0.40193
15.16258	-15.77609	-0.40193
15.16663	-15.77609	-0.40193
15.17069	-15.75412	-0.40193
15.17475	-15.73214	-0.40193
15.17881	-15.71017	-0.40193
15.18286	-15.68820	-0.40193
15.18690	-15.68820	-0.40193
15.19096	-15.64425	-0.40193
15.19501	-15.62228	-0.40193
15.19907	-15.57834	-0.40193
15.20313	-15.55636	-0.40193
15.20743	-15.55636	-0.40193
15.21149	-15.53439	-0.40193
15.21554	-15.49045	-0.40193
15.21961	-15.44650	-0.40193
15.22367	-15.42453	-0.40193
15.22772	-15.38058	-0.40193
15.23178	-15.38058	-0.40193
15.23584	-15.33664	-0.40193
15.23990	-15.31466	-0.40193
15.24398	-15.24875	-0.40193
15.24804	-15.24875	-0.40193
15.25210	-15.20480	-0.40193
15.25615	-15.16086	-0.40193
15.26021	-15.11691	-0.40193
15.26427	-15.07297	-0.40193
15.26833	-15.07297	-0.40193
15.27238	-15.00705	-0.40193
15.27644	-14.96310	-0.40193
15.28050	-14.89718	-0.40193
15.28456	-14.85324	-0.40193
15.28862	-14.85324	-0.40193
15.29268	-14.80929	-0.40193
15.29673	-14.72140	-0.40193
15.30079	-14.67746	-0.40193
15.30485	-14.61154	-0.40193
15.30914	-14.56759	-0.40193
15.31320	-14.56759	-0.40193
15.31726	-14.50168	-0.40193
15.32133	-14.43576	-0.40193
15.32538	-14.34787	-0.40193
15.32944	-14.28195	-0.40193
15.33350	-14.28195	-0.40193
15.33757	-14.21603	-0.40193
15.34163	-14.15011	-0.40193
15.34569	-14.06222	-0.40193
15.34975	-14.01828	-0.40193
15.35380	-13.93039	-0.40193
15.35786	-13.93039	-0.40193
15.36192	-13.86447	-0.40193
15.36598	-13.77658	-0.40193
15.37003	-13.68869	-0.40193
15.37409	-13.60080	-0.40193
15.37815	-13.60080	-0.40193
15.38221	-13.53488	-0.40193
15.38626	-13.44699	-0.40193
15.39032	-13.35910	-0.40193
15.39438	-13.29318	-0.40193
15.39844	-13.29318	-0.40193
15.40249	-13.18332	-0.40193
15.40655	-13.09543	-0.40193
15.41086	-13.00754	-0.40193
15.41490	-12.89767	-0.40193
15.41896	-12.89767	-0.40193
15.42302	-12.80978	-0.40193
15.42707	-12.72189	-0.40193
15.43113	-12.63400	-0.40193
15.43519	-12.54611	-0.40193
15.43926	-12.43625	-0.40193
15.44332	-12.43625	-0.40193
15.44738	-12.34836	-0.40193
15.45143	-12.23849	-0.40193
15.45549	-12.12863	-0.40193
15.45955	-12.04074	-0.40193
15.46361	-12.04074	-0.40193
15.46766	-11.93088	-0.40193
15.47172	-11.82101	-0.40193
15.47578	-11.71115	-0.40193
15.47984	-11.62326	-0.40193
15.48389	-11.49142	-0.40193
15.48795	-11.49142	-0.40193
15.49201	-11.40353	-0.40193
15.49606	-11.27170	-0.40193
15.50012	-11.16183	-0.40193
15.50418	-11.05197	-0.40193
15.50824	-11.05197	-0.40193
15.51253	-10.94211	-0.40193
15.51659	-10.81027	-0.40193
15.52065	-10.70041	-0.40193
15.52471	-10.56857	-0.40193
15.52877	-10.56857	-0.40193
15.53282	-10.43673	-0.40193
15.53688	-10.32687	-0.40193
15.54094	-10.19504	-0.40193
15.54501	-10.19504	-0.40193
15.54907	-10.08517	-0.40193
15.55312	-9.95334	-0.40193
15.55718	-9.82150	-0.40193
15.56124	-9.68966	-0.40193
15.56530	-9.60177	-0.40193
15.56935	-9.60177	-0.40193
15.57341	-9.44797	-0.40193
15.57747	-9.33810	-0.40193
15.58153	-9.20627	-0.40193
15.58558	-9.07443	-0.40193
15.58964	-9.07443	-0.40193
15.59370	-8.92062	-0.40193
15.59775	-8.81076	-0.40193
15.60181	-8.65695	-0.40193
15.60587	-8.54709	-0.40193
15.60993	-8.41525	-0.40193
15.61423	-8.41525	-0.40193
15.61828	-8.28341	-0.40193
15.62234	-8.15158	-0.40193
15.62640	-7.99777	-0.40193
15.63046	-7.86593	-0.40193
15.63452	-7.86593	-0.40193
15.63857	-7.71213	-0.40193
15.64265	-7.58029	-0.40193
15.64671	-7.42648	-0.40193
15.65077	-7.33859	-0.40193
15.65483	-7.18478	-0.40193
15.65888	-7.18478	-0.40193
15.66290	-7.03097	-0.40193
15.66696	-6.89914	-0.40193
15.67102	-6.74533	-0.40193
15.67507	-6.74533	-0.40193
15.67913	-6.61349	-0.40193
15.68319	-6.45968	-0.40193
15.68724	-6.30588	-0.40193
15.69130	-6.19601	-0.40193
15.69536	-6.06418	-0.40193
15.69942	-6.06418	-0.40193
15.70347	-5.91037	-0.40193
15.70753	-5.75656	-0.40193
15.71159	-5.60275	-0.40193
15.71588	-5.44894	-0.40193
15.71994	-5.44894	-0.40193
15.72400	-5.31711	-0.40193
15.72806	-5.16330	-0.40193
15.73212	-5.00949	-0.40193
15.73617	-4.89963	-0.40193
15.74023	-4.74582	-0.40193
15.74430	-4.74582	-0.40193
15.74836	-4.59201	-0.40193
15.75242	-4.43820	-0.40193
15.75648	-4.28439	-0.40193
15.76054	-4.13058	-0.40193
15.76459	-4.13058	-0.40193
15.76865	-3.97677	-0.40193
15.77271	-3.84494	-0.40193
15.77677	-3.66916	-0.40193
15.78082	-3.51535	-0.40193
15.78488	-3.51535	-0.40193
15.78894	-3.36154	-0.40193
15.79299	-3.20773	-0.40193
15.79705	-3.07589	-0.40193
15.80111	-2.92209	-0.40193
15.80517	-2.92209	-0.40193
15.80922	-2.76828	-0.40193
15.81328	-2.61447	-0.40193
15.81758	-2.46066	-0.40193
15.82163	-2.32882	-0.40193
15.82569	-2.17502	-0.40193
15.82975	-2.17502	-0.40193
15.83381	-2.02121	-0.40193
15.83786	-1.86740	-0.40193
15.84192	-1.71359	-0.40193
15.84600	-1.71359	-0.40193
15.85006	-1.55978	-0.40193
15.85412	-1.40597	-0.40193
15.85818	-1.25216	-0.40193
15.86223	-1.14230	-0.40193
15.86629	-0.96652	-0.40193
15.87035	-0.96652	-0.40193
15.87440	-0.83468	-0.40193
15.87846	-0.68088	-0.40193
15.88252	-0.52707	-0.40193
15.88658	-0.37326	-0.40193
15.89063	-0.37326	-0.40193
15.89469	-0.21945	-0.40193
15.89875	-0.06564	-0.40193
15.90280	0.08817	-0.40193
15.90686	0.22000	-0.40193
15.91090	0.35184	-0.40193
15.91496	0.35184	-0.40193
15.91925	0.50565	-0.40193
15.92331	0.65946	-0.40193
15.92737	0.81327	-0.40193
15.93142	0.96707	-0.40193
15.93548	0.96707	-0.40193
15.93954	1.12088	-0.40193
15.94360	1.27469	-0.40193
15.94766	1.38455	-0.40193
15.95172	1.53836	-0.40193
15.95578	1.69217	-0.40193
15.95984	1.69217	-0.40193
15.96390	1.84598	-0.40193
15.96796	1.99979	-0.40193
15.97201	2.13162	-0.40193
15.97607	2.13162	-0.40193
15.98013	2.28543	-0.40193
15.98419	2.41727	-0.40193
15.98824	2.57108	-0.40193
15.99230	2.68094	-0.40193
15.99636	2.83475	-0.40193
16.00041	2.83475	-0.40193
16.00447	2.98856	-0.40193
16.00853	3.12039	-0.40193
16.01258	3.27420	-0.40193
16.01664	3.40604	-0.40193
16.02094	3.40604	-0.40193
16.02499	3.55985	-0.40193
16.02905	3.69168	-0.40193
16.03311	3.82352	-0.40193
16.03717	3.97733	-0.40193
16.04122	3.97733	-0.40193
16.04528	4.10916	-0.40193
16.04935	4.24100	-0.40193
16.05341	4.37284	-0.40193
16.05747	4.52664	-0.40193
16.06152	4.52664	-0.40193
16.06558	4.65848	-0.40193
16.06964	4.79032	-0.40193
16.07370	4.92215	-0.40193
16.07775	5.01004	-0.40193
16.08181	5.16385	-0.40193
16.08587	5.16385	-0.40193
16.08993	5.29569	-0.40193
16.09398	5.40555	-0.40193
16.09804	5.53739	-0.40193
16.10210	5.53739	-0.40193
16.10616	5.66922	-0.40193
16.11021	5.80106	-0.40193
16.11427	5.93289	-0.40193
16.11833	6.02078	-0.40193
16.12262	6.15262	-0.40193
16.12668	6.15262	-0.40193
16.13074	6.26248	-0.40193
16.13480	6.39432	-0.40193
16.13885	6.50418	-0.40193
16.14292	6.63602	-0.40193
16.14698	6.63602	-0.40193
16.15105	6.74588	-0.40193
16.15511	6.87772	-0.40193
16.15917	6.98758	-0.40193
16.16322	7.07547	-0.40193
16.16729	7.18534	-0.40193
16.17135	7.18534	-0.40193
16.17541	7.29520	-0.40193
16.17947	7.40506	-0.40193
16.18352	7.53690	-0.40193
16.18758	7.62479	-0.40193
16.19164	7.62479	-0.40193
16.19570	7.73465	-0.40193
16.19975	7.84452	-0.40193
16.20381	7.93241	-0.40193
16.20787	8.04227	-0.40193
16.21193	8.13016	-0.40193
16.21598	8.13016	-0.40193
16.22004	8.24002	-0.40193
16.22434	8.34989	-0.40193
16.22839	8.43778	-0.40193
16.23246	8.54764	-0.40193
16.23652	8.54764	-0.40193
16.24058	8.63553	-0.40193
16.24464	8.72342	-0.40193
16.24870	8.81131	-0.40193
16.25276	8.89920	-0.40193
16.25682	9.00907	-0.40193
16.26088	9.00907	-0.40193
16.26494	9.07498	-0.40193
16.26900	9.16287	-0.40193
16.27306	9.25077	-0.40193
16.27712	9.25077	-0.40193
16.28118	9.33866	-0.40193
16.28524	9.42655	-0.40193
16.28929	9.51444	-0.40193
16.29335	9.60233	-0.40193
16.29741	9.60233	-0.40193
16.30147	9.69022	-0.40193
16.30552	9.75614	-0.40193
16.30958	9.84403	-0.40193
16.31364	9.90994	-0.40193
16.31769	9.90994	-0.40193
16.32175	9.97586	-0.40193
16.32605	10.06375	-0.40193
16.33011	10.12967	-0.40193
16.33417	10.19559	-0.40193
16.33823	10.26151	-0.40193
16.34229	10.26151	-0.40193
16.34635	10.32743	-0.40193
16.35041	10.39334	-0.40193
16.35447	10.45926	-0.40193
16.35853	10.50321	-0.40193
16.36259	10.50321	-0.40193
16.36664	10.56912	-0.40193
16.37070	10.65702	-0.40193
16.37476	10.70096	-0.40193
16.37882	10.74491	-0.40193
16.38287	10.78885	-0.40193
16.38690	10.78885	-0.40193
16.39096	10.85477	-0.40193
16.39502	10.89871	-0.40193
16.39907	10.96463	-0.40193
16.40313	10.96463	-0.40193
16.40719	11.00858	-0.40193
16.41124	11.05252	-0.40193
16.41530	11.09647	-0.40193
16.41936	11.14041	-0.40193
16.42342	11.18436	-0.40193
16.42772	11.18436	-0.40193
16.43177	11.22830	-0.40193
16.43583	11.27225	-0.40193
16.43989	11.31619	-0.40193
16.44395	11.33817	-0.40193
16.44801	11.33817	-0.40193
16.45207	11.38211	-0.40193
16.45613	11.42606	-0.40193
16.46019	11.44803	-0.40193
16.46425	11.49198	-0.40193
16.46831	11.51395	-0.40193
16.47236	11.51395	-0.40193
16.47642	11.53592	-0.40193
16.48048	11.57987	-0.40193
16.48454	11.60184	-0.40193
16.48859	11.62381	-0.40193
16.49265	11.62381	-0.40193
16.49671	11.64578	-0.40193
16.50076	11.66776	-0.40193
16.50482	11.68973	-0.40193
16.50888	11.71170	-0.40193
16.51294	11.73368	-0.40193
16.51699	11.73368	-0.40193
16.52105	11.75565	-0.40193
16.52511	11.75565	-0.40193
16.52940	11.77762	-0.40193
16.53346	11.77762	-0.40193
16.53752	11.77762	-0.40193
16.54158	11.79959	-0.40193
16.54564	11.79959	-0.40193
16.54970	11.82157	-0.40193
16.55376	11.82157	-0.40193
16.55782	11.82157	-0.40193
16.56189	11.82157	-0.40193
16.56595	11.82157	-0.40193
16.57000	11.82157	-0.40193
16.57406	11.82157	-0.40193
16.57812	11.82157	-0.40193
16.58218	11.82157	-0.40193
16.58623	11.82157	-0.40193
16.59029	11.82157	-0.40193
16.59435	11.82157	-0.40193
16.59841	11.82157	-0.40193
16.60246	11.79959	-0.40193
16.60652	11.79959	-0.40193
16.61058	11.77762	-0.40193
16.61463	11.75565	-0.40193
16.61869	11.75565	-0.40193
16.62275	11.75565	-0.40193
16.62681	11.73368	-0.40193
16.63111	11.73368	-0.40193
16.63517	11.71170	-0.40193
16.63922	11.68973	-0.40193
16.64328	11.68973	-0.40193
16.64734	11.66776	-0.40193
16.65140	11.64578	-0.40193
16.65546	11.62381	-0.40193
16.65952	11.60184	-0.40193
16.66358	11.60184	-0.40193
16.66764	11.57987	-0.40193
16.67170	11.53592	-0.40193
16.67575	11.51395	-0.40193
16.67981	11.49198	-0.40193
16.68387	11.47000	-0.40193
16.68793	11.47000	-0.40193
16.69198	11.42606	-0.40193
16.69604	11.38211	-0.40193
16.70010	11.36014	-0.40193
16.70415	11.36014	-0.40193
16.70821	11.31619	-0.40193
16.71227	11.27225	-0.40193
16.71633	11.25028	-0.40193
16.72038	11.20633	-0.40193
16.72444	11.16239	-0.40193
16.72850	11.16239	-0.40193
16.73279	11.11844	-0.40193
16.73685	11.07450	-0.40193
16.74091	11.03055	-0.40193
16.74497	10.98661	-0.40193
16.74903	10.98661	-0.40193
16.75309	10.94266	-0.40193
16.75714	10.89871	-0.40193
16.76122	10.85477	-0.40193
16.76528	10.78885	-0.40193
16.76933	10.74491	-0.40193
16.77339	10.74491	-0.40193
16.77745	10.70096	-0.40193
16.78151	10.63504	-0.40193
16.78556	10.59110	-0.40193
16.78962	10.52518	-0.40193
16.79368	10.52518	-0.40193
16.79773	10.45926	-0.40193
16.80179	10.39334	-0.40193
16.80585	10.34940	-0.40193
16.80991	10.28348	-0.40193
16.81396	10.28348	-0.40193
16.81802	10.21756	-0.40193
16.82208	10.15164	-0.40193
16.82614	10.08573	-0.40193
16.83019	10.08573	-0.40193
16.83448	10.04178	-0.40193
16.83854	9.97586	-0.40193
16.84260	9.90994	-0.40193
16.84666	9.84403	-0.40193
16.85072	9.77811	-0.40193
16.85478	9.77811	-0.40193
16.85884	9.71219	-0.40193
16.86292	9.64627	-0.40193
16.86698	9.55838	-0.40193
16.87104	9.49246	-0.40193
16.87509	9.49246	-0.40193
16.87915	9.42655	-0.40193
16.88321	9.33866	-0.40193
16.88727	9.29471	-0.40193
16.89132	9.20682	-0.40193
16.89538	9.11893	-0.40193
16.89944	9.11893	-0.40193
16.90349	9.05301	-0.40193
16.90755	8.96512	-0.40193
16.91161	8.89920	-0.40193
16.91567	8.81131	-0.40193
16.91972	8.81131	-0.40193
16.92378	8.72342	-0.40193
16.92784	8.63553	-0.40193
16.93189	8.59159	-0.40193
16.93618	8.50369	-0.40193
16.94024	8.41580	-0.40193
16.94430	8.41580	-0.40193
16.94836	8.32791	-0.40193
16.95242	8.24002	-0.40193
16.95648	8.15213	-0.40193
16.96053	8.08621	-0.40193
16.96460	8.08621	-0.40193
16.96866	7.99832	-0.40193
16.97272	7.91043	-0.40193
16.97678	7.82254	-0.40193
16.98083	7.73465	-0.40193
16.98489	7.64676	-0.40193
16.98895	7.64676	-0.40193
16.99301	7.55887	-0.40193
16.99706	7.44901	-0.40193
17.00112	7.36112	-0.40193
17.00518	7.36112	-0.40193
17.00923	7.27323	-0.40193
17.01329	7.18534	-0.40193
17.01735	7.09744	-0.40193
17.02141	7.00955	-0.40193
17.02546	6.92166	-0.40193
17.02952	6.92166	-0.40193
17.03358	6.83377	-0.40193
17.03786	6.72391	-0.40193
17.04191	6.63602	-0.40193
17.04598	6.52616	-0.40193
17.05003	6.52616	-0.40193
17.05409	6.43827	-0.40193
17.05815	6.32840	-0.40193
17.06221	6.24051	-0.40193
17.06628	6.13065	-0.40193
17.07034	6.13065	-0.40193
17.07439	6.04276	-0.40193
17.07845	5.93289	-0.40193
17.08251	5.84500	-0.40193
17.08657	5.73514	-0.40193
17.09062	5.73514	-0.40193
17.09468	5.62528	-0.40193
17.09874	5.53739	-0.40193
17.10280	5.44950	-0.40193
17.10686	5.33963	-0.40193
17.11090	5.25174	-0.40193
17.11496	5.25174	-0.40193
17.11902	5.14188	-0.40193
17.12307	5.05399	-0.40193
17.12713	4.94412	-0.40193
17.13119	4.94412	-0.40193
17.13525	4.83426	-0.40193
17.13953	4.72440	-0.40193
17.14359	4.63651	-0.40193
17.14766	4.54862	-0.40193
17.15171	4.43875	-0.40193
17.15577	4.43875	-0.40193
17.15983	4.32889	-0.40193
17.16389	4.21903	-0.40193
17.16795	4.13114	-0.40193
17.17201	4.02127	-0.40193
17.17607	4.02127	-0.40193
17.18013	3.91141	-0.40193
17.18418	3.80155	-0.40193
17.18824	3.71366	-0.40193
17.19230	3.62577	-0.40193
17.19636	3.49393	-0.40193
17.20041	3.49393	-0.40193
17.20447	3.40604	-0.40193
17.20853	3.29618	-0.40193
17.21258	3.18631	-0.40193
17.21664	3.07645	-0.40193
17.22070	3.07645	-0.40193
17.22476	2.96659	-0.40193
17.22881	2.87869	-0.40193
17.23287	2.79080	-0.40193
17.23693	2.68094	-0.40193
17.24121	2.57108	-0.40193
17.24528	2.57108	-0.40193
17.24935	2.46121	-0.40193
17.25340	2.37332	-0.40193
17.25746	2.26346	-0.40193
17.26152	2.15360	-0.40193
17.26558	2.15360	-0.40193
17.26967	2.06571	-0.40193
17.27374	1.95584	-0.40193
17.27780	1.86795	-0.40193
17.28186	1.75809	-0.40193
17.28592	1.75809	-0.40193
17.28997	1.64823	-0.40193
17.29403	1.56034	-0.40193
17.29809	1.45047	-0.40193
17.30215	1.34061	-0.40193
17.30620	1.34061	-0.40193
17.31026	1.25272	-0.40193
17.31432	1.14286	-0.40193
17.31837	1.03299	-0.40193
17.32243	0.92313	-0.40193
17.32649	0.92313	-0.40193
17.33055	0.83524	-0.40193
17.33460	0.72537	-0.40193
17.33866	0.63748	-0.40193
17.34295	0.52762	-0.40193
17.34701	0.52762	-0.40193
17.35107	0.43973	-0.40193
17.35513	0.32987	-0.40193
17.35919	0.24198	-0.40193
17.36325	0.15409	-0.40193
17.36730	0.04422	-0.40193
17.37136	0.04422	-0.40193
17.37540	-0.04367	-0.40193
17.37946	-0.15353	-0.40193
17.38352	-0.24142	-0.40193
17.38758	-0.32931	-0.40193
17.39163	-0.32931	-0.40193
17.39569	-0.43918	-0.40193
17.39975	-0.50509	-0.40193
17.40381	-0.61496	-0.40193
17.40786	-0.70285	-0.40193
17.41192	-0.79074	-0.40193
17.41598	-0.79074	-0.40193
17.42004	-0.90060	-0.40193
17.42409	-0.98849	-0.40193
17.42815	-1.07638	-0.40193
17.43221	-1.07638	-0.40193
17.43626	-1.16427	-0.40193
17.44032	-1.25216	-0.40193
17.44460	-1.31808	-0.40193
17.44866	-1.42795	-0.40193
17.45272	-1.51584	-0.40193
17.45678	-1.51584	-0.40193
17.46083	-1.60373	-0.40193
17.46489	-1.69162	-0.40193
17.46895	-1.77951	-0.40193
17.47301	-1.86740	-0.40193
17.47707	-1.86740	-0.40193
17.48113	-1.95529	-0.40193
17.48518	-2.02121	-0.40193
17.48924	-2.13107	-0.40193
17.49330	-2.19699	-0.40193
17.49735	-2.28488	-0.40193
17.50141	-2.28488	-0.40193
17.50547	-2.37277	-0.40193
17.50952	-2.46066	-0.40193
17.51358	-2.52658	-0.40193
17.51764	-2.61447	-0.40193
17.52169	-2.61447	-0.40193
17.52575	-2.70236	-0.40193
17.52981	-2.76828	-0.40193
17.53386	-2.83420	-0.40193
17.53792	-2.92209	-0.40193
17.54198	-2.92209	-0.40193
17.54628	-3.00998	-0.40193
17.55034	-3.07589	-0.40193
17.55440	-3.14181	-0.40193
17.55846	-3.25168	-0.40193
17.56251	-3.31759	-0.40193
17.56657	-3.31759	-0.40193
17.57063	-3.38351	-0.40193
17.57469	-3.47140	-0.40193
17.57875	-3.53732	-0.40193
17.58281	-3.53732	-0.40193
17.58687	-3.60324	-0.40193
17.59090	-3.66916	-0.40193
17.59496	-3.75705	-0.40193
17.59902	-3.82297	-0.40193
17.60307	-3.82297	-0.40193
17.60713	-3.88888	-0.40193
17.61119	-3.95480	-0.40193
17.61524	-4.02072	-0.40193
17.61930	-4.08664	-0.40193
17.62336	-4.15256	-0.40193
17.62742	-4.15256	-0.40193
17.63147	-4.21847	-0.40193
17.63553	-4.28439	-0.40193
17.63959	-4.35031	-0.40193
17.64364	-4.39425	-0.40193
17.64794	-4.39425	-0.40193
17.65200	-4.46017	-0.40193
17.65606	-4.52609	-0.40193
17.66012	-4.57004	-0.40193
17.66418	-4.63595	-0.40193
17.66824	-4.70187	-0.40193
17.67229	-4.70187	-0.40193
17.67636	-4.76779	-0.40193
17.68042	-4.81173	-0.40193
17.68448	-4.85568	-0.40193
17.68853	-4.92160	-0.40193
17.69259	-4.92160	-0.40193
17.69665	-4.98752	-0.40193
17.70071	-5.03146	-0.40193
17.70476	-5.07541	-0.40193
17.70882	-5.11935	-0.40193
17.71288	-5.11935	-0.40193
17.71693	-5.18527	-0.40193
17.72099	-5.22922	-0.40193
17.72505	-5.27316	-0.40193
17.72911	-5.31711	-0.40193
17.73317	-5.31711	-0.40193
17.73723	-5.38302	-0.40193
17.74129	-5.40500	-0.40193
17.74535	-5.44894	-0.40193
17.74963	-5.49289	-0.40193
17.75370	-5.53683	-0.40193
17.75775	-5.53683	-0.40193
17.76181	-5.58078	-0.40193
17.76587	-5.64670	-0.40193
17.76993	-5.66867	-0.40193
17.77398	-5.71261	-0.40193
17.77805	-5.71261	-0.40193
17.78211	-5.75656	-0.40193
17.78617	-5.77853	-0.40193
17.79023	-5.82248	-0.40193
17.79428	-5.86642	-0.40193
17.79834	-5.88839	-0.40193
17.80240	-5.88839	-0.40193
17.80645	-5.93234	-0.40193
17.81051	-5.95431	-0.40193
17.81457	-5.99826	-0.40193
17.81863	-6.02023	-0.40193
17.82268	-6.02023	-0.40193
17.82674	-6.04220	-0.40193
17.83080	-6.08615	-0.40193
17.83485	-6.10812	-0.40193
17.83890	-6.10812	-0.40193
17.84296	-6.13009	-0.40193
17.84702	-6.15207	-0.40193
17.85130	-6.17404	-0.40193
17.85536	-6.21798	-0.40193
17.85942	-6.21798	-0.40193
17.86348	-6.23996	-0.40193
17.86754	-6.26193	-0.40193
17.87159	-6.28390	-0.40193
17.87565	-6.30588	-0.40193
17.87971	-6.30588	-0.40193
17.88377	-6.30588	-0.40193
17.88783	-6.32785	-0.40193
17.89189	-6.34982	-0.40193
17.89594	-6.37179	-0.40193
17.90000	-6.37179	-0.40193
17.90406	-6.37179	-0.40193
17.90812	-6.39377	-0.40193
17.91217	-6.39377	-0.40193
17.91623	-6.39377	-0.40193
17.92029	-6.41574	-0.40193
17.92434	-6.41574	-0.40193
17.92840	-6.41574	-0.40193
17.93246	-6.43771	-0.40193
17.93652	-6.45968	-0.40193
17.94057	-6.45968	-0.40193
17.94463	-6.45968	-0.40193
17.94869	-6.45968	-0.40193
17.95297	-6.45968	-0.40193
17.95704	-6.45968	-0.40193
17.96110	-6.45968	-0.40193
17.96516	-6.45968	-0.40193
17.96921	-6.45968	-0.40193
17.97327	-6.45968	-0.40193
17.97733	-6.45968	-0.40193
17.98139	-6.45968	-0.40193
17.98545	-6.45968	-0.40193
17.98951	-6.45968	-0.40193
17.99357	-6.45968	-0.40193
17.99763	-6.45968	-0.40193
18.00168	-6.45968	-0.40193
18.00574	-6.45968	-0.40193
18.00980	-6.43771	-0.40193
18.01385	-6.43771	-0.40193
18.01791	-6.43771	-0.40193
18.02197	-6.43771	-0.40193
18.02603	-6.41574	-0.40193
18.03008	-6.39377	-0.40193
18.03414	-6.39377	-0.40193
18.03820	-6.39377	-0.40193
18.04226	-6.39377	-0.40193
18.04632	-6.37179	-0.40193
18.05038	-6.34982	-0.40193
18.05466	-6.34982	-0.40193
18.05872	-6.34982	-0.40193
18.06278	-6.32785	-0.40193
18.06684	-6.30588	-0.40193
18.07090	-6.28390	-0.40193
18.07496	-6.26193	-0.40193
18.07901	-6.26193	-0.40193
18.08308	-6.26193	-0.40193
18.08714	-6.23996	-0.40193
18.09120	-6.21798	-0.40193
18.09525	-6.17404	-0.40193
18.09931	-6.17404	-0.40193
18.10337	-6.15207	-0.40193
18.10743	-6.15207	-0.40193
18.11149	-6.10812	-0.40193
18.11555	-6.08615	-0.40193
18.11961	-6.08615	-0.40193
18.12366	-6.06418	-0.40193
18.12772	-6.04220	-0.40193
18.13178	-6.02023	-0.40193
18.13584	-5.99826	-0.40193
18.13989	-5.99826	-0.40193
18.14395	-5.95431	-0.40193
18.14801	-5.93234	-0.40193
18.15207	-5.91037	-0.40193
18.15634	-5.86642	-0.40193
18.16040	-5.86642	-0.40193
18.16446	-5.84445	-0.40193
18.16853	-5.80050	-0.40193
18.17258	-5.77853	-0.40193
18.17664	-5.73459	-0.40193
18.18070	-5.71261	-0.40193
18.18480	-5.69064	-0.40193
18.18886	-5.69064	-0.40193
18.19292	-5.64670	-0.40193
18.19698	-5.60275	-0.40193
18.20104	-5.55881	-0.40193
18.20510	-5.55881	-0.40193
18.20915	-5.53683	-0.40193
18.21321	-5.49289	-0.40193
18.21727	-5.47091	-0.40193
18.22132	-5.42697	-0.40193
18.22538	-5.38302	-0.40193
18.22944	-5.38302	-0.40193
18.23350	-5.33908	-0.40193
18.23755	-5.29513	-0.40193
18.24161	-5.27316	-0.40193
18.24571	-5.22922	-0.40193
18.24976	-5.18527	-0.40193
18.25382	-5.18527	-0.40193
18.25813	-5.14132	-0.40193
18.26218	-5.09738	-0.40193
18.26624	-5.05343	-0.40193
18.27030	-5.00949	-0.40193
18.27435	-5.00949	-0.40193
18.27842	-4.96554	-0.40193
18.28247	-4.92160	-0.40193
18.28654	-4.87765	-0.40193
18.29060	-4.83371	-0.40193
18.29466	-4.83371	-0.40193
18.29872	-4.78976	-0.40193
18.30277	-4.74582	-0.40193
18.30683	-4.70187	-0.40193
18.31089	-4.65793	-0.40193
18.31490	-4.65793	-0.40193
18.31896	-4.59201	-0.40193
18.32301	-4.54806	-0.40193
18.32707	-4.50412	-0.40193
18.33113	-4.46017	-0.40193
18.33518	-4.46017	-0.40193
18.33924	-4.41623	-0.40193
18.34330	-4.35031	-0.40193
18.34736	-4.30636	-0.40193
18.35142	-4.26242	-0.40193
18.35547	-4.26242	-0.40193
18.35976	-4.19650	-0.40193
18.36382	-4.15256	-0.40193
18.36788	-4.08664	-0.40193
18.37193	-4.04269	-0.40193
18.37599	-4.04269	-0.40193
18.38005	-3.99875	-0.40193
18.38411	-3.95480	-0.40193
18.38817	-3.88888	-0.40193
18.39223	-3.84494	-0.40193
18.39628	-3.77902	-0.40193
18.40035	-3.77902	-0.40193
18.40440	-3.73507	-0.40193
18.40846	-3.66916	-0.40193
18.41252	-3.62521	-0.40193
18.41658	-3.55929	-0.40193
18.42063	-3.51535	-0.40193
18.42469	-3.51535	-0.40193
18.42875	-3.44943	-0.40193
18.43280	-3.40548	-0.40193
18.43686	-3.33957	-0.40193
18.44092	-3.33957	-0.40193
18.44497	-3.27365	-0.40193
18.44904	-3.22970	-0.40193
18.45309	-3.16379	-0.40193
18.45715	-3.09787	-0.40193
18.46146	-3.09787	-0.40193
18.46552	-3.05392	-0.40193
18.46957	-3.00998	-0.40193
18.47363	-2.94406	-0.40193
18.47769	-2.87814	-0.40193
18.48175	-2.81222	-0.40193
18.48580	-2.81222	-0.40193
18.48987	-2.76828	-0.40193
18.49393	-2.70236	-0.40193
18.49799	-2.63644	-0.40193
18.50205	-2.57052	-0.40193
18.50610	-2.52658	-0.40193
18.51016	-2.52658	-0.40193
18.51422	-2.46066	-0.40193
18.51828	-2.41672	-0.40193
18.52233	-2.35080	-0.40193
18.52639	-2.28488	-0.40193
18.53045	-2.28488	-0.40193
18.53450	-2.21896	-0.40193
18.53856	-2.15304	-0.40193
18.54262	-2.08713	-0.40193
18.54668	-2.04318	-0.40193
18.55074	-1.99923	-0.40193
18.55479	-1.99923	-0.40193
18.55885	-1.93332	-0.40193
18.56314	-1.86740	-0.40193
18.56720	-1.80148	-0.40193
18.57125	-1.73556	-0.40193
18.57531	-1.73556	-0.40193
18.57937	-1.66964	-0.40193
18.58342	-1.60373	-0.40193
18.58748	-1.55978	-0.40193
18.59154	-1.55978	-0.40193
18.59560	-1.49386	-0.40193
18.59966	-1.42795	-0.40193
18.60372	-1.36203	-0.40193
18.60778	-1.29611	-0.40193
18.61183	-1.29611	-0.40193
18.61589	-1.25216	-0.40193
18.61995	-1.18625	-0.40193
18.62401	-1.12033	-0.40193
18.62806	-1.05441	-0.40193
18.63212	-1.05441	-0.40193
18.63618	-0.98849	-0.40193
18.64023	-0.94455	-0.40193
18.64429	-0.90060	-0.40193
18.64835	-0.83468	-0.40193
18.65241	-0.76877	-0.40193
18.65647	-0.76877	-0.40193
18.66053	-0.70285	-0.40193
18.66483	-0.63693	-0.40193
18.66888	-0.59298	-0.40193
18.67294	-0.52707	-0.40193
18.67700	-0.48312	-0.40193
18.68106	-0.48312	-0.40193
18.68511	-0.41720	-0.40193
18.68917	-0.35129	-0.40193
18.69324	-0.28537	-0.40193
18.69729	-0.24142	-0.40193
18.70135	-0.24142	-0.40193
18.70541	-0.17550	-0.40193
18.70947	-0.10959	-0.40193
18.71352	-0.06564	-0.40193
18.71758	-0.06564	-0.40193
18.72164	0.00028	-0.40193
18.72570	0.04422	-0.40193
18.72975	0.11014	-0.40193
18.73381	0.15409	-0.40193
18.73787	0.22000	-0.40193
18.74192	0.22000	-0.40193
18.74598	0.28592	-0.40193
18.75004	0.35184	-0.40193
18.75410	0.39578	-0.40193
18.75816	0.46170	-0.40193
18.76221	0.48368	-0.40193
18.76651	0.48368	-0.40193
18.77056	0.54959	-0.40193
18.77462	0.61551	-0.40193
18.77868	0.68143	-0.40193
18.78274	0.72537	-0.40193
18.78679	0.72537	-0.40193
18.79085	0.79129	-0.40193
18.79491	0.83524	-0.40193
18.79897	0.90116	-0.40193
18.80303	0.94510	-0.40193
18.80709	0.98905	-0.40193
18.81114	0.98905	-0.40193
18.81520	1.03299	-0.40193
18.81926	1.09891	-0.40193
18.82332	1.16483	-0.40193
18.82737	1.20877	-0.40193
18.83143	1.20877	-0.40193
18.83549	1.25272	-0.40193
18.83954	1.31864	-0.40193
18.84360	1.36258	-0.40193
18.84766	1.42850	-0.40193
18.85172	1.42850	-0.40193
18.85578	1.47244	-0.40193
18.85984	1.51639	-0.40193
18.86389	1.58231	-0.40193
18.86818	1.62625	-0.40193
18.87224	1.62625	-0.40193
18.87629	1.67020	-0.40193
18.88035	1.71414	-0.40193
18.88441	1.78006	-0.40193
18.88847	1.78006	-0.40193
18.89252	1.82401	-0.40193
18.89659	1.86795	-0.40193
18.90065	1.91190	-0.40193
18.90471	1.95584	-0.40193
18.90876	1.99979	-0.40193
18.91282	1.99979	-0.40193
18.91688	2.06571	-0.40193
18.92094	2.10965	-0.40193
18.92499	2.15360	-0.40193
18.92905	2.19754	-0.40193
18.93311	2.21952	-0.40193
18.93716	2.21952	-0.40193
18.94122	2.28543	-0.40193
18.94528	2.32938	-0.40193
18.94934	2.37332	-0.40193
18.95340	2.41727	-0.40193
18.95746	2.41727	-0.40193
18.96151	2.43924	-0.40193
18.96557	2.48319	-0.40193
18.96986	2.54911	-0.40193
18.97392	2.57108	-0.40193
18.97798	2.61502	-0.40193
18.98203	2.61502	-0.40193
18.98609	2.65897	-0.40193
18.99016	2.70291	-0.40193
18.99422	2.72489	-0.40193
18.99829	2.76883	-0.40193
19.00235	2.76883	-0.40193
19.00641	2.81278	-0.40193
19.01046	2.85672	-0.40193
19.01452	2.90067	-0.40193
19.01858	2.92264	-0.40193
19.02264	2.92264	-0.40193
19.02669	2.94461	-0.40193
19.03075	2.98856	-0.40193
19.03481	3.03250	-0.40193
19.03886	3.07645	-0.40193
19.04290	3.07645	-0.40193
19.04696	3.09842	-0.40193
19.05102	3.12039	-0.40193
19.05508	3.16434	-0.40193
19.05913	3.20828	-0.40193
19.06319	3.23026	-0.40193
19.06725	3.23026	-0.40193
19.07156	3.27420	-0.40193
19.07562	3.29618	-0.40193
19.07968	3.31815	-0.40193
19.08373	3.34012	-0.40193
19.08779	3.34012	-0.40193
19.09185	3.36209	-0.40193
19.09591	3.40604	-0.40193
19.09997	3.42801	-0.40193
19.10403	3.47196	-0.40193
19.10808	3.47196	-0.40193
19.11215	3.49393	-0.40193
19.11621	3.53787	-0.40193
19.12026	3.55985	-0.40193
19.12432	3.58182	-0.40193
19.12838	3.58182	-0.40193
19.13244	3.60379	-0.40193
19.13649	3.62577	-0.40193
19.14055	3.64774	-0.40193
19.14461	3.64774	-0.40193
19.14866	3.66971	-0.40193
19.15272	3.69168	-0.40193
19.15678	3.71366	-0.40193
19.16083	3.73563	-0.40193
19.16489	3.75760	-0.40193
19.16895	3.75760	-0.40193
19.17324	3.77957	-0.40193
19.17730	3.80155	-0.40193
19.18135	3.80155	-0.40193
19.18541	3.84549	-0.40193
19.18947	3.84549	-0.40193
19.19353	3.84549	-0.40193
19.19758	3.86746	-0.40193
19.20165	3.88944	-0.40193
19.20571	3.91141	-0.40193
19.20977	3.91141	-0.40193
19.21382	3.91141	-0.40193
19.21788	3.93338	-0.40193
19.22194	3.93338	-0.40193
19.22600	3.95536	-0.40193
19.23005	3.95536	-0.40193
19.23411	3.97733	-0.40193
19.23817	3.97733	-0.40193
19.24222	3.97733	-0.40193
19.24628	3.99930	-0.40193
19.25034	3.99930	-0.40193
19.25439	4.02127	-0.40193
19.25845	4.02127	-0.40193
19.26251	4.02127	-0.40193
19.26657	4.02127	-0.40193
19.27062	4.04325	-0.40193
19.27494	4.04325	-0.40193
19.27900	4.06522	-0.40193
19.28305	4.06522	-0.40193
19.28712	4.06522	-0.40193
19.29118	4.06522	-0.40193
19.29523	4.06522	-0.40193
19.29929	4.08719	-0.40193
19.30335	4.08719	-0.40193
19.30741	4.08719	-0.40193
19.31147	4.06522	-0.40193
19.31553	4.06522	-0.40193
19.31958	4.08719	-0.40193
19.32364	4.08719	-0.40193
19.32770	4.06522	-0.40193
19.33176	4.08719	-0.40193
19.33581	4.08719	-0.40193
19.33987	4.06522	-0.40193
19.34393	4.06522	-0.40193
19.34798	4.06522	-0.40193
19.35204	4.06522	-0.40193
19.35610	4.06522	-0.40193
19.36016	4.06522	-0.40193
19.36421	4.06522	-0.40193
19.36827	4.06522	-0.40193
19.37233	4.06522	-0.40193
19.37662	4.04325	-0.40193
19.38068	4.04325	-0.40193
19.38474	4.04325	-0.40193
19.38880	4.04325	-0.40193
19.39285	4.04325	-0.40193
19.39691	4.02127	-0.40193
19.40097	4.02127	-0.40193
19.40504	3.99930	-0.40193
19.40910	3.99930	-0.40193
19.41316	3.99930	-0.40193
19.41721	3.97733	-0.40193
19.42127	3.97733	-0.40193
19.42533	3.95536	-0.40193
19.42938	3.95536	-0.40193
19.43344	3.93338	-0.40193
19.43750	3.93338	-0.40193
19.44156	3.91141	-0.40193
19.44561	3.91141	-0.40193
19.44967	3.91141	-0.40193
19.45373	3.88944	-0.40193
19.45778	3.88944	-0.40193
19.46184	3.86746	-0.40193
19.46590	3.84549	-0.40193
19.46995	3.84549	-0.40193
19.47401	3.82352	-0.40193
19.47831	3.80155	-0.40193
19.48237	3.80155	-0.40193
19.48643	3.77957	-0.40193
19.49048	3.75760	-0.40193
19.49454	3.75760	-0.40193
19.49860	3.73563	-0.40193
19.50266	3.71366	-0.40193
19.50673	3.71366	-0.40193
19.51079	3.69168	-0.40193
19.51485	3.69168	-0.40193
19.51890	3.64774	-0.40193
19.52296	3.62577	-0.40193
19.52702	3.60379	-0.40193
19.53108	3.60379	-0.40193
19.53513	3.55985	-0.40193
19.53919	3.55985	-0.40193
19.54325	3.53787	-0.40193
19.54730	3.51590	-0.40193
19.55136	3.49393	-0.40193
19.55542	3.47196	-0.40193
19.55948	3.47196	-0.40193
19.56353	3.44998	-0.40193
19.56759	3.42801	-0.40193
19.57165	3.38407	-0.40193
19.57570	3.36209	-0.40193
19.58000	3.34012	-0.40193
19.58406	3.34012	-0.40193
19.58812	3.29618	-0.40193
19.59217	3.27420	-0.40193
19.59623	3.25223	-0.40193
19.60029	3.25223	-0.40193
19.60435	3.23026	-0.40193
19.60841	3.18631	-0.40193
19.61247	3.16434	-0.40193
19.61653	3.12039	-0.40193
19.62058	3.12039	-0.40193
19.62464	3.09842	-0.40193
19.62870	3.05448	-0.40193
19.63275	3.03250	-0.40193
19.63681	2.98856	-0.40193
19.64087	2.98856	-0.40193
19.64493	2.96659	-0.40193
19.64898	2.92264	-0.40193
19.65304	2.90067	-0.40193
19.65710	2.85672	-0.40193
19.66115	2.83475	-0.40193
19.66521	2.83475	-0.40193
19.66927	2.79080	-0.40193
19.67332	2.76883	-0.40193
19.67738	2.72489	-0.40193
19.68168	2.70291	-0.40193
19.68574	2.70291	-0.40193
19.68980	2.65897	-0.40193
19.69386	2.61502	-0.40193
19.69791	2.59305	-0.40193
19.70197	2.54911	-0.40193
19.70603	2.50516	-0.40193
19.71009	2.50516	-0.40193
19.71415	2.46121	-0.40193
19.71821	2.43924	-0.40193
19.72227	2.39530	-0.40193
19.72632	2.35135	-0.40193
19.73038	2.35135	-0.40193
19.73444	2.30741	-0.40193
19.73850	2.26346	-0.40193
19.74255	2.24149	-0.40193
19.74661	2.19754	-0.40193
19.75067	2.19754	-0.40193
19.75472	2.15360	-0.40193
19.75878	2.13162	-0.40193
19.76284	2.08768	-0.40193
19.76690	2.04373	-0.40193
19.77096	2.04373	-0.40193
19.77502	1.99979	-0.40193
19.77907	1.95584	-0.40193
19.78336	1.91190	-0.40193
19.78742	1.86795	-0.40193
19.79148	1.82401	-0.40193
19.79554	1.82401	-0.40193
19.79959	1.78006	-0.40193
19.80365	1.75809	-0.40193
19.80771	1.71414	-0.40193
19.81177	1.67020	-0.40193
19.81583	1.67020	-0.40193
19.81989	1.60428	-0.40193
19.82394	1.58231	-0.40193
19.82800	1.53836	-0.40193
19.83206	1.49442	-0.40193
19.83612	1.45047	-0.40193
19.84017	1.45047	-0.40193
19.84423	1.40653	-0.40193
19.84829	1.36258	-0.40193
19.85234	1.31864	-0.40193
19.85640	1.27469	-0.40193
19.86046	1.27469	-0.40193
19.86451	1.23075	-0.40193
19.86857	1.18680	-0.40193
19.87263	1.14286	-0.40193
19.87669	1.14286	-0.40193
19.88074	1.09891	-0.40193
19.88503	1.05496	-0.40193
19.88909	1.01102	-0.40193
19.89315	0.96707	-0.40193
19.89720	0.96707	-0.40193
19.90126	0.92313	-0.40193
19.90532	0.87918	-0.40193
19.90937	0.83524	-0.40193
19.91344	0.79129	-0.40193
19.91750	0.74735	-0.40193
19.92156	0.74735	-0.40193
19.92561	0.72537	-0.40193
19.92967	0.65946	-0.40193
19.93373	0.61551	-0.40193
19.93779	0.57157	-0.40193
19.94184	0.57157	-0.40193
19.94590	0.52762	-0.40193
19.94996	0.48368	-0.40193
19.95401	0.43973	-0.40193
19.95807	0.39578	-0.40193
19.96213	0.37381	-0.40193
19.96618	0.37381	-0.40193
19.97024	0.30789	-0.40193
19.97430	0.26395	-0.40193
19.97835	0.22000	-0.40193
19.98241	0.17606	-0.40193
19.98670	0.17606	-0.40193
19.99076	0.13211	-0.40193
19.99482	0.08817	-0.40193
19.99888	0.04422	-0.40193
20.00290	0.02225	-0.40193
20.00696	-0.02170	-0.40193
20.01101	-0.02170	-0.40193
20.01508	-0.06564	-0.40193
20.01913	-0.10959	-0.40193
20.02319	-0.15353	-0.40193
20.02725	-0.15353	-0.40193
20.03131	-0.19748	-0.40193
20.03536	-0.24142	-0.40193
20.03942	-0.28537	-0.40193
20.04348	-0.30734	-0.40193
20.04753	-0.35129	-0.40193
20.05159	-0.35129	-0.40193
20.05565	-0.39523	-0.40193
20.05970	-0.43918	-0.40193
20.06376	-0.48312	-0.40193
20.06782	-0.52707	-0.40193
20.07187	-0.52707	-0.40193
20.07593	-0.57101	-0.40193
20.07999	-0.59298	-0.40193
20.08404	-0.63693	-0.40193
20.08834	-0.68088	-0.40193
20.09239	-0.72482	-0.40193
20.09645	-0.72482	-0.40193
20.10051	-0.76877	-0.40193
20.10457	-0.79074	-0.40193
20.10862	-0.83468	-0.40193
20.11268	-0.87863	-0.40193
20.11674	-0.87863	-0.40193
20.12080	-0.92257	-0.40193
20.12486	-0.94455	-0.40193
20.12892	-0.98849	-0.40193
20.13298	-1.01047	-0.40193
20.13703	-1.01047	-0.40193
20.14109	-1.05441	-0.40193
20.14515	-1.09836	-0.40193
20.14920	-1.14230	-0.40193
20.15326	-1.14230	-0.40193
20.15732	-1.16427	-0.40193
20.16138	-1.18625	-0.40193
20.16543	-1.23019	-0.40193
20.16949	-1.25216	-0.40193
20.17355	-1.29611	-0.40193
20.17760	-1.29611	-0.40193
20.18166	-1.31808	-0.40193
20.18572	-1.36203	-0.40193
20.19002	-1.38400	-0.40193
20.19407	-1.42795	-0.40193
20.19813	-1.42795	-0.40193
20.20219	-1.44992	-0.40193
20.20625	-1.47189	-0.40193
20.21030	-1.51584	-0.40193
20.21436	-1.53781	-0.40193
20.21843	-1.55978	-0.40193
20.22249	-1.55978	-0.40193
20.22654	-1.60373	-0.40193
20.23060	-1.62570	-0.40193
20.23466	-1.66964	-0.40193
20.23871	-1.69162	-0.40193
20.24277	-1.69162	-0.40193
20.24683	-1.71359	-0.40193
20.25089	-1.73556	-0.40193
20.25490	-1.77951	-0.40193
20.25896	-1.77951	-0.40193
20.26301	-1.82345	-0.40193
20.26707	-1.82345	-0.40193
20.27113	-1.84543	-0.40193
20.27518	-1.86740	-0.40193
20.27924	-1.88937	-0.40193
20.28330	-1.88937	-0.40193
20.28735	-1.91134	-0.40193
20.29164	-1.93332	-0.40193
20.29570	-1.95529	-0.40193
20.29976	-1.97726	-0.40193
20.30382	-1.99923	-0.40193
20.30788	-1.99923	-0.40193
20.31194	-2.02121	-0.40193
20.31599	-2.04318	-0.40193
20.32006	-2.08713	-0.40193
20.32411	-2.08713	-0.40193
20.32817	-2.08713	-0.40193
20.33223	-2.10910	-0.40193
20.33629	-2.13107	-0.40193
20.34035	-2.13107	-0.40193
20.34440	-2.15304	-0.40193
20.34846	-2.17502	-0.40193
20.35252	-2.17502	-0.40193
20.35657	-2.19699	-0.40193
20.36063	-2.19699	-0.40193
20.36469	-2.21896	-0.40193
20.36875	-2.24093	-0.40193
20.37280	-2.24093	-0.40193
20.37686	-2.24093	-0.40193
20.38092	-2.26291	-0.40193
20.38498	-2.28488	-0.40193
20.38903	-2.28488	-0.40193
20.39331	-2.28488	-0.40193
20.39737	-2.28488	-0.40193
20.40143	-2.30685	-0.40193
20.40548	-2.32882	-0.40193
20.40954	-2.32882	-0.40193
20.41360	-2.32882	-0.40193
20.41766	-2.32882	-0.40193
20.42173	-2.35080	-0.40193
20.42579	-2.35080	-0.40193
20.42985	-2.37277	-0.40193
20.43390	-2.37277	-0.40193
20.43796	-2.37277	-0.40193
20.44202	-2.37277	-0.40193
20.44608	-2.37277	-0.40193
20.45013	-2.37277	-0.40193
20.45419	-2.37277	-0.40193
20.45825	-2.39474	-0.40193
20.46231	-2.39474	-0.40193
20.46637	-2.39474	-0.40193
20.47043	-2.39474	-0.40193
20.47449	-2.39474	-0.40193
20.47855	-2.39474	-0.40193
20.48261	-2.39474	-0.40193
20.48667	-2.39474	-0.40193
20.49073	-2.39474	-0.40193
20.49504	-2.41672	-0.40193
20.49910	-2.41672	-0.40193
20.50317	-2.41672	-0.40193
20.50723	-2.39474	-0.40193
20.51130	-2.39474	-0.40193
20.51536	-2.39474	-0.40193
20.51941	-2.39474	-0.40193
20.52347	-2.39474	-0.40193
20.52754	-2.39474	-0.40193
20.53160	-2.39474	-0.40193
20.53566	-2.39474	-0.40193
20.53972	-2.37277	-0.40193
20.54408	-2.37277	-0.40193
20.54814	-2.37277	-0.40193
20.55220	-2.37277	-0.40193
20.55626	-2.37277	-0.40193
20.56033	-2.35080	-0.40193
20.56439	-2.35080	-0.40193
20.56845	-2.35080	-0.40193
20.57251	-2.32882	-0.40193
20.57658	-2.32882	-0.40193
20.58063	-2.32882	-0.40193
20.58469	-2.30685	-0.40193
20.58876	-2.30685	-0.40193
20.59288	-2.30685	-0.40193
20.59716	-2.28488	-0.40193
20.60121	-2.28488	-0.40193
20.60527	-2.26291	-0.40193
20.60949	-2.26291	-0.40193
20.61355	-2.26291	-0.40193
20.61760	-2.24093	-0.40193
20.62166	-2.21896	-0.40193
20.62586	-2.21896	-0.40193
20.62992	-2.19699	-0.40193
20.63398	-2.19699	-0.40193
20.63804	-2.17502	-0.40193
20.64213	-2.17502	-0.40193
20.64619	-2.15304	-0.40193
20.65025	-2.13107	-0.40193
20.65431	-2.13107	-0.40193
20.65838	-2.13107	-0.40193
20.66244	-2.10910	-0.40193
20.66650	-2.08713	-0.40193
20.67056	-2.06515	-0.40193
20.67461	-2.06515	-0.40193
20.67867	-2.04318	-0.40193
20.68273	-2.04318	-0.40193
20.68679	-2.02121	-0.40193
20.69085	-1.99923	-0.40193
20.69490	-1.99923	-0.40193
20.69919	-1.97726	-0.40193
20.70325	-1.95529	-0.40193
20.70731	-1.93332	-0.40193
20.71137	-1.91134	-0.40193
20.71543	-1.91134	-0.40193
20.71948	-1.88937	-0.40193
20.72354	-1.86740	-0.40193
20.72761	-1.86740	-0.40193
20.73167	-1.82345	-0.40193
20.73572	-1.80148	-0.40193
20.73978	-1.80148	-0.40193
20.74384	-1.77951	-0.40193
20.74789	-1.75754	-0.40193
20.75195	-1.73556	-0.40193
20.75601	-1.71359	-0.40193
20.76007	-1.71359	-0.40193
20.76412	-1.69162	-0.40193
20.76818	-1.66964	-0.40193
20.77224	-1.64767	-0.40193
20.77629	-1.62570	-0.40193
20.78035	-1.60373	-0.40193
20.78441	-1.60373	-0.40193
20.78846	-1.55978	-0.40193
20.79255	-1.53781	-0.40193
20.79660	-1.51584	-0.40193
20.80090	-1.49386	-0.40193
20.80496	-1.49386	-0.40193
20.80902	-1.47189	-0.40193
20.81308	-1.44992	-0.40193
20.81714	-1.40597	-0.40193
20.82119	-1.38400	-0.40193
20.82525	-1.36203	-0.40193
20.82932	-1.36203	-0.40193
20.83338	-1.34006	-0.40193
20.83744	-1.29611	-0.40193
20.84150	-1.27414	-0.40193
20.84556	-1.25216	-0.40193
20.84962	-1.25216	-0.40193
20.85367	-1.20822	-0.40193
20.85773	-1.18625	-0.40193
20.86179	-1.16427	-0.40193
20.86585	-1.14230	-0.40193
20.86991	-1.14230	-0.40193
20.87397	-1.09836	-0.40193
20.87803	-1.07638	-0.40193
20.88209	-1.05441	-0.40193
20.88615	-1.03244	-0.40193
20.89021	-1.03244	-0.40193
20.89427	-0.98849	-0.40193
20.89833	-0.96652	-0.40193
20.90261	-0.92257	-0.40193
20.90667	-0.90060	-0.40193
20.91073	-0.90060	-0.40193
20.91479	-0.87863	-0.40193
20.91884	-0.83468	-0.40193
20.92290	-0.81271	-0.40193
20.92696	-0.76877	-0.40193
20.93102	-0.76877	-0.40193
20.93508	-0.74679	-0.40193
20.93914	-0.72482	-0.40193
20.94320	-0.70285	-0.40193
20.94726	-0.65890	-0.40193
20.95131	-0.63693	-0.40193
20.95537	-0.63693	-0.40193
20.95943	-0.61496	-0.40193
20.96349	-0.57101	-0.40193
20.96755	-0.54904	-0.40193
20.97160	-0.50509	-0.40193
20.97566	-0.50509	-0.40193
20.97972	-0.48312	-0.40193
20.98378	-0.46115	-0.40193
20.98784	-0.41720	-0.40193
20.99190	-0.39523	-0.40193
20.99595	-0.39523	-0.40193
21.00001	-0.35129	-0.40193
21.00430	-0.32931	-0.40193
21.00836	-0.30734	-0.40193
21.01242	-0.28537	-0.40193
21.01648	-0.28537	-0.40193
21.02054	-0.24142	-0.40193
21.02459	-0.21945	-0.40193
21.02866	-0.17550	-0.40193
21.03272	-0.15353	-0.40193
21.03678	-0.13156	-0.40193
21.04084	-0.13156	-0.40193
21.04490	-0.08761	-0.40193
21.04896	-0.06564	-0.40193
21.05302	-0.04367	-0.40193
21.05707	0.00028	-0.40193
21.06114	0.00028	-0.40193
21.06519	0.02225	-0.40193
21.06925	0.04422	-0.40193
21.07331	0.08817	-0.40193
21.07737	0.11014	-0.40193
21.08143	0.15409	-0.40193
21.08549	0.15409	-0.40193
21.08954	0.17606	-0.40193
21.09360	0.19803	-0.40193
21.09767	0.24198	-0.40193
21.10173	0.26395	-0.40193
21.10602	0.26395	-0.40193
21.11008	0.28592	-0.40193
21.11414	0.30789	-0.40193
21.11820	0.35184	-0.40193
21.12226	0.37381	-0.40193
21.12632	0.39578	-0.40193
21.13038	0.39578	-0.40193
21.13445	0.43973	-0.40193
21.13851	0.46170	-0.40193
21.14257	0.48368	-0.40193
21.14663	0.52762	-0.40193
21.15069	0.52762	-0.40193
21.15475	0.57157	-0.40193
21.15881	0.59354	-0.40193
21.16288	0.61551	-0.40193
21.16690	0.61551	-0.40193
21.17096	0.63748	-0.40193
21.17502	0.68143	-0.40193
21.17908	0.70340	-0.40193
21.18313	0.74735	-0.40193
21.18719	0.74735	-0.40193
21.19125	0.76932	-0.40193
21.19530	0.79129	-0.40193
21.19936	0.81327	-0.40193
21.20342	0.85721	-0.40193
21.20771	0.87918	-0.40193
21.21176	0.87918	-0.40193
21.21582	0.92313	-0.40193
21.21988	0.94510	-0.40193
21.22394	0.96707	-0.40193
21.22800	0.98905	-0.40193
21.23206	0.98905	-0.40193
21.23613	1.03299	-0.40193
21.24019	1.05496	-0.40193
21.24425	1.09891	-0.40193
21.24831	1.12088	-0.40193
21.25236	1.14286	-0.40193
21.25642	1.14286	-0.40193
21.26048	1.16483	-0.40193
21.26454	1.18680	-0.40193
21.26860	1.23075	-0.40193
21.27266	1.25272	-0.40193
21.27672	1.25272	-0.40193
21.28077	1.27469	-0.40193
21.28483	1.29666	-0.40193
21.28889	1.31864	-0.40193
21.29295	1.34061	-0.40193
21.29700	1.34061	-0.40193
21.30107	1.38455	-0.40193
21.30513	1.40653	-0.40193
21.30941	1.42850	-0.40193
21.31347	1.45047	-0.40193
21.31753	1.45047	-0.40193
21.32159	1.47244	-0.40193
21.32564	1.49442	-0.40193
21.32970	1.51639	-0.40193
21.33376	1.53836	-0.40193
21.33783	1.58231	-0.40193
21.34189	1.58231	-0.40193
21.34595	1.60428	-0.40193
21.35001	1.62625	-0.40193
21.35407	1.64823	-0.40193
21.35812	1.67020	-0.40193
21.36218	1.67020	-0.40193
21.36624	1.69217	-0.40193
21.37029	1.71414	-0.40193
21.37435	1.73612	-0.40193
21.37841	1.75809	-0.40193
21.38247	1.78006	-0.40193
21.38652	1.78006	-0.40193
21.39058	1.82401	-0.40193
21.39464	1.82401	-0.40193
21.39870	1.84598	-0.40193
21.40277	1.86795	-0.40193
21.40683	1.86795	-0.40193
21.41112	1.86795	-0.40193
21.41518	1.91190	-0.40193
21.41924	1.91190	-0.40193
21.42330	1.93387	-0.40193
21.42736	1.93387	-0.40193
21.43142	1.95584	-0.40193
21.43548	1.97782	-0.40193
21.43955	1.99979	-0.40193
21.44361	1.99979	-0.40193
21.44766	1.99979	-0.40193
21.45172	2.04373	-0.40193
21.45578	2.04373	-0.40193
21.45984	2.06571	-0.40193
21.46390	2.08768	-0.40193
21.46796	2.08768	-0.40193
21.47202	2.10965	-0.40193
21.47608	2.10965	-0.40193
21.48013	2.13162	-0.40193
21.48419	2.15360	-0.40193
21.48825	2.15360	-0.40193
21.49231	2.15360	-0.40193
21.49637	2.17557	-0.40193
21.50043	2.19754	-0.40193
21.50449	2.21952	-0.40193
21.50855	2.21952	-0.40193
21.51283	2.21952	-0.40193
21.51689	2.24149	-0.40193
21.52095	2.26346	-0.40193
21.52501	2.26346	-0.40193
21.52907	2.26346	-0.40193
21.53313	2.26346	-0.40193
21.53719	2.28543	-0.40193
21.54126	2.30741	-0.40193
21.54532	2.32938	-0.40193
21.54938	2.32938	-0.40193
21.55344	2.35135	-0.40193
21.55750	2.35135	-0.40193
21.56156	2.35135	-0.40193
21.56562	2.37332	-0.40193
21.56968	2.37332	-0.40193
21.57373	2.39530	-0.40193
21.57780	2.39530	-0.40193
21.58187	2.39530	-0.40193
21.58592	2.41727	-0.40193
21.58998	2.41727	-0.40193
21.59404	2.43924	-0.40193
21.59810	2.43924	-0.40193
21.60216	2.43924	-0.40193
21.60622	2.46121	-0.40193
21.61028	2.46121	-0.40193
21.61456	2.46121	-0.40193
21.61862	2.46121	-0.40193
21.62267	2.48319	-0.40193
21.62674	2.48319	-0.40193
21.63079	2.50516	-0.40193
21.63485	2.50516	-0.40193
21.63890	2.50516	-0.40193
21.64297	2.50516	-0.40193
21.64702	2.52713	-0.40193
21.65108	2.52713	-0.40193
21.65514	2.54911	-0.40193
21.65920	2.54911	-0.40193
21.66326	2.54911	-0.40193
21.66731	2.54911	-0.40193
21.67137	2.57108	-0.40193
21.67543	2.57108	-0.40193
21.67949	2.57108	-0.40193
21.68354	2.57108	-0.40193
21.68760	2.57108	-0.40193
21.69166	2.57108	-0.40193
21.69572	2.59305	-0.40193
21.69978	2.59305	-0.40193
21.70386	2.59305	-0.40193
21.70792	2.59305	-0.40193
21.71198	2.61502	-0.40193
21.71626	2.61502	-0.40193
21.72032	2.61502	-0.40193
21.72438	2.61502	-0.40193
21.72844	2.61502	-0.40193
21.73249	2.61502	-0.40193
21.73655	2.63700	-0.40193
21.74061	2.61502	-0.40193
21.74468	2.63700	-0.40193
21.74874	2.63700	-0.40193
21.75280	2.63700	-0.40193
21.75686	2.63700	-0.40193
21.76091	2.63700	-0.40193
21.76497	2.63700	-0.40193
21.76903	2.63700	-0.40193
21.77308	2.63700	-0.40193
21.77714	2.63700	-0.40193
21.78120	2.63700	-0.40193
21.78526	2.63700	-0.40193
21.78931	2.63700	-0.40193
21.79337	2.63700	-0.40193
21.79743	2.63700	-0.40193
21.80148	2.63700	-0.40193
21.80555	2.63700	-0.40193
21.80961	2.65897	-0.40193
21.81366	2.65897	-0.40193
21.81796	2.63700	-0.40193
21.82202	2.63700	-0.40193
21.82608	2.63700	-0.40193
21.83013	2.63700	-0.40193
21.83419	2.63700	-0.40193
21.83825	2.63700	-0.40193
21.84230	2.63700	-0.40193
21.84638	2.63700	-0.40193
21.85043	2.63700	-0.40193
21.85449	2.61502	-0.40193
21.85855	2.61502	-0.40193
21.86261	2.61502	-0.40193
21.86667	2.61502	-0.40193
21.87073	2.61502	-0.40193
21.87478	2.61502	-0.40193
21.87884	2.59305	-0.40193
21.88290	2.59305	-0.40193
21.88696	2.59305	-0.40193
21.89102	2.59305	-0.40193
21.89508	2.57108	-0.40193
21.89913	2.57108	-0.40193
21.90319	2.57108	-0.40193
21.90725	2.57108	-0.40193
21.91130	2.57108	-0.40193
21.91536	2.54911	-0.40193
21.91964	2.54911	-0.40193
21.92370	2.54911	-0.40193
21.92776	2.54911	-0.40193
21.93182	2.54911	-0.40193
21.93587	2.52713	-0.40193
21.93993	2.52713	-0.40193
21.94399	2.52713	-0.40193
21.94806	2.52713	-0.40193
21.95212	2.50516	-0.40193
21.95617	2.50516	-0.40193
21.96023	2.50516	-0.40193
21.96429	2.48319	-0.40193
21.96835	2.48319	-0.40193
21.97241	2.46121	-0.40193
21.97647	2.46121	-0.40193
21.98052	2.43924	-0.40193
21.98458	2.43924	-0.40193
21.98864	2.43924	-0.40193
21.99270	2.41727	-0.40193
21.99675	2.41727	-0.40193
22.00081	2.39530	-0.40193
22.00487	2.39530	-0.40193
22.00892	2.39530	-0.40193
22.01298	2.37332	-0.40193
22.01704	2.37332	-0.40193
22.02131	2.35135	-0.40193
22.02537	2.35135	-0.40193
22.02943	2.35135	-0.40193
22.03349	2.32938	-0.40193
22.03755	2.30741	-0.40193
22.04160	2.30741	-0.40193
22.04566	2.30741	-0.40193
22.04973	2.28543	-0.40193
22.05379	2.26346	-0.40193
22.05785	2.26346	-0.40193
22.06190	2.24149	-0.40193
22.06596	2.21952	-0.40193
22.07002	2.21952	-0.40193
22.07408	2.21952	-0.40193
22.07813	2.19754	-0.40193
22.08219	2.17557	-0.40193
22.08625	2.17557	-0.40193
22.09030	2.15360	-0.40193
22.09436	2.15360	-0.40193
22.09842	2.15360	-0.40193
22.10248	2.13162	-0.40193
22.10654	2.10965	-0.40193
22.11060	2.10965	-0.40193
22.11466	2.10965	-0.40193
22.11871	2.08768	-0.40193
22.12301	2.06571	-0.40193
22.12707	2.04373	-0.40193
22.13112	2.02176	-0.40193
22.13518	2.02176	-0.40193
22.13924	2.02176	-0.40193
22.14330	1.99979	-0.40193
22.14735	1.97782	-0.40193
22.15143	1.95584	-0.40193
22.15548	1.93387	-0.40193
22.15954	1.93387	-0.40193
22.16360	1.93387	-0.40193
22.16766	1.91190	-0.40193
22.17171	1.88993	-0.40193
22.17577	1.88993	-0.40193
22.17983	1.86795	-0.40193
22.18389	1.84598	-0.40193
22.18794	1.82401	-0.40193
22.19200	1.80203	-0.40193
22.19606	1.80203	-0.40193
22.20012	1.78006	-0.40193
22.20417	1.75809	-0.40193
22.20823	1.75809	-0.40193
22.21229	1.73612	-0.40193
22.21634	1.73612	-0.40193
22.22040	1.71414	-0.40193
22.22469	1.69217	-0.40193
22.22874	1.67020	-0.40193
22.23280	1.64823	-0.40193
22.23686	1.62625	-0.40193
22.24092	1.62625	-0.40193
22.24497	1.60428	-0.40193
22.24903	1.58231	-0.40193
22.25310	1.56034	-0.40193
22.25715	1.53836	-0.40193
22.26122	1.53836	-0.40193
22.26528	1.53836	-0.40193
22.26935	1.51639	-0.40193
22.27341	1.49442	-0.40193
22.27747	1.47244	-0.40193
22.28153	1.45047	-0.40193
22.28560	1.45047	-0.40193
22.28966	1.42850	-0.40193
22.29372	1.40653	-0.40193
22.29778	1.38455	-0.40193
22.30185	1.36258	-0.40193
22.30591	1.34061	-0.40193
22.30997	1.34061	-0.40193
22.31403	1.31864	-0.40193
22.31809	1.29666	-0.40193
22.32215	1.27469	-0.40193
22.32645	1.27469	-0.40193
22.33051	1.27469	-0.40193
22.33457	1.23075	-0.40193
22.33863	1.23075	-0.40193
22.34270	1.20877	-0.40193
22.34676	1.18680	-0.40193
22.35082	1.18680	-0.40193
22.35491	1.16483	-0.40193
22.35898	1.14286	-0.40193
22.36304	1.12088	-0.40193
22.36710	1.09891	-0.40193
22.37116	1.09891	-0.40193
22.37522	1.09891	-0.40193
22.37928	1.07694	-0.40193
22.38334	1.05496	-0.40193
22.38740	1.01102	-0.40193
22.39147	1.01102	-0.40193
22.39553	1.01102	-0.40193
22.39959	0.98905	-0.40193
22.40365	0.96707	-0.40193
22.40771	0.94510	-0.40193
22.41177	0.92313	-0.40193
22.41583	0.92313	-0.40193
22.41988	0.90116	-0.40193
22.42394	0.87918	-0.40193
22.42823	0.85721	-0.40193
22.43229	0.85721	-0.40193
22.43635	0.85721	-0.40193
22.44041	0.83524	-0.40193
22.44447	0.81327	-0.40193
22.44852	0.79129	-0.40193
22.45258	0.76932	-0.40193
22.45666	0.76932	-0.40193
22.46073	0.74735	-0.40193
22.46478	0.74735	-0.40193
22.46884	0.72537	-0.40193
22.47290	0.70340	-0.40193
22.47696	0.68143	-0.40193
22.48101	0.68143	-0.40193
22.48507	0.68143	-0.40193
22.48913	0.65946	-0.40193
22.49319	0.63748	-0.40193
22.49725	0.63748	-0.40193
22.50130	0.61551	-0.40193
22.50536	0.61551	-0.40193
22.50943	0.59354	-0.40193
22.51348	0.57157	-0.40193
22.51754	0.57157	-0.40193
22.52160	0.57157	-0.40193
22.52566	0.54959	-0.40193
22.52993	0.52762	-0.40193
22.53399	0.52762	-0.40193
22.53805	0.50565	-0.40193
22.54212	0.50565	-0.40193
22.54617	0.48368	-0.40193
22.55023	0.48368	-0.40193
22.55429	0.46170	-0.40193
22.55840	0.46170	-0.40193
22.56246	0.43973	-0.40193
22.56652	0.43973	-0.40193
22.57057	0.43973	-0.40193
22.57463	0.41776	-0.40193
22.57869	0.41776	-0.40193
22.58275	0.39578	-0.40193
22.58681	0.39578	-0.40193
22.59086	0.39578	-0.40193
22.59490	0.37381	-0.40193
22.59896	0.37381	-0.40193
22.60301	0.35184	-0.40193
22.60707	0.35184	-0.40193
22.61113	0.35184	-0.40193
22.61519	0.35184	-0.40193
22.61924	0.32987	-0.40193
22.62330	0.32987	-0.40193
22.62736	0.32987	-0.40193
22.63166	0.30789	-0.40193
22.63571	0.30789	-0.40193
22.63977	0.30789	-0.40193
22.64383	0.28592	-0.40193
22.64789	0.28592	-0.40193
22.65195	0.28592	-0.40193
22.65600	0.28592	-0.40193
22.66007	0.28592	-0.40193
22.66413	0.26395	-0.40193
22.66819	0.26395	-0.40193
22.67225	0.26395	-0.40193
22.67631	0.26395	-0.40193
22.68036	0.24198	-0.40193
22.68442	0.24198	-0.40193
22.68848	0.24198	-0.40193
22.69254	0.24198	-0.40193
22.69659	0.22000	-0.40193
22.70065	0.22000	-0.40193
22.70471	0.22000	-0.40193
22.70877	0.22000	-0.40193
22.71282	0.22000	-0.40193
22.71688	0.22000	-0.40193
22.72094	0.19803	-0.40193
22.72500	0.19803	-0.40193
22.72905	0.19803	-0.40193
22.73335	0.19803	-0.40193
22.73741	0.19803	-0.40193
22.74147	0.19803	-0.40193
22.74552	0.19803	-0.40193
22.74958	0.17606	-0.40193
22.75364	0.19803	-0.40193
22.75770	0.19803	-0.40193
22.76177	0.17606	-0.40193
22.76583	0.17606	-0.40193
22.76989	0.17606	-0.40193
22.77394	0.17606	-0.40193
22.77800	0.17606	-0.40193
22.78206	0.17606	-0.40193
22.78612	0.17606	-0.40193
22.79018	0.17606	-0.40193
22.79423	0.17606	-0.40193
22.79829	0.17606	-0.40193
22.80235	0.17606	-0.40193
22.80641	0.17606	-0.40193
22.81046	0.17606	-0.40193
22.81452	0.17606	-0.40193
22.81858	0.17606	-0.40193
22.82264	0.17606	-0.40193
22.82669	0.17606	-0.40193
22.83075	0.17606	-0.40193
22.83506	0.17606	-0.40193
22.83911	0.17606	-0.40193
22.84317	0.17606	-0.40193
22.84723	0.17606	-0.40193
22.85129	0.17606	-0.40193
22.85534	0.19803	-0.40193
22.85940	0.17606	-0.40193
22.86346	0.19803	-0.40193
22.86752	0.19803	-0.40193
22.87158	0.19803	-0.40193
22.87564	0.19803	-0.40193
22.87970	0.19803	-0.40193
22.88375	0.19803	-0.40193
22.88781	0.19803	-0.40193
22.89187	0.22000	-0.40193
22.89593	0.19803	-0.40193
22.89998	0.22000	-0.40193
22.90404	0.22000	-0.40193
22.90810	0.22000	-0.40193
22.91217	0.22000	-0.40193
22.91622	0.22000	-0.40193
22.92028	0.22000	-0.40193
22.92434	0.22000	-0.40193
22.92840	0.22000	-0.40193
22.93245	0.24198	-0.40193
22.93675	0.24198	-0.40193
22.94081	0.24198	-0.40193
22.94486	0.26395	-0.40193
22.94892	0.26395	-0.40193
22.95298	0.24198	-0.40193
22.95703	0.26395	-0.40193
22.96109	0.26395	-0.40193
22.96516	0.26395	-0.40193
22.96922	0.26395	-0.40193
22.97328	0.28592	-0.40193
22.97734	0.28592	-0.40193
22.98139	0.28592	-0.40193
22.98545	0.28592	-0.40193
22.98951	0.28592	-0.40193
22.99356	0.28592	-0.40193
22.99762	0.30789	-0.40193
23.00168	0.30789	-0.40193
23.00574	0.30789	-0.40193
23.00979	0.30789	-0.40193
23.01386	0.30789	-0.40193
23.01792	0.32987	-0.40193
23.02198	0.32987	-0.40193
23.02603	0.32987	-0.40193
23.03009	0.35184	-0.40193
23.03415	0.35184	-0.40193
23.03844	0.35184	-0.40193
23.04250	0.35184	-0.40193
23.04656	0.35184	-0.40193
23.05062	0.35184	-0.40193
23.05467	0.35184	-0.40193
23.05873	0.35184	-0.40193
23.06279	0.37381	-0.40193
23.06686	0.37381	-0.40193
23.07090	0.37381	-0.40193
23.07496	0.39578	-0.40193
23.07902	0.39578	-0.40193
23.08307	0.39578	-0.40193
23.08713	0.39578	-0.40193
23.09119	0.39578	-0.40193
23.09525	0.39578	-0.40193
23.09930	0.39578	-0.40193
23.10336	0.41776	-0.40193
23.10742	0.41776	-0.40193
23.11147	0.41776	-0.40193
23.11554	0.43973	-0.40193
23.11959	0.43973	-0.40193
23.12365	0.43973	-0.40193
23.12771	0.43973	-0.40193
23.13177	0.41776	-0.40193
23.13582	0.43973	-0.40193
23.14012	0.43973	-0.40193
23.14418	0.43973	-0.40193
23.14824	0.46170	-0.40193
23.15229	0.46170	-0.40193
23.15635	0.46170	-0.40193
23.16041	0.46170	-0.40193
23.16447	0.46170	-0.40193
23.16853	0.46170	-0.40193
23.17260	0.46170	-0.40193
23.17666	0.46170	-0.40193
23.18072	0.48368	-0.40193
23.18477	0.48368	-0.40193
23.18883	0.48368	-0.40193
23.19289	0.48368	-0.40193
23.19695	0.50565	-0.40193
23.20100	0.50565	-0.40193
23.20506	0.50565	-0.40193
23.20912	0.50565	-0.40193
23.21318	0.50565	-0.40193
23.21725	0.50565	-0.40193
23.22130	0.52762	-0.40193
23.22536	0.52762	-0.40193
23.22942	0.52762	-0.40193
23.23347	0.52762	-0.40193
23.23753	0.52762	-0.40193
23.24182	0.52762	-0.40193
23.24588	0.52762	-0.40193
23.24994	0.52762	-0.40193
23.25399	0.52762	-0.40193
23.25805	0.52762	-0.40193
23.26211	0.54959	-0.40193
23.26617	0.54959	-0.40193
23.27023	0.54959	-0.40193
23.27429	0.54959	-0.40193
23.27835	0.54959	-0.40193
23.28241	0.54959	-0.40193
23.28647	0.57157	-0.40193
23.29052	0.54959	-0.40193
23.29458	0.54959	-0.40193
23.29864	0.57157	-0.40193
23.30270	0.57157	-0.40193
23.30676	0.57157	-0.40193
23.31081	0.57157	-0.40193
23.31487	0.57157	-0.40193
23.31890	0.59354	-0.40193
23.32296	0.57157	-0.40193
23.32701	0.59354	-0.40193
23.33107	0.59354	-0.40193
23.33513	0.59354	-0.40193
23.33918	0.59354	-0.40193
23.34348	0.59354	-0.40193
23.34754	0.59354	-0.40193
23.35159	0.59354	-0.40193
23.35565	0.59354	-0.40193
23.35971	0.59354	-0.40193
23.36377	0.61551	-0.40193
23.36783	0.59354	-0.40193
23.37189	0.61551	-0.40193
23.37595	0.61551	-0.40193
23.38001	0.61551	-0.40193
23.38407	0.61551	-0.40193
23.38813	0.61551	-0.40193
23.39218	0.61551	-0.40193
23.39624	0.61551	-0.40193
23.40030	0.61551	-0.40193
23.40436	0.61551	-0.40193
23.40842	0.63748	-0.40193
23.41248	0.63748	-0.40193
23.41654	0.63748	-0.40193
23.42059	0.63748	-0.40193
23.42465	0.63748	-0.40193
23.42871	0.63748	-0.40193
23.43277	0.63748	-0.40193
23.43682	0.63748	-0.40193
23.44088	0.63748	-0.40193
23.44518	0.63748	-0.40193
23.44923	0.63748	-0.40193
23.45329	0.63748	-0.40193
23.45735	0.63748	-0.40193
23.46141	0.63748	-0.40193
23.46546	0.63748	-0.40193
23.46952	0.63748	-0.40193
23.47359	0.65946	-0.40193
23.47764	0.65946	-0.40193
23.48170	0.65946	-0.40193
23.48576	0.65946	-0.40193
23.48982	0.65946	-0.40193
23.49387	0.65946	-0.40193
23.49793	0.65946	-0.40193
23.50199	0.65946	-0.40193
23.50605	0.65946	-0.40193
23.51010	0.65946	-0.40193
23.51416	0.65946	-0.40193
23.51822	0.65946	-0.40193
23.52228	0.68143	-0.40193
23.52634	0.68143	-0.40193
23.53039	0.65946	-0.40193
23.53445	0.65946	-0.40193
23.53851	0.68143	-0.40193
23.54257	0.68143	-0.40193
23.54687	0.68143	-0.40193
23.55090	0.68143	-0.40193
23.55496	0.68143	-0.40193
23.55902	0.68143	-0.40193
23.56308	0.68143	-0.40193
23.56713	0.68143	-0.40193
23.57119	0.68143	-0.40193
23.57526	0.68143	-0.40193
23.57932	0.68143	-0.40193
23.58337	0.68143	-0.40193
23.58743	0.70340	-0.40193
23.59149	0.70340	-0.40193
23.59555	0.70340	-0.40193
23.59960	0.70340	-0.40193
23.60366	0.70340	-0.40193
23.60772	0.70340	-0.40193
23.61178	0.70340	-0.40193
23.61583	0.70340	-0.40193
23.61989	0.70340	-0.40193
23.62395	0.70340	-0.40193
23.62800	0.70340	-0.40193
23.63206	0.70340	-0.40193
23.63612	0.70340	-0.40193
23.64018	0.70340	-0.40193
23.64423	0.70340	-0.40193
23.64853	0.70340	-0.40193
23.65259	0.72537	-0.40193
23.65664	0.72537	-0.40193
23.66070	0.72537	-0.40193
23.66476	0.72537	-0.40193
23.66882	0.72537	-0.40193
23.67288	0.70340	-0.40193
23.67695	0.72537	-0.40193
23.68100	0.72537	-0.40193
23.68506	0.72537	-0.40193
23.68912	0.72537	-0.40193
23.69318	0.72537	-0.40193
23.69723	0.72537	-0.40193
23.70129	0.72537	-0.40193
23.70535	0.74735	-0.40193
23.70940	0.74735	-0.40193
23.71346	0.74735	-0.40193
23.71752	0.74735	-0.40193
23.72158	0.74735	-0.40193
23.72563	0.74735	-0.40193
23.72969	0.74735	-0.40193
23.73375	0.74735	-0.40193
23.73780	0.76932	-0.40193
23.74186	0.76932	-0.40193
23.74592	0.76932	-0.40193
23.75021	0.74735	-0.40193
23.75427	0.76932	-0.40193
23.75833	0.76932	-0.40193
23.76239	0.76932	-0.40193
23.76644	0.76932	-0.40193
23.77050	0.76932	-0.40193
23.77456	0.76932	-0.40193
23.77862	0.79129	-0.40193
23.78268	0.76932	-0.40193
23.78674	0.76932	-0.40193
23.79080	0.76932	-0.40193
23.79485	0.79129	-0.40193
23.79890	0.79129	-0.40193
23.80296	0.79129	-0.40193
23.80701	0.79129	-0.40193
23.81107	0.79129	-0.40193
23.81513	0.79129	-0.40193
23.81919	0.81327	-0.40193
23.82324	0.81327	-0.40193
23.82730	0.81327	-0.40193
23.83136	0.81327	-0.40193
23.83542	0.81327	-0.40193
23.83947	0.81327	-0.40193
23.84353	0.81327	-0.40193
23.84759	0.81327	-0.40193
23.85188	0.81327	-0.40193
23.85594	0.83524	-0.40193
23.85999	0.83524	-0.40193
23.86405	0.83524	-0.40193
23.86811	0.83524	-0.40193
23.87217	0.83524	-0.40193
23.87622	0.83524	-0.40193
23.88028	0.85721	-0.40193
23.88434	0.85721	-0.40193
23.88840	0.85721	-0.40193
23.89246	0.85721	-0.40193
23.89652	0.85721	-0.40193
23.90057	0.85721	-0.40193
23.90463	0.85721	-0.40193
23.90869	0.87918	-0.40193
23.91274	0.87918	-0.40193
23.91680	0.87918	-0.40193
23.92086	0.87918	-0.40193
23.92492	0.90116	-0.40193
23.92898	0.87918	-0.40193
23.93303	0.90116	-0.40193
23.93709	0.90116	-0.40193
23.94115	0.90116	-0.40193
23.94521	0.90116	-0.40193
23.94926	0.90116	-0.40193
23.95355	0.90116	-0.40193
23.95760	0.90116	-0.40193
23.96166	0.92313	-0.40193
23.96572	0.92313	-0.40193
23.96978	0.92313	-0.40193
23.97383	0.92313	-0.40193
23.97789	0.92313	-0.40193
23.98196	0.92313	-0.40193
23.98602	0.94510	-0.40193
23.99008	0.94510	-0.40193
23.99413	0.94510	-0.40193
23.99819	0.94510	-0.40193
24.00225	0.94510	-0.40193
24.00630	0.94510	-0.40193
24.01036	0.96707	-0.40193
24.01442	0.96707	-0.40193
24.01848	0.96707	-0.40193
24.02253	0.96707	-0.40193
24.02660	0.96707	-0.40193
24.03066	0.96707	-0.40193
24.03471	0.98905	-0.40193
24.03877	0.98905	-0.40193
24.04283	0.98905	-0.40193
24.04689	0.98905	-0.40193
24.05090	0.98905	-0.40193
24.05519	0.98905	-0.40193
24.05924	0.98905	-0.40193
24.06330	1.01102	-0.40193
24.06736	1.01102	-0.40193
24.07142	1.01102	-0.40193
24.07547	1.01102	-0.40193
24.07953	1.01102	-0.40193
24.08360	1.03299	-0.40193
24.08766	1.03299	-0.40193
24.09171	1.03299	-0.40193
24.09577	1.03299	-0.40193
24.09983	1.03299	-0.40193
24.10389	1.03299	-0.40193
24.10794	1.03299	-0.40193
24.11200	1.03299	-0.40193
24.11606	1.05496	-0.40193
24.12011	1.05496	-0.40193
24.12417	1.05496	-0.40193
24.12823	1.05496	-0.40193
24.13229	1.05496	-0.40193
24.13635	1.05496	-0.40193
24.14040	1.05496	-0.40193
24.14446	1.05496	-0.40193
24.14852	1.05496	-0.40193
24.15257	1.05496	-0.40193
24.15686	1.07694	-0.40193
24.16092	1.07694	-0.40193
24.16498	1.07694	-0.40193
24.16903	1.07694	-0.40193
24.17309	1.07694	-0.40193
24.17715	1.07694	-0.40193
24.18121	1.09891	-0.40193
24.18528	1.07694	-0.40193
24.18934	1.09891	-0.40193
24.19340	1.07694	-0.40193
24.19745	1.07694	-0.40193
24.20151	1.09891	-0.40193
24.20557	1.09891	-0.40193
24.20963	1.09891	-0.40193
24.21368	1.09891	-0.40193
24.21774	1.09891	-0.40193
24.22180	1.09891	-0.40193
24.22586	1.09891	-0.40193
24.22992	1.09891	-0.40193
24.23398	1.09891	-0.40193
24.23804	1.09891	-0.40193
24.24210	1.09891	-0.40193
24.24616	1.09891	-0.40193
24.25022	1.12088	-0.40193
24.25427	1.12088	-0.40193
24.25855	1.12088	-0.40193
24.26261	1.12088	-0.40193
24.26667	1.12088	-0.40193
24.27073	1.12088	-0.40193
24.27478	1.12088	-0.40193
24.27884	1.12088	-0.40193
24.28290	1.12088	-0.40193
24.28697	1.12088	-0.40193
24.29103	1.12088	-0.40193
24.29508	1.12088	-0.40193
24.29914	1.12088	-0.40193
24.30320	1.12088	-0.40193
24.30725	1.14286	-0.40193
24.31131	1.12088	-0.40193
24.31537	1.14286	-0.40193
24.31943	1.14286	-0.40193
24.32348	1.14286	-0.40193
24.32754	1.14286	-0.40193
24.33160	1.14286	-0.40193
24.33565	1.14286	-0.40193
24.33971	1.14286	-0.40193
24.34377	1.14286	-0.40193
24.34783	1.14286	-0.40193
24.35188	1.14286	-0.40193
24.35594	1.14286	-0.40193
24.36023	1.14286	-0.40193
24.36428	1.14286	-0.40193
24.36834	1.14286	-0.40193
24.37240	1.14286	-0.40193
24.37646	1.14286	-0.40193
24.38051	1.14286	-0.40193
24.38457	1.14286	-0.40193
24.38864	1.16483	-0.40193
24.39270	1.14286	-0.40193
24.39675	1.16483	-0.40193
24.40082	1.14286	-0.40193
24.40488	1.16483	-0.40193
24.40894	1.16483	-0.40193
24.41299	1.16483	-0.40193
24.41705	1.16483	-0.40193
24.42111	1.16483	-0.40193
24.42516	1.16483	-0.40193
24.42922	1.16483	-0.40193
24.43329	1.16483	-0.40193
24.43735	1.16483	-0.40193
24.44140	1.16483	-0.40193
24.44546	1.16483	-0.40193
24.44952	1.16483	-0.40193
24.45358	1.16483	-0.40193
24.45763	1.16483	-0.40193
24.46191	1.16483	-0.40193
24.46597	1.16483	-0.40193
24.47003	1.16483	-0.40193
24.47409	1.16483	-0.40193
24.47815	1.18680	-0.40193
24.48220	1.16483	-0.40193
24.48626	1.16483	-0.40193
24.49033	1.16483	-0.40193
24.49439	1.16483	-0.40193
24.49845	1.16483	-0.40193
24.50250	1.16483	-0.40193
24.50656	1.16483	-0.40193
24.51062	1.16483	-0.40193
24.51467	1.18680	-0.40193
24.51873	1.16483	-0.40193
24.52279	1.16483	-0.40193
24.52685	1.16483	-0.40193
24.53090	1.16483	-0.40193
24.53496	1.16483	-0.40193
24.53902	1.16483	-0.40193
24.54307	1.16483	-0.40193
24.54713	1.18680	-0.40193
24.55119	1.18680	-0.40193
24.55525	1.18680	-0.40193
24.55930	1.16483	-0.40193
24.56360	1.18680	-0.40193
24.56766	1.16483	-0.40193
24.57172	1.16483	-0.40193
24.57577	1.16483	-0.40193
24.57983	1.16483	-0.40193
24.58389	1.16483	-0.40193
24.58795	1.16483	-0.40193
24.59201	1.16483	-0.40193
24.59607	1.16483	-0.40193
24.60013	1.16483	-0.40193
24.60419	1.16483	-0.40193
24.60824	1.16483	-0.40193
24.61230	1.16483	-0.40193
24.61636	1.16483	-0.40193
24.62041	1.16483	-0.40193
24.62447	1.16483	-0.40193
24.62853	1.16483	-0.40193
24.63259	1.16483	-0.40193
24.63664	1.16483	-0.40193
24.64070	1.16483	-0.40193
24.64476	1.14286	-0.40193
24.64881	1.16483	-0.40193
24.65287	1.16483	-0.40193
24.65693	1.14286	-0.40193
24.66099	1.16483	-0.40193
24.66527	1.16483	-0.40193
24.66933	1.16483	-0.40193
24.67339	1.14286	-0.40193
24.67744	1.14286	-0.40193
24.68150	1.14286	-0.40193
24.68556	1.14286	-0.40193
24.68962	1.14286	-0.40193
24.69369	1.14286	-0.40193
24.69775	1.14286	-0.40193
24.70181	1.14286	-0.40193
24.70587	1.14286	-0.40193
24.70994	1.14286	-0.40193
24.71401	1.12088	-0.40193
24.71807	1.12088	-0.40193
24.72213	1.12088	-0.40193
24.72619	1.12088	-0.40193
24.73025	1.12088	-0.40193
24.73431	1.12088	-0.40193
24.73836	1.12088	-0.40193
24.74242	1.12088	-0.40193
24.74648	1.12088	-0.40193
24.75053	1.12088	-0.40193
24.75459	1.12088	-0.40193
24.75865	1.12088	-0.40193
24.76271	1.12088	-0.40193
24.76700	1.09891	-0.40193
24.77105	1.09891	-0.40193
24.77511	1.09891	-0.40193
24.77917	1.09891	-0.40193
24.78323	1.09891	-0.40193
24.78729	1.09891	-0.40193
24.79135	1.09891	-0.40193
24.79544	1.09891	-0.40193
24.79950	1.07694	-0.40193
24.80356	1.07694	-0.40193
24.80762	1.07694	-0.40193
24.81167	1.07694	-0.40193
24.81573	1.07694	-0.40193
24.81979	1.07694	-0.40193
24.82384	1.07694	-0.40193
24.82790	1.07694	-0.40193
24.83196	1.07694	-0.40193
24.83604	1.07694	-0.40193
24.84010	1.05496	-0.40193
24.84416	1.05496	-0.40193
24.84821	1.05496	-0.40193
24.85227	1.05496	-0.40193
24.85633	1.05496	-0.40193
24.86038	1.05496	-0.40193
24.86444	1.05496	-0.40193
24.86874	1.05496	-0.40193
24.87280	1.05496	-0.40193
24.87686	1.03299	-0.40193
24.88092	1.03299	-0.40193
24.88498	1.03299	-0.40193
24.88904	1.03299	-0.40193
24.89310	1.03299	-0.40193
24.89716	1.03299	-0.40193
24.90122	1.03299	-0.40193
24.90528	1.03299	-0.40193
24.90934	1.03299	-0.40193
24.91339	1.03299	-0.40193
24.91745	1.03299	-0.40193
24.92151	1.03299	-0.40193
24.92557	1.03299	-0.40193
24.92962	1.03299	-0.40193
24.93368	1.03299	-0.40193
24.93775	1.01102	-0.40193
24.94180	1.01102	-0.40193
24.94586	1.01102	-0.40193
24.94992	1.01102	-0.40193
24.95398	1.01102	-0.40193
24.95803	1.01102	-0.40193
24.96209	1.01102	-0.40193
24.96615	1.01102	-0.40193
24.97045	1.01102	-0.40193
24.97451	1.01102	-0.40193
24.97856	1.01102	-0.40193
24.98262	1.01102	-0.40193
24.98668	1.01102	-0.40193
24.99074	1.01102	-0.40193
24.99479	1.01102	-0.40193
24.99886	1.01102	-0.40193
25.00291	0.98905	-0.40193
25.00696	0.98905	-0.40193
25.01102	0.98905	-0.40193
25.01508	0.98905	-0.40193
25.01914	0.98905	-0.40193
25.02319	0.98905	-0.40193
25.02725	0.98905	-0.40193
25.03131	0.98905	-0.40193
25.03536	0.98905	-0.40193
25.03942	0.98905	-0.40193
25.04348	0.96707	-0.40193
25.04754	0.98905	-0.40193
25.05160	0.98905	-0.40193
25.05565	0.96707	-0.40193
25.05971	0.96707	-0.40193
25.06377	0.96707	-0.40193
25.06782	0.96707	-0.40193
25.07212	0.96707	-0.40193
25.07618	0.96707	-0.40193
25.08024	0.96707	-0.40193
25.08430	0.94510	-0.40193
25.08835	0.96707	-0.40193
25.09241	0.96707	-0.40193
25.09647	0.96707	-0.40193
25.10054	0.94510	-0.40193
25.10459	0.94510	-0.40193
25.10865	0.94510	-0.40193
25.11271	0.94510	-0.40193
25.11677	0.94510	-0.40193
25.12082	0.94510	-0.40193
25.12488	0.94510	-0.40193
25.12894	0.92313	-0.40193
25.13299	0.92313	-0.40193
25.13705	0.92313	-0.40193
25.14111	0.92313	-0.40193
25.14516	0.92313	-0.40193
25.14922	0.92313	-0.40193
25.15328	0.92313	-0.40193
25.15734	0.92313	-0.40193
25.16139	0.90116	-0.40193
25.16545	0.92313	-0.40193
25.16951	0.90116	-0.40193
25.17381	0.90116	-0.40193
25.17787	0.90116	-0.40193
25.18192	0.90116	-0.40193
25.18598	0.90116	-0.40193
25.19004	0.90116	-0.40193
25.19410	0.90116	-0.40193
25.19815	0.90116	-0.40193
25.20222	0.90116	-0.40193
25.20628	0.90116	-0.40193
25.21034	0.90116	-0.40193
25.21440	0.87918	-0.40193
25.21845	0.87918	-0.40193
25.22251	0.87918	-0.40193
25.22657	0.87918	-0.40193
25.23062	0.87918	-0.40193
25.23468	0.87918	-0.40193
25.23874	0.87918	-0.40193
25.24281	0.87918	-0.40193
25.24686	0.87918	-0.40193
25.25090	0.85721	-0.40193
25.25496	0.85721	-0.40193
25.25901	0.85721	-0.40193
25.26307	0.85721	-0.40193
25.26713	0.85721	-0.40193
25.27118	0.85721	-0.40193
25.27548	0.83524	-0.40193
25.27954	0.85721	-0.40193
25.28360	0.85721	-0.40193
25.28766	0.83524	-0.40193
25.29171	0.83524	-0.40193
25.29577	0.85721	-0.40193
25.29983	0.83524	-0.40193
25.30389	0.83524	-0.40193
25.30795	0.83524	-0.40193
25.31201	0.83524	-0.40193
25.31606	0.83524	-0.40193
25.32012	0.83524	-0.40193
25.32418	0.83524	-0.40193
25.32823	0.83524	-0.40193
25.33229	0.83524	-0.40193
25.33635	0.81327	-0.40193
25.34041	0.81327	-0.40193
25.34446	0.81327	-0.40193
25.34852	0.81327	-0.40193
25.35258	0.81327	-0.40193
25.35664	0.81327	-0.40193
25.36069	0.81327	-0.40193
25.36475	0.81327	-0.40193
25.36881	0.81327	-0.40193
25.37286	0.81327	-0.40193
25.37717	0.81327	-0.40193
25.38123	0.81327	-0.40193
25.38528	0.81327	-0.40193
25.38934	0.81327	-0.40193
25.39340	0.81327	-0.40193
25.39745	0.79129	-0.40193
25.40151	0.81327	-0.40193
25.40558	0.79129	-0.40193
25.40964	0.79129	-0.40193
25.41370	0.79129	-0.40193
25.41775	0.79129	-0.40193
25.42181	0.79129	-0.40193
25.42587	0.79129	-0.40193
25.42993	0.76932	-0.40193
25.43398	0.79129	-0.40193
25.43804	0.79129	-0.40193
25.44210	0.79129	-0.40193
25.44616	0.79129	-0.40193
25.45022	0.76932	-0.40193
25.45428	0.79129	-0.40193
25.45834	0.79129	-0.40193
25.46239	0.76932	-0.40193
25.46645	0.79129	-0.40193
25.47051	0.76932	-0.40193
25.47456	0.76932	-0.40193
25.47886	0.76932	-0.40193
25.48290	0.76932	-0.40193
25.48696	0.76932	-0.40193
25.49101	0.76932	-0.40193
25.49507	0.76932	-0.40193
25.49913	0.76932	-0.40193
25.50318	0.76932	-0.40193
25.50725	0.74735	-0.40193
25.51131	0.74735	-0.40193
25.51537	0.74735	-0.40193
25.51942	0.74735	-0.40193
25.52348	0.74735	-0.40193
25.52754	0.74735	-0.40193
25.53159	0.74735	-0.40193
25.53565	0.74735	-0.40193
25.53971	0.74735	-0.40193
25.54377	0.74735	-0.40193
25.54783	0.74735	-0.40193
25.55188	0.74735	-0.40193
25.55594	0.74735	-0.40193
25.56000	0.74735	-0.40193
25.56405	0.74735	-0.40193
25.56811	0.72537	-0.40193
25.57217	0.72537	-0.40193
25.57622	0.72537	-0.40193
25.58052	0.72537	-0.40193
25.58458	0.72537	-0.40193
25.58864	0.72537	-0.40193
25.59270	0.72537	-0.40193
25.59675	0.72537	-0.40193
25.60081	0.72537	-0.40193
25.60487	0.72537	-0.40193
25.60893	0.72537	-0.40193
25.61299	0.72537	-0.40193
25.61705	0.72537	-0.40193
25.62110	0.70340	-0.40193
25.62516	0.72537	-0.40193
25.62922	0.72537	-0.40193
25.63328	0.70340	-0.40193
25.63733	0.70340	-0.40193
25.64139	0.70340	-0.40193
25.64545	0.70340	-0.40193
25.64951	0.70340	-0.40193
25.65357	0.70340	-0.40193
25.65763	0.70340	-0.40193
25.66168	0.70340	-0.40193
25.66574	0.70340	-0.40193
25.66980	0.70340	-0.40193
25.67386	0.68143	-0.40193
25.67791	0.68143	-0.40193
25.68220	0.70340	-0.40193
25.68626	0.68143	-0.40193
25.69032	0.68143	-0.40193
25.69438	0.68143	-0.40193
25.69843	0.68143	-0.40193
25.70249	0.68143	-0.40193
25.70655	0.68143	-0.40193
25.71062	0.68143	-0.40193
25.71468	0.68143	-0.40193
25.71873	0.68143	-0.40193
25.72279	0.68143	-0.40193
25.72685	0.68143	-0.40193
25.73090	0.68143	-0.40193
25.73496	0.68143	-0.40193
25.73902	0.68143	-0.40193
25.74308	0.68143	-0.40193
25.74713	0.65946	-0.40193
25.75119	0.65946	-0.40193
25.75525	0.65946	-0.40193
25.75931	0.65946	-0.40193
25.76337	0.65946	-0.40193
25.76742	0.65946	-0.40193
25.77148	0.65946	-0.40193
25.77554	0.65946	-0.40193
25.77960	0.65946	-0.40193
25.78388	0.65946	-0.40193
25.78793	0.65946	-0.40193
25.79199	0.65946	-0.40193
25.79605	0.65946	-0.40193
25.80011	0.65946	-0.40193
25.80416	0.65946	-0.40193
25.80822	0.65946	-0.40193
25.81228	0.65946	-0.40193
25.81634	0.65946	-0.40193
25.82040	0.65946	-0.40193
25.82446	0.65946	-0.40193
25.82851	0.65946	-0.40193
25.83257	0.65946	-0.40193
25.83663	0.63748	-0.40193
25.84068	0.63748	-0.40193
25.84474	0.65946	-0.40193
25.84880	0.65946	-0.40193
25.85288	0.63748	-0.40193
25.85694	0.63748	-0.40193
25.86099	0.65946	-0.40193
25.86505	0.65946	-0.40193
25.86910	0.63748	-0.40193
25.87316	0.63748	-0.40193
25.87721	0.63748	-0.40193
25.88127	0.63748	-0.40193
25.88553	0.63748	-0.40193
25.88959	0.63748	-0.40193
25.89365	0.63748	-0.40193
25.89770	0.63748	-0.40193
25.90176	0.63748	-0.40193
25.90581	0.63748	-0.40193
25.90987	0.63748	-0.40193
25.91393	0.63748	-0.40193
25.91798	0.63748	-0.40193
25.92204	0.63748	-0.40193
25.92610	0.63748	-0.40193
25.93015	0.63748	-0.40193
25.93421	0.63748	-0.40193
25.93826	0.63748	-0.40193
25.94232	0.63748	-0.40193
25.94637	0.63748	-0.40193
25.95043	0.63748	-0.40193
25.95451	0.63748	-0.40193
25.95856	0.63748	-0.40193
25.96262	0.63748	-0.40193
25.96668	0.65946	-0.40193
25.97074	0.65946	-0.40193
25.97479	0.63748	-0.40193
25.97885	0.63748	-0.40193
25.98290	0.63748	-0.40193
25.98720	0.65946	-0.40193
25.99126	0.63748	-0.40193
25.99531	0.63748	-0.40193
25.99937	0.65946	-0.40193
26.00343	0.63748	-0.40193
26.00748	0.65946	-0.40193
26.01154	0.65946	-0.40193
26.01560	0.65946	-0.40193
26.01966	0.65946	-0.40193
26.02372	0.65946	-0.40193
26.02777	0.65946	-0.40193
26.03183	0.65946	-0.40193
26.03589	0.65946	-0.40193
26.03994	0.65946	-0.40193
26.04400	0.65946	-0.40193
26.04806	0.65946	-0.40193
26.05211	0.65946	-0.40193
26.05617	0.65946	-0.40193
26.06023	0.68143	-0.40193
26.06428	0.68143	-0.40193
26.06834	0.68143	-0.40193
26.07240	0.68143	-0.40193
26.07646	0.68143	-0.40193
26.08051	0.68143	-0.40193
26.08457	0.68143	-0.40193
26.08887	0.70340	-0.40193
26.09292	0.70340	-0.40193
26.09698	0.70340	-0.40193
26.10104	0.72537	-0.40193
26.10510	0.72537	-0.40193
26.10915	0.70340	-0.40193
26.11321	0.72537	-0.40193
26.11728	0.72537	-0.40193
26.12134	0.72537	-0.40193
26.12539	0.72537	-0.40193
26.12945	0.72537	-0.40193
26.13351	0.74735	-0.40193
26.13757	0.74735	-0.40193
26.14162	0.74735	-0.40193
26.14568	0.74735	-0.40193
26.14974	0.74735	-0.40193
26.15379	0.74735	-0.40193
26.15785	0.76932	-0.40193
26.16191	0.76932	-0.40193
26.16597	0.76932	-0.40193
26.17002	0.76932	-0.40193
26.17408	0.79129	-0.40193
26.17814	0.79129	-0.40193
26.18220	0.79129	-0.40193
26.18625	0.79129	-0.40193
26.19055	0.79129	-0.40193
26.19460	0.81327	-0.40193
26.19866	0.81327	-0.40193
26.20272	0.81327	-0.40193
26.20678	0.83524	-0.40193
26.21083	0.83524	-0.40193
26.21490	0.83524	-0.40193
26.21897	0.83524	-0.40193
26.22302	0.85721	-0.40193
26.22708	0.85721	-0.40193
26.23114	0.85721	-0.40193
26.23519	0.85721	-0.40193
26.23925	0.87918	-0.40193
26.24331	0.87918	-0.40193
26.24737	0.90116	-0.40193
26.25142	0.90116	-0.40193
26.25548	0.90116	-0.40193
26.25954	0.90116	-0.40193
26.26359	0.90116	-0.40193
26.26765	0.92313	-0.40193
26.27171	0.92313	-0.40193
26.27576	0.94510	-0.40193
26.27982	0.94510	-0.40193
26.28388	0.94510	-0.40193
26.28794	0.96707	-0.40193
26.29223	0.96707	-0.40193
26.29628	0.96707	-0.40193
26.30034	0.96707	-0.40193
26.30440	0.98905	-0.40193
26.30846	0.98905	-0.40193
26.31251	0.98905	-0.40193
26.31657	1.01102	-0.40193
26.32064	1.01102	-0.40193
26.32469	1.03299	-0.40193
26.32875	1.03299	-0.40193
26.33281	1.03299	-0.40193
26.33687	1.03299	-0.40193
26.34092	1.05496	-0.40193
26.34498	1.05496	-0.40193
26.34904	1.05496	-0.40193
26.35309	1.07694	-0.40193
26.35715	1.07694	-0.40193
26.36121	1.07694	-0.40193
26.36526	1.07694	-0.40193
26.36932	1.09891	-0.40193
26.37338	1.09891	-0.40193
26.37744	1.09891	-0.40193
26.38149	1.12088	-0.40193
26.38555	1.12088	-0.40193
26.38961	1.12088	-0.40193
26.39389	1.14286	-0.40193
26.39795	1.14286	-0.40193
26.40201	1.14286	-0.40193
26.40607	1.16483	-0.40193
26.41014	1.16483	-0.40193
26.41420	1.16483	-0.40193
26.41825	1.16483	-0.40193
26.42232	1.16483	-0.40193
26.42638	1.18680	-0.40193
26.43044	1.18680	-0.40193
26.43450	1.18680	-0.40193
26.43855	1.20877	-0.40193
26.44261	1.20877	-0.40193
26.44667	1.20877	-0.40193
26.45073	1.23075	-0.40193
26.45478	1.23075	-0.40193
26.45884	1.23075	-0.40193
26.46290	1.23075	-0.40193
26.46695	1.23075	-0.40193
26.47101	1.25272	-0.40193
26.47507	1.25272	-0.40193
26.47913	1.25272	-0.40193
26.48318	1.25272	-0.40193
26.48724	1.27469	-0.40193
26.49130	1.27469	-0.40193
26.49559	1.27469	-0.40193
26.49965	1.27469	-0.40193
26.50370	1.29666	-0.40193
26.50776	1.29666	-0.40193
26.51182	1.29666	-0.40193
26.51587	1.29666	-0.40193
26.51993	1.29666	-0.40193
26.52399	1.31864	-0.40193
26.52805	1.31864	-0.40193
26.53211	1.31864	-0.40193
26.53617	1.34061	-0.40193
26.54023	1.31864	-0.40193
26.54428	1.34061	-0.40193
26.54834	1.34061	-0.40193
26.55240	1.34061	-0.40193
26.55646	1.34061	-0.40193
26.56051	1.34061	-0.40193
26.56457	1.34061	-0.40193
26.56863	1.34061	-0.40193
26.57268	1.36258	-0.40193
26.57674	1.36258	-0.40193
26.58080	1.36258	-0.40193
26.58485	1.36258	-0.40193
26.58891	1.36258	-0.40193
26.59297	1.36258	-0.40193
26.59726	1.36258	-0.40193
26.60132	1.36258	-0.40193
26.60537	1.38455	-0.40193
26.60943	1.38455	-0.40193
26.61349	1.38455	-0.40193
26.61754	1.38455	-0.40193
26.62160	1.38455	-0.40193
26.62567	1.38455	-0.40193
26.62973	1.38455	-0.40193
26.63379	1.40653	-0.40193
26.63784	1.40653	-0.40193
26.64190	1.40653	-0.40193
26.64596	1.40653	-0.40193
26.65001	1.40653	-0.40193
26.65407	1.40653	-0.40193
26.65813	1.40653	-0.40193
26.66218	1.40653	-0.40193
26.66624	1.40653	-0.40193
26.67030	1.40653	-0.40193
26.67436	1.42850	-0.40193
26.67841	1.42850	-0.40193
26.68247	1.40653	-0.40193
26.68653	1.40653	-0.40193
26.69058	1.42850	-0.40193
26.69464	1.42850	-0.40193
26.69894	1.42850	-0.40193
26.70300	1.42850	-0.40193
26.70706	1.42850	-0.40193
26.71112	1.42850	-0.40193
26.71517	1.42850	-0.40193
26.71923	1.42850	-0.40193
26.72329	1.42850	-0.40193
26.72735	1.42850	-0.40193
26.73141	1.42850	-0.40193
26.73546	1.42850	-0.40193
26.73952	1.42850	-0.40193
26.74358	1.42850	-0.40193
26.74763	1.42850	-0.40193
26.75169	1.42850	-0.40193
26.75575	1.42850	-0.40193
26.75981	1.42850	-0.40193
26.76386	1.42850	-0.40193
26.76792	1.42850	-0.40193
26.77198	1.42850	-0.40193
26.77603	1.42850	-0.40193
26.78009	1.42850	-0.40193
26.78415	1.42850	-0.40193
26.78820	1.42850	-0.40193
26.79226	1.42850	-0.40193
26.79632	1.42850	-0.40193
26.80061	1.42850	-0.40193
26.80467	1.42850	-0.40193
26.80873	1.42850	-0.40193
26.81279	1.42850	-0.40193
26.81684	1.42850	-0.40193
26.82090	1.42850	-0.40193
26.82496	1.42850	-0.40193
26.82902	1.42850	-0.40193
26.83308	1.42850	-0.40193
26.83714	1.42850	-0.40193
26.84119	1.42850	-0.40193
26.84525	1.42850	-0.40193
26.84931	1.42850	-0.40193
26.85337	1.40653	-0.40193
26.85742	1.40653	-0.40193
26.86148	1.40653	-0.40193
26.86554	1.40653	-0.40193
26.86959	1.40653	-0.40193
26.87365	1.40653	-0.40193
26.87770	1.40653	-0.40193
26.88176	1.40653	-0.40193
26.88582	1.38455	-0.40193
26.88987	1.38455	-0.40193
26.89393	1.38455	-0.40193
26.89799	1.38455	-0.40193
26.90227	1.38455	-0.40193
26.90632	1.38455	-0.40193
26.91038	1.38455	-0.40193
26.91444	1.38455	-0.40193
26.91850	1.38455	-0.40193
26.92255	1.36258	-0.40193
26.92661	1.36258	-0.40193
26.93068	1.36258	-0.40193
26.93474	1.36258	-0.40193
26.93879	1.36258	-0.40193
26.94285	1.34061	-0.40193
26.94690	1.34061	-0.40193
26.95096	1.34061	-0.40193
26.95501	1.34061	-0.40193
26.95907	1.34061	-0.40193
26.96313	1.34061	-0.40193
26.96719	1.34061	-0.40193
26.97124	1.31864	-0.40193
26.97530	1.31864	-0.40193
26.97936	1.31864	-0.40193
26.98342	1.31864	-0.40193
26.98747	1.31864	-0.40193
26.99153	1.29666	-0.40193
26.99559	1.29666	-0.40193
26.99965	1.29666	-0.40193
27.00393	1.29666	-0.40193
27.00799	1.29666	-0.40193
27.01204	1.29666	-0.40193
27.01610	1.27469	-0.40193
27.02016	1.27469	-0.40193
27.02422	1.27469	-0.40193
27.02828	1.27469	-0.40193
27.03234	1.25272	-0.40193
27.03640	1.25272	-0.40193
27.04045	1.25272	-0.40193
27.04452	1.25272	-0.40193
27.04857	1.23075	-0.40193
27.05263	1.23075	-0.40193
27.05670	1.23075	-0.40193
27.06076	1.23075	-0.40193
27.06482	1.23075	-0.40193
27.06888	1.20877	-0.40193
27.07293	1.20877	-0.40193
27.07699	1.20877	-0.40193
27.08105	1.20877	-0.40193
27.08511	1.18680	-0.40193
27.08916	1.18680	-0.40193
27.09322	1.18680	-0.40193
27.09728	1.18680	-0.40193
27.10133	1.18680	-0.40193
27.10560	1.18680	-0.40193
27.10965	1.18680	-0.40193
27.11371	1.16483	-0.40193
27.11777	1.16483	-0.40193
27.12182	1.14286	-0.40193
27.12588	1.16483	-0.40193
27.12994	1.16483	-0.40193
27.13400	1.14286	-0.40193
27.13806	1.14286	-0.40193
27.14213	1.14286	-0.40193
27.14618	1.12088	-0.40193
27.15024	1.12088	-0.40193
27.15430	1.12088	-0.40193
27.15836	1.12088	-0.40193
27.16242	1.12088	-0.40193
27.16648	1.09891	-0.40193
27.17053	1.09891	-0.40193
27.17459	1.09891	-0.40193
27.17865	1.09891	-0.40193
27.18271	1.09891	-0.40193
27.18677	1.07694	-0.40193
27.19082	1.07694	-0.40193
27.19488	1.07694	-0.40193
27.19890	1.07694	-0.40193
27.20296	1.07694	-0.40193
27.20722	1.07694	-0.40193
27.21128	1.05496	-0.40193
27.21534	1.05496	-0.40193
27.21940	1.05496	-0.40193
27.22346	1.05496	-0.40193
27.22752	1.05496	-0.40193
27.23157	1.03299	-0.40193
27.23565	1.03299	-0.40193
27.23971	1.03299	-0.40193
27.24377	1.03299	-0.40193
27.24783	1.03299	-0.40193
27.25189	1.03299	-0.40193
27.25595	1.01102	-0.40193
27.26000	1.01102	-0.40193
27.26407	1.01102	-0.40193
27.26813	1.01102	-0.40193
27.27218	1.01102	-0.40193
27.27624	0.98905	-0.40193
27.28030	0.98905	-0.40193
27.28436	0.98905	-0.40193
27.28841	0.98905	-0.40193
27.29247	0.98905	-0.40193
27.29653	0.98905	-0.40193
27.30059	0.98905	-0.40193
27.30464	0.96707	-0.40193
27.30894	0.96707	-0.40193
27.31300	0.96707	-0.40193
27.31705	0.94510	-0.40193
27.32112	0.94510	-0.40193
27.32518	0.94510	-0.40193
27.32924	0.94510	-0.40193
27.33329	0.94510	-0.40193
27.33737	0.92313	-0.40193
27.34144	0.92313	-0.40193
27.34550	0.92313	-0.40193
27.34955	0.92313	-0.40193
27.35361	0.92313	-0.40193
27.35767	0.90116	-0.40193
27.36173	0.90116	-0.40193
27.36579	0.90116	-0.40193
27.36985	0.90116	-0.40193
27.37390	0.90116	-0.40193
27.37796	0.90116	-0.40193
27.38202	0.90116	-0.40193
27.38608	0.90116	-0.40193
27.39013	0.87918	-0.40193
27.39419	0.87918	-0.40193
27.39841	0.87918	-0.40193
27.40247	0.87918	-0.40193
27.40653	0.87918	-0.40193
27.41081	0.85721	-0.40193
27.41487	0.85721	-0.40193
27.41890	0.85721	-0.40193
27.42296	0.85721	-0.40193
27.42702	0.85721	-0.40193
27.43108	0.85721	-0.40193
27.43513	0.85721	-0.40193
27.43920	0.85721	-0.40193
27.44326	0.83524	-0.40193
27.44731	0.83524	-0.40193
27.45137	0.83524	-0.40193
27.45543	0.85721	-0.40193
27.45948	0.83524	-0.40193
27.46354	0.83524	-0.40193
27.46760	0.83524	-0.40193
27.47167	0.83524	-0.40193
27.47573	0.83524	-0.40193
27.47979	0.83524	-0.40193
27.48385	0.81327	-0.40193
27.48790	0.81327	-0.40193
27.49196	0.81327	-0.40193
27.49602	0.81327	-0.40193
27.50008	0.81327	-0.40193
27.50414	0.81327	-0.40193
27.50820	0.81327	-0.40193
27.51248	0.81327	-0.40193
27.51654	0.81327	-0.40193
27.52060	0.81327	-0.40193
27.52466	0.81327	-0.40193
27.52871	0.81327	-0.40193
27.53277	0.81327	-0.40193
27.53683	0.81327	-0.40193
27.54112	0.81327	-0.40193
27.54518	0.81327	-0.40193
27.54924	0.81327	-0.40193
27.55330	0.81327	-0.40193
27.55736	0.81327	-0.40193
27.56142	0.81327	-0.40193
27.56548	0.81327	-0.40193
27.56954	0.81327	-0.40193
27.57359	0.81327	-0.40193
27.57765	0.81327	-0.40193
27.58171	0.81327	-0.40193
27.58576	0.81327	-0.40193
27.58982	0.81327	-0.40193
27.59388	0.81327	-0.40193
27.59794	0.81327	-0.40193
27.60199	0.81327	-0.40193
27.60605	0.81327	-0.40193
27.61011	0.81327	-0.40193
27.61440	0.81327	-0.40193
27.61846	0.83524	-0.40193
27.62252	0.83524	-0.40193
27.62658	0.81327	-0.40193
27.63064	0.83524	-0.40193
27.63469	0.83524	-0.40193
27.63875	0.83524	-0.40193
27.64293	0.83524	-0.40193
27.64699	0.83524	-0.40193
27.65105	0.83524	-0.40193
27.65511	0.83524	-0.40193
27.65917	0.83524	-0.40193
27.66323	0.83524	-0.40193
27.66729	0.83524	-0.40193
27.67135	0.85721	-0.40193
27.67541	0.85721	-0.40193
27.67946	0.85721	-0.40193
27.68352	0.85721	-0.40193
27.68758	0.85721	-0.40193
27.69163	0.85721	-0.40193
27.69569	0.85721	-0.40193
27.69975	0.85721	-0.40193
27.70380	0.87918	-0.40193
27.70786	0.85721	-0.40193
27.71194	0.85721	-0.40193
27.71624	0.87918	-0.40193
27.72030	0.87918	-0.40193
27.72436	0.87918	-0.40193
27.72842	0.87918	-0.40193
27.73248	0.87918	-0.40193
27.73654	0.87918	-0.40193
27.74060	0.87918	-0.40193
27.74467	0.90116	-0.40193
27.74873	0.90116	-0.40193
27.75279	0.90116	-0.40193
27.75685	0.90116	-0.40193
27.76091	0.90116	-0.40193
27.76496	0.90116	-0.40193
27.76902	0.90116	-0.40193
27.77308	0.90116	-0.40193
27.77714	0.90116	-0.40193
27.78120	0.92313	-0.40193
27.78525	0.92313	-0.40193
27.78931	0.92313	-0.40193
27.79337	0.92313	-0.40193
27.79742	0.92313	-0.40193
27.80148	0.94510	-0.40193
27.80554	0.92313	-0.40193
27.80960	0.94510	-0.40193
27.81365	0.94510	-0.40193
27.81795	0.94510	-0.40193
27.82201	0.92313	-0.40193
27.82607	0.94510	-0.40193
27.83012	0.94510	-0.40193
27.83418	0.94510	-0.40193
27.83824	0.94510	-0.40193
27.84230	0.96707	-0.40193
27.84637	0.96707	-0.40193
27.85042	0.96707	-0.40193
27.85448	0.96707	-0.40193
27.85854	0.98905	-0.40193
27.86260	0.98905	-0.40193
27.86666	0.96707	-0.40193
27.87072	0.96707	-0.40193
27.87478	0.98905	-0.40193
27.87884	0.98905	-0.40193
27.88290	0.98905	-0.40193
27.88696	0.98905	-0.40193
27.89101	1.01102	-0.40193
27.89507	0.98905	-0.40193
27.89913	0.98905	-0.40193
27.90318	0.98905	-0.40193
27.90724	1.01102	-0.40193
27.91130	0.98905	-0.40193
27.91535	1.01102	-0.40193
27.91966	1.01102	-0.40193
27.92372	1.01102	-0.40193
27.92778	1.01102	-0.40193
27.93184	1.01102	-0.40193
27.93589	1.01102	-0.40193
27.93995	1.03299	-0.40193
27.94401	1.03299	-0.40193
27.94808	1.03299	-0.40193
27.95214	1.03299	-0.40193
27.95620	1.03299	-0.40193
27.96026	1.03299	-0.40193
27.96432	1.03299	-0.40193
27.96838	1.03299	-0.40193
27.97244	1.05496	-0.40193
27.97649	1.05496	-0.40193
27.98055	1.05496	-0.40193
27.98461	1.05496	-0.40193
27.98867	1.05496	-0.40193
27.99273	1.05496	-0.40193
27.99679	1.05496	-0.40193
28.00085	1.07694	-0.40193
28.00490	1.07694	-0.40193
28.00896	1.07694	-0.40193
28.01302	1.07694	-0.40193
28.01707	1.07694	-0.40193
28.02136	1.07694	-0.40193
28.02542	1.07694	-0.40193
28.02948	1.09891	-0.40193
28.03354	1.09891	-0.40193
28.03760	1.09891	-0.40193
28.04166	1.09891	-0.40193
28.04572	1.09891	-0.40193
28.04979	1.09891	-0.40193
28.05385	1.09891	-0.40193
28.05791	1.12088	-0.40193
28.06197	1.12088	-0.40193
28.06603	1.12088	-0.40193
28.07009	1.12088	-0.40193
28.07415	1.12088	-0.40193
28.07820	1.12088	-0.40193
28.08226	1.14286	-0.40193
28.08632	1.12088	-0.40193
28.09038	1.14286	-0.40193
28.09444	1.14286	-0.40193
28.09849	1.14286	-0.40193
28.10255	1.14286	-0.40193
28.10661	1.14286	-0.40193
28.11067	1.16483	-0.40193
28.11473	1.16483	-0.40193
28.11879	1.16483	-0.40193
28.12309	1.16483	-0.40193
28.12715	1.16483	-0.40193
28.13120	1.16483	-0.40193
28.13526	1.16483	-0.40193
28.13932	1.16483	-0.40193
28.14338	1.16483	-0.40193
28.14743	1.18680	-0.40193
28.15150	1.18680	-0.40193
28.15556	1.18680	-0.40193
28.15962	1.18680	-0.40193
28.16368	1.18680	-0.40193
28.16774	1.20877	-0.40193
28.17180	1.20877	-0.40193
28.17586	1.20877	-0.40193
28.17992	1.20877	-0.40193
28.18398	1.20877	-0.40193
28.18803	1.23075	-0.40193
28.19209	1.20877	-0.40193
28.19615	1.23075	-0.40193
28.20020	1.23075	-0.40193
28.20426	1.23075	-0.40193
28.20832	1.25272	-0.40193
28.21238	1.23075	-0.40193
28.21643	1.23075	-0.40193
28.22049	1.25272	-0.40193
28.22478	1.25272	-0.40193
28.22884	1.25272	-0.40193
28.23290	1.25272	-0.40193
28.23695	1.25272	-0.40193
28.24101	1.27469	-0.40193
28.24507	1.27469	-0.40193
28.24913	1.27469	-0.40193
28.25320	1.27469	-0.40193
28.25725	1.27469	-0.40193
28.26132	1.29666	-0.40193
28.26538	1.29666	-0.40193
28.26943	1.29666	-0.40193
28.27349	1.29666	-0.40193
28.27755	1.31864	-0.40193
28.28160	1.29666	-0.40193
28.28567	1.31864	-0.40193
28.28973	1.31864	-0.40193
28.29379	1.31864	-0.40193
28.29784	1.31864	-0.40193
28.30190	1.34061	-0.40193
28.30596	1.34061	-0.40193
28.31001	1.34061	-0.40193
28.31407	1.34061	-0.40193
28.31813	1.34061	-0.40193
28.32219	1.36258	-0.40193
28.32647	1.36258	-0.40193
28.33053	1.36258	-0.40193
28.33459	1.36258	-0.40193
28.33865	1.36258	-0.40193
28.34270	1.38455	-0.40193
28.34676	1.38455	-0.40193
28.35082	1.38455	-0.40193
28.35489	1.40653	-0.40193
28.35891	1.40653	-0.40193
28.36298	1.40653	-0.40193
28.36704	1.42850	-0.40193
28.37110	1.40653	-0.40193
28.37516	1.40653	-0.40193
28.37921	1.42850	-0.40193
28.38327	1.42850	-0.40193
28.38733	1.45047	-0.40193
28.39138	1.45047	-0.40193
28.39544	1.45047	-0.40193
28.39950	1.45047	-0.40193
28.40356	1.47244	-0.40193
28.40761	1.47244	-0.40193
28.41167	1.47244	-0.40193
28.41573	1.49442	-0.40193
28.41978	1.49442	-0.40193
28.42384	1.49442	-0.40193
28.42814	1.49442	-0.40193
28.43220	1.49442	-0.40193
28.43625	1.51639	-0.40193
28.44031	1.51639	-0.40193
28.44437	1.51639	-0.40193
28.44843	1.53836	-0.40193
28.45248	1.53836	-0.40193
28.45656	1.56034	-0.40193
28.46062	1.56034	-0.40193
28.46468	1.56034	-0.40193
28.46874	1.56034	-0.40193
28.47280	1.58231	-0.40193
28.47686	1.58231	-0.40193
28.48091	1.58231	-0.40193
28.48497	1.60428	-0.40193
28.48903	1.60428	-0.40193
28.49308	1.60428	-0.40193
28.49714	1.62625	-0.40193
28.50120	1.62625	-0.40193
28.50526	1.62625	-0.40193
28.50931	1.62625	-0.40193
28.51337	1.64823	-0.40193
28.51743	1.64823	-0.40193
28.52148	1.64823	-0.40193
28.52554	1.64823	-0.40193
28.52983	1.67020	-0.40193
28.53389	1.69217	-0.40193
28.53795	1.69217	-0.40193
28.54200	1.69217	-0.40193
28.54606	1.69217	-0.40193
28.55012	1.69217	-0.40193
28.55418	1.71414	-0.40193
28.55829	1.71414	-0.40193
28.56235	1.73612	-0.40193
28.56642	1.73612	-0.40193
28.57048	1.73612	-0.40193
28.57454	1.73612	-0.40193
28.57860	1.75809	-0.40193
28.58265	1.78006	-0.40193
28.58671	1.78006	-0.40193
28.59077	1.78006	-0.40193
28.59483	1.78006	-0.40193
28.59888	1.80203	-0.40193
28.60290	1.80203	-0.40193
28.60696	1.82401	-0.40193
28.61101	1.82401	-0.40193
28.61507	1.82401	-0.40193
28.61913	1.84598	-0.40193
28.62319	1.84598	-0.40193
28.62724	1.84598	-0.40193
28.63153	1.86795	-0.40193
28.63559	1.86795	-0.40193
28.63965	1.86795	-0.40193
28.64371	1.86795	-0.40193
28.64776	1.88993	-0.40193
28.65182	1.88993	-0.40193
28.65588	1.91190	-0.40193
28.65995	1.91190	-0.40193
28.66402	1.91190	-0.40193
28.66807	1.93387	-0.40193
28.67213	1.93387	-0.40193
28.67619	1.93387	-0.40193
28.68025	1.95584	-0.40193
28.68431	1.95584	-0.40193
28.68837	1.97782	-0.40193
28.69243	1.97782	-0.40193
28.69649	1.97782	-0.40193
28.70054	1.99979	-0.40193
28.70460	1.97782	-0.40193
28.70866	1.99979	-0.40193
28.71272	1.99979	-0.40193
28.71677	2.02176	-0.40193
28.72083	2.02176	-0.40193
28.72489	2.02176	-0.40193
28.72895	2.02176	-0.40193
28.73323	2.04373	-0.40193
28.73729	2.04373	-0.40193
28.74135	2.04373	-0.40193
28.74541	2.06571	-0.40193
28.74947	2.06571	-0.40193
28.75353	2.06571	-0.40193
28.75758	2.08768	-0.40193
28.76167	2.08768	-0.40193
28.76573	2.08768	-0.40193
28.76980	2.10965	-0.40193
28.77386	2.10965	-0.40193
28.77791	2.10965	-0.40193
28.78197	2.10965	-0.40193
28.78603	2.13162	-0.40193
28.79009	2.13162	-0.40193
28.79415	2.13162	-0.40193
28.79820	2.13162	-0.40193
28.80226	2.15360	-0.40193
28.80632	2.15360	-0.40193
28.81037	2.15360	-0.40193
28.81443	2.15360	-0.40193
28.81849	2.15360	-0.40193
28.82255	2.17557	-0.40193
28.82660	2.17557	-0.40193
28.83066	2.17557	-0.40193
28.83496	2.19754	-0.40193
28.83902	2.19754	-0.40193
28.84307	2.19754	-0.40193
28.84713	2.19754	-0.40193
28.85119	2.21952	-0.40193
28.85525	2.21952	-0.40193
28.85931	2.21952	-0.40193
28.86337	2.21952	-0.40193
28.86743	2.21952	-0.40193
28.87149	2.21952	-0.40193
28.87555	2.24149	-0.40193
28.87961	2.24149	-0.40193
28.88367	2.24149	-0.40193
28.88772	2.24149	-0.40193
28.89178	2.24149	-0.40193
28.89584	2.26346	-0.40193
28.89990	2.26346	-0.40193
28.90395	2.26346	-0.40193
28.90801	2.26346	-0.40193
28.91207	2.26346	-0.40193
28.91613	2.28543	-0.40193
28.92018	2.26346	-0.40193
28.92424	2.28543	-0.40193
28.92830	2.28543	-0.40193
28.93235	2.28543	-0.40193
28.93664	2.28543	-0.40193
28.94070	2.28543	-0.40193
28.94476	2.28543	-0.40193
28.94882	2.30741	-0.40193
28.95288	2.30741	-0.40193
28.95693	2.30741	-0.40193
28.96099	2.30741	-0.40193
28.96507	2.30741	-0.40193
28.96914	2.32938	-0.40193
28.97320	2.32938	-0.40193
28.97726	2.32938	-0.40193
28.98132	2.32938	-0.40193
28.98537	2.32938	-0.40193
28.98943	2.32938	-0.40193
28.99349	2.32938	-0.40193
28.99755	2.32938	-0.40193
29.00160	2.32938	-0.40193
29.00566	2.35135	-0.40193
29.00972	2.35135	-0.40193
29.01377	2.35135	-0.40193
29.01783	2.35135	-0.40193
29.02189	2.35135	-0.40193
29.02595	2.35135	-0.40193
29.03000	2.37332	-0.40193
29.03406	2.37332	-0.40193
29.03835	2.37332	-0.40193
29.04240	2.37332	-0.40193
29.04646	2.37332	-0.40193
29.05052	2.37332	-0.40193
29.05458	2.37332	-0.40193
29.05864	2.37332	-0.40193
29.06270	2.37332	-0.40193
29.06677	2.37332	-0.40193
29.07084	2.39530	-0.40193
29.07490	2.39530	-0.40193
29.07896	2.39530	-0.40193
29.08301	2.39530	-0.40193
29.08707	2.39530	-0.40193
29.09113	2.39530	-0.40193
29.09518	2.39530	-0.40193
29.09924	2.39530	-0.40193
29.10330	2.39530	-0.40193
29.10736	2.41727	-0.40193
29.11142	2.39530	-0.40193
29.11548	2.41727	-0.40193
29.11954	2.41727	-0.40193
29.12360	2.41727	-0.40193
29.12765	2.41727	-0.40193
29.13171	2.41727	-0.40193
29.13577	2.43924	-0.40193
29.14006	2.41727	-0.40193
29.14412	2.43924	-0.40193
29.14818	2.43924	-0.40193
29.15223	2.41727	-0.40193
29.15629	2.43924	-0.40193
29.16035	2.43924	-0.40193
29.16441	2.43924	-0.40193
29.16847	2.43924	-0.40193
29.17254	2.43924	-0.40193
29.17659	2.43924	-0.40193
29.18065	2.43924	-0.40193
29.18471	2.46121	-0.40193
29.18877	2.43924	-0.40193
29.19282	2.43924	-0.40193
29.19688	2.46121	-0.40193
29.20094	2.46121	-0.40193
29.20500	2.46121	-0.40193
29.20905	2.46121	-0.40193
29.21311	2.46121	-0.40193
29.21717	2.46121	-0.40193
29.22122	2.46121	-0.40193
29.22528	2.46121	-0.40193
29.22934	2.46121	-0.40193
29.23340	2.46121	-0.40193
29.23745	2.46121	-0.40193
29.24175	2.46121	-0.40193
29.24581	2.46121	-0.40193
29.24987	2.48319	-0.40193
29.25393	2.48319	-0.40193
29.25799	2.46121	-0.40193
29.26205	2.46121	-0.40193
29.26611	2.46121	-0.40193
29.27018	2.46121	-0.40193
29.27424	2.46121	-0.40193
29.27830	2.46121	-0.40193
29.28236	2.46121	-0.40193
29.28643	2.46121	-0.40193
29.29048	2.46121	-0.40193
29.29454	2.46121	-0.40193
29.29860	2.46121	-0.40193
29.30266	2.46121	-0.40193
29.30672	2.46121	-0.40193
29.31077	2.46121	-0.40193
29.31483	2.46121	-0.40193
29.31889	2.46121	-0.40193
29.32290	2.46121	-0.40193
29.32696	2.46121	-0.40193
29.33102	2.46121	-0.40193
29.33507	2.46121	-0.40193
29.33913	2.46121	-0.40193
29.34342	2.46121	-0.40193
29.34748	2.46121	-0.40193
29.35154	2.46121	-0.40193
29.35559	2.46121	-0.40193
29.35966	2.46121	-0.40193
29.36371	2.46121	-0.40193
29.36777	2.46121	-0.40193
29.37184	2.46121	-0.40193
29.37590	2.43924	-0.40193
29.37996	2.43924	-0.40193
29.38402	2.43924	-0.40193
29.38807	2.43924	-0.40193
29.39213	2.43924	-0.40193
29.39619	2.43924	-0.40193
29.40026	2.43924	-0.40193
29.40432	2.43924	-0.40193
29.40838	2.43924	-0.40193
29.41243	2.43924	-0.40193
29.41649	2.43924	-0.40193
29.42055	2.41727	-0.40193
29.42461	2.41727	-0.40193
29.42866	2.43924	-0.40193
29.43272	2.41727	-0.40193
29.43678	2.41727	-0.40193
29.44083	2.41727	-0.40193
29.44512	2.41727	-0.40193
29.44918	2.41727	-0.40193
29.45324	2.41727	-0.40193
29.45730	2.39530	-0.40193
29.46136	2.39530	-0.40193
29.46542	2.39530	-0.40193
29.46947	2.39530	-0.40193
29.47355	2.39530	-0.40193
29.47761	2.37332	-0.40193
29.48167	2.39530	-0.40193
29.48572	2.39530	-0.40193
29.48978	2.37332	-0.40193
29.49384	2.37332	-0.40193
29.49790	2.37332	-0.40193
29.50196	2.37332	-0.40193
29.50601	2.35135	-0.40193
29.51007	2.35135	-0.40193
29.51413	2.35135	-0.40193
29.51818	2.35135	-0.40193
29.52224	2.35135	-0.40193
29.52630	2.32938	-0.40193
29.53036	2.32938	-0.40193
29.53441	2.32938	-0.40193
29.53847	2.32938	-0.40193
29.54253	2.32938	-0.40193
29.54682	2.32938	-0.40193
29.55087	2.30741	-0.40193
29.55490	2.30741	-0.40193
29.55896	2.30741	-0.40193
29.56302	2.30741	-0.40193
29.56708	2.28543	-0.40193
29.57113	2.28543	-0.40193
29.57520	2.28543	-0.40193
29.57926	2.28543	-0.40193
29.58332	2.28543	-0.40193
29.58738	2.28543	-0.40193
29.59143	2.26346	-0.40193
29.59549	2.26346	-0.40193
29.59955	2.26346	-0.40193
29.60361	2.26346	-0.40193
29.60766	2.24149	-0.40193
29.61172	2.24149	-0.40193
29.61578	2.24149	-0.40193
29.61983	2.24149	-0.40193
29.62389	2.21952	-0.40193
29.62795	2.21952	-0.40193
29.63201	2.21952	-0.40193
29.63606	2.21952	-0.40193
29.64012	2.21952	-0.40193
29.64418	2.19754	-0.40193
29.64847	2.19754	-0.40193
29.65253	2.19754	-0.40193
29.65659	2.17557	-0.40193
29.66065	2.17557	-0.40193
29.66471	2.17557	-0.40193
29.66877	2.17557	-0.40193
29.67282	2.15360	-0.40193
29.67689	2.15360	-0.40193
29.68095	2.15360	-0.40193
29.68501	2.15360	-0.40193
29.68907	2.13162	-0.40193
29.69313	2.13162	-0.40193
29.69718	2.10965	-0.40193
29.70124	2.10965	-0.40193
29.70530	2.10965	-0.40193
29.70935	2.10965	-0.40193
29.71341	2.10965	-0.40193
29.71747	2.08768	-0.40193
29.72153	2.08768	-0.40193
29.72558	2.08768	-0.40193
29.72964	2.06571	-0.40193
29.73370	2.06571	-0.40193
29.73775	2.06571	-0.40193
29.74181	2.04373	-0.40193
29.74587	2.04373	-0.40193
29.75016	2.04373	-0.40193
29.75421	2.04373	-0.40193
29.75827	2.02176	-0.40193
29.76233	2.02176	-0.40193
29.76639	2.02176	-0.40193
29.77045	1.99979	-0.40193
29.77451	1.99979	-0.40193
29.77858	1.99979	-0.40193
29.78264	1.99979	-0.40193
29.78670	1.99979	-0.40193
29.79076	1.97782	-0.40193
29.79482	1.97782	-0.40193
29.79887	1.97782	-0.40193
29.80290	1.95584	-0.40193
29.80696	1.95584	-0.40193
29.81102	1.95584	-0.40193
29.81507	1.95584	-0.40193
29.81913	1.93387	-0.40193
29.82319	1.93387	-0.40193
29.82725	1.93387	-0.40193
29.83130	1.93387	-0.40193
29.83536	1.93387	-0.40193
29.83942	1.91190	-0.40193
29.84347	1.91190	-0.40193
29.84753	1.91190	-0.40193
29.85182	1.88993	-0.40193
29.85588	1.88993	-0.40193
29.85996	1.88993	-0.40193
29.86402	1.88993	-0.40193
29.86808	1.88993	-0.40193
29.87214	1.86795	-0.40193
29.87620	1.86795	-0.40193
29.88026	1.86795	-0.40193
29.88432	1.86795	-0.40193
29.88838	1.86795	-0.40193
29.89244	1.84598	-0.40193
29.89650	1.84598	-0.40193
29.90056	1.84598	-0.40193
29.90461	1.84598	-0.40193
29.90867	1.82401	-0.40193
29.91273	1.82401	-0.40193
29.91678	1.82401	-0.40193
29.92084	1.82401	-0.40193
29.92490	1.82401	-0.40193
29.92896	1.80203	-0.40193
29.93301	1.80203	-0.40193
29.93707	1.80203	-0.40193
29.94113	1.80203	-0.40193
29.94518	1.80203	-0.40193
29.94924	1.78006	-0.40193
29.95353	1.78006	-0.40193
29.95758	1.75809	-0.40193
29.96165	1.75809	-0.40193
29.96570	1.78006	-0.40193
29.96976	1.75809	-0.40193
29.97382	1.75809	-0.40193
29.97788	1.75809	-0.40193
29.98195	1.75809	-0.40193
29.98601	1.75809	-0.40193
29.99007	1.75809	-0.40193
29.99413	1.75809	-0.40193
29.99818	1.73612	-0.40193
