Time (s)   roll (deg)   Delta
0.00044	-13.13937	11.27051
0.00467	-13.13937	11.27051
0.00887	-13.13937	11.27051
0.01331	-13.13937	11.27051
0.01753	-13.13937	11.27051
0.02173	-13.13937	11.27051
0.02590	-13.13937	11.27051
0.03008	-13.13937	11.27051
0.03425	-13.13937	11.27051
0.03841	-13.13937	11.27051
0.04272	-13.13937	11.27051
0.04692	-13.13937	11.27051
0.05110	-13.13937	11.27051
0.05527	-13.13937	11.27051
0.05944	-13.13937	11.27051
0.06362	-13.13937	11.27051
0.06779	-13.16134	11.27051
0.07201	-13.16134	11.27051
0.07625	-13.16134	11.27051
0.08043	-13.16134	11.27051
0.08461	-13.16134	11.27051
0.08878	-13.16134	11.27051
0.09295	-13.16134	11.27051
0.09712	-13.18332	11.27051
0.10138	-13.18332	11.27051
0.10566	-13.18332	11.27051
0.10984	-13.18332	11.27051
0.11401	-13.18332	11.27051
0.11818	-13.18332	11.27051
0.12238	-13.18332	11.27051
0.12657	-13.18332	11.27051
0.13075	-13.20529	11.27051
0.13504	-13.20529	11.27051
0.13924	-13.20529	11.27051
0.14343	-13.22726	11.27051
0.14761	-13.22726	11.27051
0.15180	-13.22726	11.27051
0.15598	-13.22726	11.27051
0.16016	-13.24923	11.27051
0.16447	-13.24923	11.27051
0.16870	-13.27121	11.27051
0.17294	-13.24923	11.27051
0.17713	-13.27121	11.27051
0.18133	-13.27121	11.27051
0.18552	-13.29318	11.27051
0.18970	-13.29318	11.27051
0.19394	-13.29318	11.27051
0.19821	-13.31515	11.27051
0.20251	-13.33713	11.27051
0.20669	-13.33713	11.27051
0.21089	-13.33713	11.27051
0.21507	-13.33713	11.27051
0.21928	-13.35910	11.27051
0.22348	-13.35910	11.27051
0.22779	-13.35910	11.27051
0.23200	-13.38107	11.27051
0.23617	-13.38107	11.27051
0.24035	-13.40304	11.27051
0.24454	-13.42502	11.27051
0.24872	-13.42502	11.27051
0.25291	-13.44699	11.27051
0.25721	-13.44699	11.27051
0.26142	-13.46896	11.27051
0.26560	-13.46896	11.27051
0.26979	-13.49093	11.27051
0.27399	-13.53488	11.27051
0.27818	-13.51291	11.27051
0.28238	-13.53488	11.27051
0.28671	-13.53488	11.27051
0.29096	-13.55685	11.27051
0.29515	-13.55685	11.27051
0.29934	-13.60080	11.27051
0.30362	-13.60080	11.27051
0.30781	-13.60080	11.27051
0.31199	-13.62277	11.27051
0.31622	-13.64474	11.27051
0.32049	-13.66672	11.27051
0.32468	-13.66672	11.27051
0.32887	-13.68869	11.27051
0.33305	-13.71066	11.27051
0.33724	-13.71066	11.27051
0.34143	-13.73263	11.27051
0.34561	-13.75461	11.27051
0.34989	-13.77658	11.27051
0.35410	-13.79855	11.27051
0.35828	-13.82052	11.27051
0.36247	-13.82052	11.27051
0.36666	-13.84250	11.27051
0.37084	-13.86447	11.27051
0.37505	-13.88644	11.27051
0.37935	-13.90841	11.27051
0.38357	-13.93039	11.27051
0.38776	-13.95236	11.27051
0.39195	-13.95236	11.27051
0.39615	-13.97433	11.27051
0.40033	-13.99631	11.27051
0.40462	-14.04025	11.27051
0.40893	-14.06222	11.27051
0.41316	-14.08420	11.27051
0.41735	-14.08420	11.27051
0.42154	-14.10617	11.27051
0.42573	-14.12814	11.27051
0.42992	-14.15011	11.27051
0.43410	-14.17209	11.27051
0.43833	-14.21603	11.27051
0.44260	-14.21603	11.27051
0.44679	-14.23800	11.27051
0.45098	-14.28195	11.27051
0.45516	-14.30392	11.27051
0.45934	-14.32589	11.27051
0.46353	-14.34787	11.27051
0.46772	-14.34787	11.27051
0.47201	-14.39181	11.27051
0.47624	-14.41379	11.27051
0.48046	-14.43576	11.27051
0.48467	-14.47970	11.27051
0.48886	-14.47970	11.27051
0.49304	-14.50168	11.27051
0.49723	-14.52365	11.27051
0.50153	-14.54562	11.27051
0.50587	-14.58957	11.27051
0.51008	-14.61154	11.27051
0.51427	-14.65548	11.27051
0.51846	-14.65548	11.27051
0.52264	-14.67746	11.27051
0.52683	-14.69943	11.27051
0.53111	-14.74338	11.27051
0.53537	-14.78732	11.27051
0.53958	-14.80929	11.27051
0.54377	-14.83127	11.27051
0.54796	-14.83127	11.27051
0.55215	-14.85324	11.27051
0.55634	-14.89718	11.27051
0.56057	-14.91916	11.27051
0.56484	-14.96310	11.27051
0.56905	-14.98507	11.27051
0.57325	-14.98507	11.27051
0.57746	-15.02902	11.27051
0.58165	-15.05099	11.27051
0.58584	-15.07297	11.27051
0.59003	-15.11691	11.27051
0.59432	-15.16086	11.27051
0.59854	-15.16086	11.27051
0.60273	-15.18283	11.27051
0.60702	-15.22677	11.27051
0.61120	-15.24875	11.27051
0.61539	-15.29269	11.27051
0.61957	-15.31466	11.27051
0.62386	-15.35861	11.27051
0.62813	-15.35861	11.27051
0.63234	-15.38058	11.27051
0.63654	-15.40256	11.27051
0.64072	-15.44650	11.27051
0.64491	-15.49045	11.27051
0.64909	-15.51242	11.27051
0.65338	-15.51242	11.27051
0.65766	-15.55636	11.27051
0.66186	-15.60031	11.27051
0.66605	-15.62228	11.27051
0.67023	-15.64425	11.27051
0.67443	-15.68820	11.27051
0.67862	-15.71017	11.27051
0.68287	-15.71017	11.27051
0.68714	-15.75412	11.27051
0.69134	-15.79806	11.27051
0.69553	-15.82004	11.27051
0.69971	-15.86398	11.27051
0.70390	-15.86398	11.27051
0.70821	-15.88595	11.27051
0.71240	-15.92990	11.27051
0.71668	-15.97384	11.27051
0.72091	-15.99582	11.27051
0.72512	-16.03976	11.27051
0.72932	-16.03976	11.27051
0.73351	-16.06173	11.27051
0.73769	-16.10568	11.27051
0.74188	-16.14963	11.27051
0.74616	-16.17160	11.27051
0.75040	-16.19357	11.27051
0.75462	-16.23752	11.27051
0.75881	-16.23752	11.27051
0.76300	-16.25949	11.27051
0.76719	-16.30343	11.27051
0.77137	-16.32541	11.27051
0.77571	-16.36935	11.27051
0.77996	-16.39132	11.27051
0.78419	-16.39132	11.27051
0.78839	-16.43527	11.27051
0.79258	-16.45724	11.27051
0.79677	-16.50119	11.27051
0.80096	-16.52316	11.27051
0.80519	-16.54513	11.27051
0.80955	-16.54513	11.27051
0.81376	-16.58908	11.27051
0.81796	-16.61105	11.27051
0.82215	-16.65500	11.27051
0.82634	-16.67697	11.27051
0.83053	-16.72091	11.27051
0.83471	-16.72091	11.27051
0.83899	-16.74289	11.27051
0.84321	-16.78683	11.27051
0.84742	-16.80881	11.27051
0.85163	-16.83078	11.27051
0.85582	-16.85275	11.27051
0.86001	-16.89670	11.27051
0.86417	-16.89670	11.27051
0.86846	-16.94064	11.27051
0.87269	-16.96261	11.27051
0.87692	-16.98459	11.27051
0.88114	-17.00656	11.27051
0.88534	-17.02853	11.27051
0.88953	-17.07248	11.27051
0.89372	-17.07248	11.27051
0.89801	-17.09445	11.27051
0.90225	-17.13839	11.27051
0.90646	-17.16037	11.27051
0.91076	-17.18234	11.27051
0.91495	-17.18234	11.27051
0.91915	-17.22629	11.27051
0.92333	-17.24826	11.27051
0.92756	-17.27023	11.27051
0.93181	-17.29220	11.27051
0.93604	-17.31418	11.27051
0.94025	-17.35812	11.27051
0.94445	-17.35812	11.27051
0.94864	-17.38009	11.27051
0.95283	-17.40207	11.27051
0.95701	-17.42404	11.27051
0.96129	-17.46798	11.27051
0.96552	-17.48996	11.27051
0.96973	-17.48996	11.27051
0.97397	-17.51193	11.27051
0.97817	-17.55588	11.27051
0.98236	-17.55588	11.27051
0.98656	-17.59982	11.27051
0.99086	-17.62179	11.27051
0.99510	-17.62179	11.27051
0.99932	-17.64377	11.27051
1.00352	-17.66574	11.27051
1.00772	-17.68771	11.27051
1.01201	-17.70968	11.27051
1.01617	-17.73166	11.27051
1.02046	-17.77560	11.27051
1.02469	-17.77560	11.27051
1.02890	-17.77560	11.27051
1.03310	-17.81955	11.27051
1.03729	-17.84152	11.27051
1.04147	-17.86349	11.27051
1.04566	-17.86349	11.27051
1.04988	-17.88547	11.27051
1.05413	-17.90744	11.27051
1.05834	-17.92941	11.27051
1.06254	-17.95138	11.27051
1.06675	-17.97336	11.27051
1.07094	-17.99533	11.27051
1.07514	-17.99533	11.27051
1.07933	-18.01730	11.27051
1.08362	-18.03927	11.27051
1.08785	-18.06125	11.27051
1.09208	-18.08322	11.27051
1.09628	-18.08322	11.27051
1.10047	-18.10519	11.27051
1.10466	-18.10519	11.27051
1.10884	-18.12716	11.27051
1.11323	-18.14914	11.27051
1.11746	-18.14914	11.27051
1.12167	-18.17111	11.27051
1.12586	-18.17111	11.27051
1.13005	-18.19308	11.27051
1.13424	-18.21506	11.27051
1.13842	-18.23703	11.27051
1.14273	-18.23703	11.27051
1.14696	-18.25900	11.27051
1.15116	-18.28097	11.27051
1.15536	-18.28097	11.27051
1.15955	-18.30295	11.27051
1.16373	-18.30295	11.27051
1.16792	-18.32492	11.27051
1.17215	-18.32492	11.27051
1.17642	-18.34689	11.27051
1.18065	-18.34689	11.27051
1.18486	-18.34689	11.27051
1.18905	-18.36886	11.27051
1.19324	-18.36886	11.27051
1.19743	-18.39084	11.27051
1.20161	-18.39084	11.27051
1.20589	-18.39084	11.27051
1.21011	-18.39084	11.27051
1.21443	-18.41281	11.27051
1.21866	-18.41281	11.27051
1.22285	-18.43478	11.27051
1.22704	-18.43478	11.27051
1.23123	-18.43478	11.27051
1.23552	-18.45675	11.27051
1.23975	-18.45675	11.27051
1.24396	-18.45675	11.27051
1.24817	-18.47873	11.27051
1.25237	-18.45675	11.27051
1.25656	-18.45675	11.27051
1.26075	-18.47873	11.27051
1.26503	-18.47873	11.27051
1.26926	-18.47873	11.27051
1.27347	-18.47873	11.27051
1.27769	-18.47873	11.27051
1.28189	-18.47873	11.27051
1.28608	-18.47873	11.27051
1.29027	-18.47873	11.27051
1.29450	-18.47873	11.27051
1.29875	-18.47873	11.27051
1.30297	-18.47873	11.27051
1.30717	-18.47873	11.27051
1.31136	-18.47873	11.27051
1.31565	-18.47873	11.27051
1.31983	-18.47873	11.27051
1.32402	-18.47873	11.27051
1.32826	-18.47873	11.27051
1.33250	-18.47873	11.27051
1.33671	-18.47873	11.27051
1.34091	-18.45675	11.27051
1.34510	-18.47873	11.27051
1.34929	-18.45675	11.27051
1.35348	-18.45675	11.27051
1.35776	-18.45675	11.27051
1.36200	-18.45675	11.27051
1.36624	-18.45675	11.27051
1.37044	-18.45675	11.27051
1.37465	-18.43478	11.27051
1.37884	-18.43478	11.27051
1.38304	-18.43478	11.27051
1.38734	-18.43478	11.27051
1.39158	-18.41281	11.27051
1.39579	-18.41281	11.27051
1.39998	-18.41281	11.27051
1.40417	-18.39084	11.27051
1.40836	-18.39084	11.27051
1.41255	-18.39084	11.27051
1.41690	-18.36886	11.27051
1.42115	-18.36886	11.27051
1.42537	-18.34689	11.27051
1.42957	-18.34689	11.27051
1.43378	-18.34689	11.27051
1.43797	-18.32492	11.27051
1.44216	-18.32492	11.27051
1.44634	-18.32492	11.27051
1.45062	-18.30295	11.27051
1.45485	-18.28097	11.27051
1.45906	-18.28097	11.27051
1.46325	-18.25900	11.27051
1.46744	-18.23703	11.27051
1.47163	-18.23703	11.27051
1.47584	-18.23703	11.27051
1.48016	-18.21506	11.27051
1.48442	-18.19308	11.27051
1.48864	-18.17111	11.27051
1.49284	-18.17111	11.27051
1.49703	-18.17111	11.27051
1.50122	-18.14914	11.27051
1.50540	-18.12716	11.27051
1.50970	-18.10519	11.27051
1.51395	-18.10519	11.27051
1.51827	-18.08322	11.27051
1.52247	-18.06125	11.27051
1.52666	-18.06125	11.27051
1.53084	-18.03927	11.27051
1.53504	-18.03927	11.27051
1.53927	-18.01730	11.27051
1.54352	-17.99533	11.27051
1.54774	-17.99533	11.27051
1.55195	-17.97336	11.27051
1.55615	-17.95138	11.27051
1.56034	-17.92941	11.27051
1.56453	-17.90744	11.27051
1.56871	-17.90744	11.27051
1.57299	-17.88547	11.27051
1.57724	-17.88547	11.27051
1.58146	-17.86349	11.27051
1.58567	-17.81955	11.27051
1.58987	-17.81955	11.27051
1.59405	-17.79757	11.27051
1.59824	-17.77560	11.27051
1.60253	-17.77560	11.27051
1.60676	-17.75363	11.27051
1.61098	-17.73166	11.27051
1.61518	-17.70968	11.27051
1.61948	-17.70968	11.27051
1.62366	-17.66574	11.27051
1.62785	-17.66574	11.27051
1.63218	-17.66574	11.27051
1.63642	-17.64377	11.27051
1.64062	-17.62179	11.27051
1.64481	-17.59982	11.27051
1.64900	-17.57785	11.27051
1.65319	-17.55588	11.27051
1.65737	-17.55588	11.27051
1.66160	-17.53390	11.27051
1.66585	-17.51193	11.27051
1.67007	-17.48996	11.27051
1.67426	-17.46798	11.27051
1.67847	-17.46798	11.27051
1.68266	-17.46798	11.27051
1.68685	-17.42404	11.27051
1.69103	-17.40207	11.27051
1.69531	-17.40207	11.27051
1.69954	-17.38009	11.27051
1.70375	-17.35812	11.27051
1.70795	-17.33615	11.27051
1.71215	-17.33615	11.27051
1.71634	-17.31418	11.27051
1.72063	-17.29220	11.27051
1.72492	-17.27023	11.27051
1.72916	-17.24826	11.27051
1.73337	-17.22629	11.27051
1.73758	-17.22629	11.27051
1.74177	-17.20431	11.27051
1.74596	-17.20431	11.27051
1.75014	-17.16037	11.27051
1.75445	-17.13839	11.27051
1.75869	-17.13839	11.27051
1.76290	-17.13839	11.27051
1.76709	-17.11642	11.27051
1.77128	-17.09445	11.27051
1.77549	-17.07248	11.27051
1.77968	-17.05050	11.27051
1.78392	-17.05050	11.27051
1.78818	-17.05050	11.27051
1.79241	-17.02853	11.27051
1.79661	-17.00656	11.27051
1.80082	-16.98459	11.27051
1.80502	-16.96261	11.27051
1.80920	-16.94064	11.27051
1.81339	-16.94064	11.27051
1.81767	-16.91867	11.27051
1.82200	-16.91867	11.27051
1.82621	-16.89670	11.27051
1.83041	-16.87472	11.27051
1.83460	-16.85275	11.27051
1.83879	-16.85275	11.27051
1.84298	-16.85275	11.27051
1.84727	-16.80881	11.27051
1.85150	-16.80881	11.27051
1.85572	-16.78683	11.27051
1.85991	-16.76486	11.27051
1.86412	-16.76486	11.27051
1.86830	-16.76486	11.27051
1.87249	-16.74289	11.27051
1.87681	-16.69894	11.27051
1.88107	-16.69894	11.27051
1.88529	-16.67697	11.27051
1.88949	-16.65500	11.27051
1.89368	-16.65500	11.27051
1.89786	-16.65500	11.27051
1.90205	-16.63302	11.27051
1.90628	-16.61105	11.27051
1.91053	-16.58908	11.27051
1.91475	-16.58908	11.27051
1.91894	-16.56711	11.27051
1.92324	-16.56711	11.27051
1.92743	-16.54513	11.27051
1.93161	-16.54513	11.27051
1.93580	-16.52316	11.27051
1.94010	-16.50119	11.27051
1.94432	-16.47922	11.27051
1.94853	-16.47922	11.27051
1.95273	-16.47922	11.27051
1.95692	-16.45724	11.27051
1.96111	-16.45724	11.27051
1.96530	-16.43527	11.27051
1.96958	-16.41330	11.27051
1.97381	-16.41330	11.27051
1.97804	-16.39132	11.27051
1.98226	-16.39132	11.27051
1.98645	-16.36935	11.27051
1.99065	-16.34738	11.27051
1.99484	-16.34738	11.27051
1.99914	-16.34738	11.27051
2.00338	-16.32541	11.27051
2.00759	-16.30343	11.27051
2.01179	-16.30343	11.27051
2.01599	-16.28146	11.27051
2.02017	-16.28146	11.27051
2.02446	-16.28146	11.27051
2.02869	-16.25949	11.27051
2.03294	-16.23752	11.27051
2.03716	-16.23752	11.27051
2.04136	-16.21554	11.27051
2.04555	-16.21554	11.27051
2.04974	-16.19357	11.27051
2.05393	-16.19357	11.27051
2.05812	-16.17160	11.27051
2.06239	-16.17160	11.27051
2.06663	-16.14963	11.27051
2.07084	-16.14963	11.27051
2.07503	-16.12765	11.27051
2.07924	-16.12765	11.27051
2.08343	-16.12765	11.27051
2.08762	-16.10568	11.27051
2.09190	-16.08371	11.27051
2.09615	-16.08371	11.27051
2.10037	-16.06173	11.27051
2.10457	-16.06173	11.27051
2.10876	-16.06173	11.27051
2.11295	-16.03976	11.27051
2.11714	-16.01779	11.27051
2.12145	-16.01779	11.27051
2.12578	-15.99582	11.27051
2.12999	-15.99582	11.27051
2.13419	-15.99582	11.27051
2.13838	-15.97384	11.27051
2.14256	-15.97384	11.27051
2.14675	-15.97384	11.27051
2.15098	-15.95187	11.27051
2.15523	-15.95187	11.27051
2.15945	-15.92990	11.27051
2.16366	-15.92990	11.27051
2.16785	-15.92990	11.27051
2.17205	-15.90793	11.27051
2.17626	-15.90793	11.27051
2.18046	-15.88595	11.27051
2.18474	-15.88595	11.27051
2.18897	-15.88595	11.27051
2.19318	-15.86398	11.27051
2.19738	-15.86398	11.27051
2.20157	-15.84201	11.27051
2.20576	-15.84201	11.27051
2.20994	-15.84201	11.27051
2.21423	-15.84201	11.27051
2.21852	-15.82004	11.27051
2.22274	-15.82004	11.27051
2.22705	-15.79806	11.27051
2.23124	-15.79806	11.27051
2.23543	-15.77609	11.27051
2.23962	-15.77609	11.27051
2.24392	-15.77609	11.27051
2.24817	-15.77609	11.27051
2.25237	-15.77609	11.27051
2.25657	-15.75412	11.27051
2.26076	-15.75412	11.27051
2.26495	-15.75412	11.27051
2.26914	-15.73214	11.27051
2.27337	-15.73214	11.27051
2.27776	-15.73214	11.27051
2.28205	-15.71017	11.27051
2.28627	-15.71017	11.27051
2.29047	-15.71017	11.27051
2.29466	-15.71017	11.27051
2.29885	-15.68820	11.27051
2.30304	-15.68820	11.27051
2.30733	-15.68820	11.27051
2.31157	-15.66623	11.27051
2.31579	-15.66623	11.27051
2.31999	-15.66623	11.27051
2.32417	-15.66623	11.27051
2.32846	-15.66623	11.27051
2.33265	-15.66623	11.27051
2.33694	-15.66623	11.27051
2.34119	-15.64425	11.27051
2.34540	-15.64425	11.27051
2.34960	-15.64425	11.27051
2.35380	-15.62228	11.27051
2.35799	-15.62228	11.27051
2.36218	-15.62228	11.27051
2.36647	-15.62228	11.27051
2.37071	-15.62228	11.27051
2.37492	-15.62228	11.27051
2.37913	-15.60031	11.27051
2.38333	-15.60031	11.27051
2.38752	-15.60031	11.27051
2.39171	-15.60031	11.27051
2.39594	-15.60031	11.27051
2.40021	-15.60031	11.27051
2.40443	-15.57834	11.27051
2.40863	-15.57834	11.27051
2.41282	-15.57834	11.27051
2.41701	-15.57834	11.27051
2.42120	-15.57834	11.27051
2.42539	-15.57834	11.27051
2.42977	-15.57834	11.27051
2.43399	-15.57834	11.27051
2.43820	-15.55636	11.27051
2.44240	-15.55636	11.27051
2.44659	-15.55636	11.27051
2.45078	-15.55636	11.27051
2.45496	-15.55636	11.27051
2.45925	-15.55636	11.27051
2.46349	-15.55636	11.27051
2.46770	-15.55636	11.27051
2.47190	-15.55636	11.27051
2.47612	-15.53439	11.27051
2.48031	-15.53439	11.27051
2.48450	-15.53439	11.27051
2.48882	-15.53439	11.27051
2.49307	-15.53439	11.27051
2.49730	-15.53439	11.27051
2.50151	-15.53439	11.27051
2.50570	-15.53439	11.27051
2.50989	-15.53439	11.27051
2.51408	-15.53439	11.27051
2.51831	-15.53439	11.27051
2.52256	-15.53439	11.27051
2.52678	-15.53439	11.27051
2.53108	-15.53439	11.27051
2.53529	-15.53439	11.27051
2.53948	-15.53439	11.27051
2.54367	-15.53439	11.27051
2.54786	-15.53439	11.27051
2.55215	-15.53439	11.27051
2.55638	-15.53439	11.27051
2.56059	-15.53439	11.27051
2.56479	-15.53439	11.27051
2.56900	-15.53439	11.27051
2.57319	-15.53439	11.27051
2.57740	-15.53439	11.27051
2.58170	-15.53439	11.27051
2.58594	-15.53439	11.27051
2.59016	-15.53439	11.27051
2.59437	-15.53439	11.27051
2.59856	-15.53439	11.27051
2.60275	-15.53439	11.27051
2.60694	-15.53439	11.27051
2.61125	-15.53439	11.27051
2.61549	-15.53439	11.27051
2.61970	-15.53439	11.27051
2.62389	-15.53439	11.27051
2.62810	-15.53439	11.27051
2.63239	-15.55636	11.27051
2.63657	-15.55636	11.27051
2.64080	-15.55636	11.27051
2.64505	-15.53439	11.27051
2.64927	-15.55636	11.27051
2.65347	-15.53439	11.27051
2.65767	-15.55636	11.27051
2.66186	-15.55636	11.27051
2.66605	-15.55636	11.27051
2.67023	-15.55636	11.27051
2.67451	-15.55636	11.27051
2.67876	-15.55636	11.27051
2.68298	-15.55636	11.27051
2.68718	-15.55636	11.27051
2.69138	-15.55636	11.27051
2.69557	-15.55636	11.27051
2.69976	-15.57834	11.27051
2.70406	-15.57834	11.27051
2.70830	-15.57834	11.27051
2.71251	-15.57834	11.27051
2.71671	-15.57834	11.27051
2.72091	-15.57834	11.27051
2.72511	-15.57834	11.27051
2.72930	-15.57834	11.27051
2.73376	-15.57834	11.27051
2.73799	-15.60031	11.27051
2.74219	-15.60031	11.27051
2.74639	-15.60031	11.27051
2.75058	-15.60031	11.27051
2.75477	-15.60031	11.27051
2.75895	-15.60031	11.27051
2.76318	-15.60031	11.27051
2.76743	-15.60031	11.27051
2.77165	-15.60031	11.27051
2.77585	-15.62228	11.27051
2.78007	-15.62228	11.27051
2.78426	-15.62228	11.27051
2.78845	-15.62228	11.27051
2.79264	-15.62228	11.27051
2.79692	-15.62228	11.27051
2.80116	-15.64425	11.27051
2.80537	-15.64425	11.27051
2.80957	-15.64425	11.27051
2.81376	-15.64425	11.27051
2.81796	-15.64425	11.27051
2.82214	-15.64425	11.27051
2.82644	-15.64425	11.27051
2.83068	-15.66623	11.27051
2.83500	-15.66623	11.27051
2.83920	-15.66623	11.27051
2.84340	-15.66623	11.27051
2.84759	-15.66623	11.27051
2.85178	-15.66623	11.27051
2.85609	-15.66623	11.27051
2.86033	-15.66623	11.27051
2.86455	-15.68820	11.27051
2.86875	-15.68820	11.27051
2.87294	-15.68820	11.27051
2.87714	-15.68820	11.27051
2.88133	-15.71017	11.27051
2.88557	-15.71017	11.27051
2.88984	-15.71017	11.27051
2.89406	-15.71017	11.27051
2.89826	-15.71017	11.27051
2.90246	-15.71017	11.27051
2.90665	-15.71017	11.27051
2.91083	-15.71017	11.27051
2.91502	-15.73214	11.27051
2.91930	-15.73214	11.27051
2.92355	-15.73214	11.27051
2.92776	-15.73214	11.27051
2.93196	-15.73214	11.27051
2.93627	-15.73214	11.27051
2.94045	-15.75412	11.27051
2.94464	-15.75412	11.27051
2.94893	-15.77609	11.27051
2.95316	-15.77609	11.27051
2.95738	-15.77609	11.27051
2.96157	-15.77609	11.27051
2.96577	-15.77609	11.27051
2.96995	-15.79806	11.27051
2.97414	-15.79806	11.27051
2.97848	-15.79806	11.27051
2.98272	-15.79806	11.27051
2.98694	-15.79806	11.27051
2.99115	-15.82004	11.27051
2.99534	-15.82004	11.27051
2.99953	-15.82004	11.27051
3.00371	-15.84201	11.27051
3.00795	-15.84201	11.27051
3.01221	-15.84201	11.27051
3.01644	-15.84201	11.27051
3.02064	-15.84201	11.27051
3.02485	-15.84201	11.27051
3.02904	-15.86398	11.27051
3.03323	-15.86398	11.27051
3.03752	-15.86398	11.27051
3.04179	-15.86398	11.27051
3.04602	-15.88595	11.27051
3.05023	-15.88595	11.27051
3.05443	-15.88595	11.27051
3.05862	-15.88595	11.27051
3.06280	-15.88595	11.27051
3.06699	-15.90793	11.27051
3.07127	-15.90793	11.27051
3.07551	-15.90793	11.27051
3.07976	-15.92990	11.27051
3.08397	-15.92990	11.27051
3.08818	-15.92990	11.27051
3.09237	-15.92990	11.27051
3.09656	-15.95187	11.27051
3.10085	-15.92990	11.27051
3.10510	-15.95187	11.27051
3.10932	-15.95187	11.27051
3.11352	-15.95187	11.27051
3.11771	-15.95187	11.27051
3.12190	-15.97384	11.27051
3.12608	-15.97384	11.27051
3.13031	-15.97384	11.27051
3.13456	-15.97384	11.27051
3.13888	-15.97384	11.27051
3.14308	-15.99582	11.27051
3.14728	-15.99582	11.27051
3.15147	-16.01779	11.27051
3.15565	-16.01779	11.27051
3.15984	-16.01779	11.27051
3.16413	-16.01779	11.27051
3.16836	-16.01779	11.27051
3.17257	-16.01779	11.27051
3.17682	-16.01779	11.27051
3.18101	-16.03976	11.27051
3.18521	-16.03976	11.27051
3.18940	-16.06173	11.27051
3.19369	-16.06173	11.27051
3.19795	-16.06173	11.27051
3.20217	-16.06173	11.27051
3.20637	-16.06173	11.27051
3.21056	-16.08371	11.27051
3.21475	-16.08371	11.27051
3.21894	-16.08371	11.27051
3.22326	-16.08371	11.27051
3.22751	-16.08371	11.27051
3.23173	-16.08371	11.27051
3.23593	-16.10568	11.27051
3.24023	-16.10568	11.27051
3.24442	-16.10568	11.27051
3.24862	-16.10568	11.27051
3.25286	-16.12765	11.27051
3.25712	-16.14963	11.27051
3.26134	-16.12765	11.27051
3.26554	-16.14963	11.27051
3.26974	-16.14963	11.27051
3.27393	-16.14963	11.27051
3.27813	-16.14963	11.27051
3.28232	-16.17160	11.27051
3.28661	-16.17160	11.27051
3.29086	-16.17160	11.27051
3.29507	-16.19357	11.27051
3.29928	-16.19357	11.27051
3.30347	-16.19357	11.27051
3.30766	-16.19357	11.27051
3.31185	-16.19357	11.27051
3.31615	-16.21554	11.27051
3.32039	-16.21554	11.27051
3.32460	-16.21554	11.27051
3.32880	-16.21554	11.27051
3.33299	-16.21554	11.27051
3.33718	-16.23752	11.27051
3.34147	-16.23752	11.27051
3.34578	-16.23752	11.27051
3.35002	-16.23752	11.27051
3.35423	-16.25949	11.27051
3.35843	-16.25949	11.27051
3.36262	-16.25949	11.27051
3.36682	-16.25949	11.27051
3.37101	-16.25949	11.27051
3.37524	-16.28146	11.27051
3.37952	-16.28146	11.27051
3.38375	-16.28146	11.27051
3.38798	-16.30343	11.27051
3.39218	-16.30343	11.27051
3.39637	-16.30343	11.27051
3.40056	-16.30343	11.27051
3.40474	-16.30343	11.27051
3.40902	-16.30343	11.27051
3.41325	-16.32541	11.27051
3.41746	-16.32541	11.27051
3.42166	-16.34738	11.27051
3.42585	-16.34738	11.27051
3.43004	-16.34738	11.27051
3.43422	-16.34738	11.27051
3.43850	-16.34738	11.27051
3.44285	-16.34738	11.27051
3.44706	-16.34738	11.27051
3.45127	-16.36935	11.27051
3.45546	-16.36935	11.27051
3.45965	-16.36935	11.27051
3.46383	-16.36935	11.27051
3.46816	-16.39132	11.27051
3.47240	-16.39132	11.27051
3.47660	-16.39132	11.27051
3.48082	-16.39132	11.27051
3.48502	-16.39132	11.27051
3.48922	-16.39132	11.27051
3.49341	-16.41330	11.27051
3.49766	-16.41330	11.27051
3.50192	-16.41330	11.27051
3.50614	-16.41330	11.27051
3.51034	-16.41330	11.27051
3.51453	-16.41330	11.27051
3.51872	-16.41330	11.27051
3.52291	-16.43527	11.27051
3.52710	-16.43527	11.27051
3.53137	-16.43527	11.27051
3.53560	-16.43527	11.27051
3.53981	-16.43527	11.27051
3.54413	-16.45724	11.27051
3.54832	-16.45724	11.27051
3.55251	-16.45724	11.27051
3.55670	-16.45724	11.27051
3.56098	-16.45724	11.27051
3.56522	-16.45724	11.27051
3.56943	-16.45724	11.27051
3.57362	-16.45724	11.27051
3.57783	-16.47922	11.27051
3.58202	-16.47922	11.27051
3.58621	-16.47922	11.27051
3.59052	-16.47922	11.27051
3.59476	-16.47922	11.27051
3.59897	-16.47922	11.27051
3.60317	-16.47922	11.27051
3.60735	-16.47922	11.27051
3.61154	-16.50119	11.27051
3.61573	-16.50119	11.27051
3.61995	-16.50119	11.27051
3.62421	-16.50119	11.27051
3.62843	-16.50119	11.27051
3.63263	-16.50119	11.27051
3.63683	-16.52316	11.27051
3.64102	-16.52316	11.27051
3.64532	-16.50119	11.27051
3.64951	-16.50119	11.27051
3.65379	-16.50119	11.27051
3.65802	-16.50119	11.27051
3.66223	-16.52316	11.27051
3.66642	-16.50119	11.27051
3.67061	-16.50119	11.27051
3.67480	-16.50119	11.27051
3.67901	-16.50119	11.27051
3.68331	-16.50119	11.27051
3.68756	-16.52316	11.27051
3.69178	-16.52316	11.27051
3.69599	-16.52316	11.27051
3.70018	-16.52316	11.27051
3.70437	-16.52316	11.27051
3.70856	-16.52316	11.27051
3.71287	-16.50119	11.27051
3.71711	-16.52316	11.27051
3.72132	-16.52316	11.27051
3.72552	-16.52316	11.27051
3.72971	-16.50119	11.27051
3.73390	-16.52316	11.27051
3.73809	-16.50119	11.27051
3.74232	-16.50119	11.27051
3.74668	-16.50119	11.27051
3.75089	-16.50119	11.27051
3.75510	-16.50119	11.27051
3.75929	-16.50119	11.27051
3.76348	-16.50119	11.27051
3.76767	-16.50119	11.27051
3.77186	-16.50119	11.27051
3.77616	-16.50119	11.27051
3.78042	-16.50119	11.27051
3.78464	-16.50119	11.27051
3.78885	-16.47922	11.27051
3.79304	-16.47922	11.27051
3.79723	-16.47922	11.27051
3.80142	-16.47922	11.27051
3.80571	-16.47922	11.27051
3.80994	-16.47922	11.27051
3.81416	-16.47922	11.27051
3.81836	-16.45724	11.27051
3.82256	-16.45724	11.27051
3.82675	-16.45724	11.27051
3.83094	-16.45724	11.27051
3.83525	-16.45724	11.27051
3.83948	-16.45724	11.27051
3.84369	-16.43527	11.27051
3.84799	-16.43527	11.27051
3.85217	-16.43527	11.27051
3.85637	-16.43527	11.27051
3.86056	-16.43527	11.27051
3.86479	-16.43527	11.27051
3.86904	-16.41330	11.27051
3.87326	-16.41330	11.27051
3.87746	-16.41330	11.27051
3.88168	-16.41330	11.27051
3.88587	-16.41330	11.27051
3.89007	-16.39132	11.27051
3.89426	-16.39132	11.27051
3.89855	-16.39132	11.27051
3.90279	-16.36935	11.27051
3.90700	-16.36935	11.27051
3.91119	-16.36935	11.27051
3.91538	-16.36935	11.27051
3.91957	-16.34738	11.27051
3.92376	-16.34738	11.27051
3.92806	-16.34738	11.27051
3.93230	-16.34738	11.27051
3.93651	-16.34738	11.27051
3.94071	-16.32541	11.27051
3.94490	-16.32541	11.27051
3.94919	-16.32541	11.27051
3.95337	-16.30343	11.27051
3.95768	-16.30343	11.27051
3.96193	-16.30343	11.27051
3.96615	-16.30343	11.27051
3.97035	-16.28146	11.27051
3.97454	-16.30343	11.27051
3.97874	-16.28146	11.27051
3.98293	-16.28146	11.27051
3.98716	-16.28146	11.27051
3.99142	-16.28146	11.27051
3.99565	-16.28146	11.27051
3.99986	-16.25949	11.27051
4.00406	-16.25949	11.27051
4.00825	-16.25949	11.27051
4.01244	-16.25949	11.27051
4.01662	-16.25949	11.27051
4.02090	-16.23752	11.27051
4.02513	-16.23752	11.27051
4.02935	-16.23752	11.27051
4.03355	-16.23752	11.27051
4.03774	-16.23752	11.27051
4.04193	-16.23752	11.27051
4.04611	-16.21554	11.27051
4.05050	-16.21554	11.27051
4.05473	-16.21554	11.27051
4.05895	-16.21554	11.27051
4.06315	-16.21554	11.27051
4.06735	-16.21554	11.27051
4.07153	-16.21554	11.27051
4.07572	-16.21554	11.27051
4.08008	-16.19357	11.27051
4.08433	-16.19357	11.27051
4.08854	-16.19357	11.27051
4.09274	-16.19357	11.27051
4.09694	-16.19357	11.27051
4.10113	-16.19357	11.27051
4.10531	-16.19357	11.27051
4.10954	-16.17160	11.27051
4.11379	-16.19357	11.27051
4.11801	-16.19357	11.27051
4.12221	-16.19357	11.27051
4.12641	-16.19357	11.27051
4.13060	-16.17160	11.27051
4.13479	-16.17160	11.27051
4.13897	-16.17160	11.27051
4.14325	-16.17160	11.27051
4.14748	-16.17160	11.27051
4.15180	-16.17160	11.27051
4.15599	-16.17160	11.27051
4.16017	-16.17160	11.27051
4.16436	-16.17160	11.27051
4.16855	-16.17160	11.27051
4.17283	-16.19357	11.27051
4.17706	-16.19357	11.27051
4.18130	-16.17160	11.27051
4.18551	-16.17160	11.27051
4.18970	-16.17160	11.27051
4.19388	-16.19357	11.27051
4.19808	-16.19357	11.27051
4.20237	-16.19357	11.27051
4.20662	-16.19357	11.27051
4.21084	-16.17160	11.27051
4.21504	-16.19357	11.27051
4.21924	-16.19357	11.27051
4.22343	-16.19357	11.27051
4.22762	-16.19357	11.27051
4.23188	-16.19357	11.27051
4.23616	-16.19357	11.27051
4.24038	-16.19357	11.27051
4.24458	-16.19357	11.27051
4.24878	-16.19357	11.27051
4.25307	-16.19357	11.27051
4.25726	-16.19357	11.27051
4.26148	-16.19357	11.27051
4.26578	-16.21554	11.27051
4.27002	-16.19357	11.27051
4.27423	-16.21554	11.27051
4.27845	-16.21554	11.27051
4.28266	-16.21554	11.27051
4.28686	-16.21554	11.27051
4.29106	-16.23752	11.27051
4.29536	-16.21554	11.27051
4.29960	-16.21554	11.27051
4.30381	-16.23752	11.27051
4.30801	-16.23752	11.27051
4.31217	-16.23752	11.27051
4.31636	-16.23752	11.27051
4.32054	-16.23752	11.27051
4.32484	-16.23752	11.27051
4.32907	-16.23752	11.27051
4.33326	-16.23752	11.27051
4.33744	-16.25949	11.27051
4.34163	-16.25949	11.27051
4.34581	-16.23752	11.27051
4.35000	-16.25949	11.27051
4.35434	-16.25949	11.27051
4.35859	-16.25949	11.27051
4.36279	-16.25949	11.27051
4.36698	-16.25949	11.27051
4.37117	-16.25949	11.27051
4.37535	-16.25949	11.27051
4.37955	-16.28146	11.27051
4.38374	-16.28146	11.27051
4.38805	-16.28146	11.27051
4.39228	-16.28146	11.27051
4.39650	-16.28146	11.27051
4.40069	-16.28146	11.27051
4.40488	-16.28146	11.27051
4.40907	-16.28146	11.27051
4.41326	-16.30343	11.27051
4.41754	-16.30343	11.27051
4.42178	-16.30343	11.27051
4.42600	-16.30343	11.27051
4.43020	-16.30343	11.27051
4.43439	-16.30343	11.27051
4.43858	-16.30343	11.27051
4.44276	-16.30343	11.27051
4.44707	-16.32541	11.27051
4.45131	-16.32541	11.27051
4.45562	-16.32541	11.27051
4.45981	-16.32541	11.27051
4.46400	-16.32541	11.27051
4.46817	-16.32541	11.27051
4.47235	-16.32541	11.27051
4.47658	-16.32541	11.27051
4.48086	-16.32541	11.27051
4.48510	-16.34738	11.27051
4.48931	-16.32541	11.27051
4.49351	-16.32541	11.27051
4.49770	-16.34738	11.27051
4.50189	-16.32541	11.27051
4.50608	-16.32541	11.27051
4.51037	-16.34738	11.27051
4.51461	-16.34738	11.27051
4.51882	-16.34738	11.27051
4.52302	-16.34738	11.27051
4.52721	-16.34738	11.27051
4.53140	-16.34738	11.27051
4.53559	-16.34738	11.27051
4.53987	-16.34738	11.27051
4.54412	-16.34738	11.27051
4.54834	-16.34738	11.27051
4.55254	-16.36935	11.27051
4.55684	-16.34738	11.27051
4.56103	-16.34738	11.27051
4.56522	-16.34738	11.27051
4.56953	-16.34738	11.27051
4.57377	-16.34738	11.27051
4.57798	-16.36935	11.27051
4.58220	-16.34738	11.27051
4.58640	-16.36935	11.27051
4.59059	-16.36935	11.27051
4.59478	-16.36935	11.27051
4.59901	-16.36935	11.27051
4.60326	-16.36935	11.27051
4.60748	-16.36935	11.27051
4.61168	-16.36935	11.27051
4.61587	-16.34738	11.27051
4.62007	-16.34738	11.27051
4.62426	-16.36935	11.27051
4.62845	-16.36935	11.27051
4.63273	-16.34738	11.27051
4.63695	-16.36935	11.27051
4.64116	-16.36935	11.27051
4.64536	-16.36935	11.27051
4.64955	-16.36935	11.27051
4.65374	-16.36935	11.27051
4.65807	-16.36935	11.27051
4.66235	-16.36935	11.27051
4.66660	-16.36935	11.27051
4.67081	-16.36935	11.27051
4.67501	-16.36935	11.27051
4.67922	-16.36935	11.27051
4.68341	-16.36935	11.27051
4.68761	-16.34738	11.27051
4.69190	-16.36935	11.27051
4.69615	-16.36935	11.27051
4.70036	-16.36935	11.27051
4.70455	-16.36935	11.27051
4.70874	-16.36935	11.27051
4.71293	-16.36935	11.27051
4.71712	-16.36935	11.27051
4.72135	-16.36935	11.27051
4.72560	-16.36935	11.27051
4.72982	-16.36935	11.27051
4.73402	-16.36935	11.27051
4.73821	-16.34738	11.27051
4.74240	-16.36935	11.27051
4.74659	-16.36935	11.27051
4.75078	-16.36935	11.27051
4.75506	-16.36935	11.27051
4.75941	-16.36935	11.27051
4.76363	-16.36935	11.27051
4.76783	-16.36935	11.27051
4.77204	-16.34738	11.27051
4.77623	-16.36935	11.27051
4.78043	-16.36935	11.27051
4.78473	-16.36935	11.27051
4.78898	-16.36935	11.27051
4.79320	-16.36935	11.27051
4.79741	-16.34738	11.27051
4.80161	-16.36935	11.27051
4.80580	-16.34738	11.27051
4.80998	-16.34738	11.27051
4.81429	-16.36935	11.27051
4.81854	-16.34738	11.27051
4.82275	-16.34738	11.27051
4.82696	-16.36935	11.27051
4.83117	-16.34738	11.27051
4.83536	-16.34738	11.27051
4.83955	-16.34738	11.27051
4.84379	-16.34738	11.27051
4.84806	-16.34738	11.27051
4.85228	-16.34738	11.27051
4.85649	-16.34738	11.27051
4.86079	-16.36935	11.27051
4.86499	-16.36935	11.27051
4.86918	-16.34738	11.27051
4.87336	-16.34738	11.27051
4.87764	-16.34738	11.27051
4.88190	-16.34738	11.27051
4.88612	-16.34738	11.27051
4.89033	-16.34738	11.27051
4.89452	-16.34738	11.27051
4.89872	-16.34738	11.27051
4.90291	-16.34738	11.27051
4.90720	-16.34738	11.27051
4.91145	-16.34738	11.27051
4.91566	-16.34738	11.27051
4.91986	-16.34738	11.27051
4.92407	-16.34738	11.27051
4.92826	-16.32541	11.27051
4.93244	-16.34738	11.27051
4.93675	-16.34738	11.27051
4.94098	-16.34738	11.27051
4.94519	-16.34738	11.27051
4.94939	-16.32541	11.27051
4.95358	-16.32541	11.27051
4.95776	-16.32541	11.27051
4.96205	-16.32541	11.27051
4.96629	-16.32541	11.27051
4.97054	-16.32541	11.27051
4.97475	-16.32541	11.27051
4.97896	-16.32541	11.27051
4.98316	-16.32541	11.27051
4.98736	-16.30343	11.27051
4.99155	-16.32541	11.27051
4.99574	-16.32541	11.27051
5.00002	-16.30343	11.27051
5.00421	-16.32541	11.27051
5.00842	-16.32541	11.27051
5.01262	-16.30343	11.27051
5.01682	-16.30343	11.27051
5.02101	-16.30343	11.27051
5.02519	-16.30343	11.27051
5.02947	-16.30343	11.27051
5.03371	-16.30343	11.27051
5.03792	-16.30343	11.27051
5.04211	-16.28146	11.27051
5.04631	-16.30343	11.27051
5.05049	-16.30343	11.27051
5.05468	-16.30343	11.27051
5.05898	-16.28146	11.27051
5.06333	-16.28146	11.27051
5.06754	-16.28146	11.27051
5.07173	-16.28146	11.27051
5.07592	-16.28146	11.27051
5.08012	-16.28146	11.27051
5.08431	-16.25949	11.27051
5.08854	-16.25949	11.27051
5.09279	-16.25949	11.27051
5.09701	-16.25949	11.27051
5.10122	-16.25949	11.27051
5.10541	-16.25949	11.27051
5.10960	-16.23752	11.27051
5.11379	-16.23752	11.27051
5.11798	-16.23752	11.27051
5.12225	-16.23752	11.27051
5.12647	-16.23752	11.27051
5.13069	-16.23752	11.27051
5.13488	-16.23752	11.27051
5.13907	-16.21554	11.27051
5.14326	-16.21554	11.27051
5.14745	-16.21554	11.27051
5.15173	-16.21554	11.27051
5.15597	-16.21554	11.27051
5.16019	-16.21554	11.27051
5.16450	-16.19357	11.27051
5.16869	-16.19357	11.27051
5.17288	-16.19357	11.27051
5.17707	-16.19357	11.27051
5.18136	-16.19357	11.27051
5.18561	-16.19357	11.27051
5.18982	-16.17160	11.27051
5.19402	-16.19357	11.27051
5.19822	-16.17160	11.27051
5.20241	-16.17160	11.27051
5.20660	-16.17160	11.27051
5.21083	-16.17160	11.27051
5.21508	-16.14963	11.27051
5.21931	-16.14963	11.27051
5.22352	-16.14963	11.27051
5.22771	-16.14963	11.27051
5.23191	-16.14963	11.27051
5.23611	-16.14963	11.27051
5.24029	-16.12765	11.27051
5.24458	-16.12765	11.27051
5.24882	-16.12765	11.27051
5.25303	-16.12765	11.27051
5.25722	-16.12765	11.27051
5.26142	-16.12765	11.27051
5.26572	-16.12765	11.27051
5.26991	-16.10568	11.27051
5.27420	-16.10568	11.27051
5.27844	-16.10568	11.27051
5.28266	-16.08371	11.27051
5.28686	-16.08371	11.27051
5.29106	-16.08371	11.27051
5.29525	-16.08371	11.27051
5.29944	-16.08371	11.27051
5.30375	-16.06173	11.27051
5.30799	-16.06173	11.27051
5.31219	-16.06173	11.27051
5.31639	-16.06173	11.27051
5.32058	-16.03976	11.27051
5.32476	-16.03976	11.27051
5.32895	-16.03976	11.27051
5.33318	-16.03976	11.27051
5.33742	-16.03976	11.27051
5.34164	-16.03976	11.27051
5.34584	-16.03976	11.27051
5.35003	-16.01779	11.27051
5.35422	-16.01779	11.27051
5.35841	-16.01779	11.27051
5.36260	-15.99582	11.27051
5.36699	-15.99582	11.27051
5.37122	-15.99582	11.27051
5.37543	-15.99582	11.27051
5.37963	-15.99582	11.27051
5.38383	-15.99582	11.27051
5.38801	-15.99582	11.27051
5.39216	-15.97384	11.27051
5.39646	-15.97384	11.27051
5.40069	-15.97384	11.27051
5.40491	-15.97384	11.27051
5.40911	-15.97384	11.27051
5.41331	-15.95187	11.27051
5.41750	-15.95187	11.27051
5.42169	-15.95187	11.27051
5.42600	-15.95187	11.27051
5.43023	-15.95187	11.27051
5.43445	-15.95187	11.27051
5.43864	-15.92990	11.27051
5.44283	-15.92990	11.27051
5.44702	-15.92990	11.27051
5.45120	-15.92990	11.27051
5.45543	-15.92990	11.27051
5.45968	-15.92990	11.27051
5.46390	-15.92990	11.27051
5.46822	-15.90793	11.27051
5.47241	-15.90793	11.27051
5.47660	-15.92990	11.27051
5.48078	-15.90793	11.27051
5.48497	-15.90793	11.27051
5.48926	-15.90793	11.27051
5.49349	-15.88595	11.27051
5.49770	-15.88595	11.27051
5.50191	-15.90793	11.27051
5.50610	-15.88595	11.27051
5.51029	-15.88595	11.27051
5.51448	-15.88595	11.27051
5.51876	-15.88595	11.27051
5.52300	-15.88595	11.27051
5.52720	-15.88595	11.27051
5.53141	-15.88595	11.27051
5.53560	-15.88595	11.27051
5.53979	-15.88595	11.27051
5.54398	-15.86398	11.27051
5.54829	-15.86398	11.27051
5.55253	-15.86398	11.27051
5.55673	-15.86398	11.27051
5.56092	-15.86398	11.27051
5.56511	-15.86398	11.27051
5.56940	-15.86398	11.27051
5.57359	-15.86398	11.27051
5.57782	-15.86398	11.27051
5.58207	-15.86398	11.27051
5.58629	-15.84201	11.27051
5.59049	-15.86398	11.27051
5.59468	-15.84201	11.27051
5.59887	-15.84201	11.27051
5.60306	-15.84201	11.27051
5.60724	-15.84201	11.27051
5.61152	-15.84201	11.27051
5.61575	-15.84201	11.27051
5.61996	-15.84201	11.27051
5.62417	-15.84201	11.27051
5.62836	-15.84201	11.27051
5.63254	-15.84201	11.27051
5.63673	-15.84201	11.27051
5.64101	-15.84201	11.27051
5.64525	-15.84201	11.27051
5.64946	-15.84201	11.27051
5.65365	-15.84201	11.27051
5.65785	-15.84201	11.27051
5.66203	-15.84201	11.27051
5.66622	-15.86398	11.27051
5.67066	-15.84201	11.27051
5.67489	-15.84201	11.27051
5.67910	-15.84201	11.27051
5.68329	-15.84201	11.27051
5.68748	-15.84201	11.27051
5.69167	-15.84201	11.27051
5.69585	-15.84201	11.27051
5.70009	-15.84201	11.27051
5.70434	-15.84201	11.27051
5.70856	-15.84201	11.27051
5.71277	-15.84201	11.27051
5.71696	-15.84201	11.27051
5.72115	-15.84201	11.27051
5.72533	-15.84201	11.27051
5.72952	-15.84201	11.27051
5.73379	-15.84201	11.27051
5.73802	-15.84201	11.27051
5.74222	-15.84201	11.27051
5.74642	-15.84201	11.27051
5.75061	-15.84201	11.27051
5.75480	-15.84201	11.27051
5.75898	-15.84201	11.27051
5.76327	-15.84201	11.27051
5.76750	-15.84201	11.27051
5.77182	-15.84201	11.27051
5.77604	-15.84201	11.27051
5.78023	-15.84201	11.27051
5.78442	-15.84201	11.27051
5.78861	-15.84201	11.27051
5.79289	-15.84201	11.27051
5.79713	-15.84201	11.27051
5.80134	-15.84201	11.27051
5.80553	-15.84201	11.27051
5.80972	-15.84201	11.27051
5.81391	-15.84201	11.27051
5.81809	-15.84201	11.27051
5.82232	-15.84201	11.27051
5.82657	-15.84201	11.27051
5.83079	-15.86398	11.27051
5.83499	-15.84201	11.27051
5.83918	-15.84201	11.27051
5.84337	-15.86398	11.27051
5.84756	-15.86398	11.27051
5.85174	-15.86398	11.27051
5.85602	-15.86398	11.27051
5.86021	-15.86398	11.27051
5.86442	-15.86398	11.27051
5.86862	-15.86398	11.27051
5.87291	-15.86398	11.27051
5.87710	-15.86398	11.27051
5.88129	-15.86398	11.27051
5.88557	-15.88595	11.27051
5.88981	-15.88595	11.27051
5.89402	-15.86398	11.27051
5.89822	-15.86398	11.27051
5.90242	-15.86398	11.27051
5.90661	-15.86398	11.27051
5.91079	-15.88595	11.27051
5.91510	-15.88595	11.27051
5.91933	-15.88595	11.27051
5.92354	-15.86398	11.27051
5.92774	-15.88595	11.27051
5.93193	-15.88595	11.27051
5.93613	-15.88595	11.27051
5.94032	-15.88595	11.27051
5.94455	-15.88595	11.27051
5.94880	-15.88595	11.27051
5.95301	-15.88595	11.27051
5.95721	-15.88595	11.27051
5.96141	-15.90793	11.27051
5.96560	-15.90793	11.27051
5.96979	-15.90793	11.27051
5.97408	-15.90793	11.27051
5.97835	-15.90793	11.27051
5.98259	-15.90793	11.27051
5.98679	-15.90793	11.27051
5.99099	-15.90793	11.27051
5.99518	-15.90793	11.27051
5.99937	-15.92990	11.27051
6.00355	-15.92990	11.27051
6.00784	-15.92990	11.27051
6.01210	-15.92990	11.27051
6.01631	-15.92990	11.27051
6.02051	-15.92990	11.27051
6.02470	-15.92990	11.27051
6.02889	-15.92990	11.27051
6.03308	-15.95187	11.27051
6.03739	-15.95187	11.27051
6.04162	-15.95187	11.27051
6.04582	-15.95187	11.27051
6.05002	-15.95187	11.27051
6.05421	-15.95187	11.27051
6.05840	-15.97384	11.27051
6.06258	-15.97384	11.27051
6.06681	-15.97384	11.27051
6.07107	-15.97384	11.27051
6.07539	-15.97384	11.27051
6.07960	-15.97384	11.27051
6.08379	-15.99582	11.27051
6.08798	-15.99582	11.27051
6.09216	-15.99582	11.27051
6.09635	-15.99582	11.27051
6.10063	-15.99582	11.27051
6.10486	-15.99582	11.27051
6.10906	-16.01779	11.27051
6.11327	-15.99582	11.27051
6.11746	-16.01779	11.27051
6.12165	-16.01779	11.27051
6.12583	-16.01779	11.27051
6.13011	-16.01779	11.27051
6.13434	-16.01779	11.27051
6.13855	-16.03976	11.27051
6.14275	-16.03976	11.27051
6.14694	-16.03976	11.27051
6.15113	-16.03976	11.27051
6.15531	-16.03976	11.27051
6.15963	-16.03976	11.27051
6.16387	-16.06173	11.27051
6.16809	-16.06173	11.27051
6.17229	-16.06173	11.27051
6.17659	-16.08371	11.27051
6.18078	-16.08371	11.27051
6.18497	-16.08371	11.27051
6.18919	-16.08371	11.27051
6.19344	-16.08371	11.27051
6.19766	-16.08371	11.27051
6.20186	-16.10568	11.27051
6.20605	-16.10568	11.27051
6.21024	-16.10568	11.27051
6.21443	-16.10568	11.27051
6.21863	-16.10568	11.27051
6.22294	-16.12765	11.27051
6.22718	-16.12765	11.27051
6.23143	-16.12765	11.27051
6.23564	-16.12765	11.27051
6.23983	-16.14963	11.27051
6.24402	-16.14963	11.27051
6.24817	-16.14963	11.27051
6.25246	-16.17160	11.27051
6.25670	-16.17160	11.27051
6.26092	-16.17160	11.27051
6.26513	-16.17160	11.27051
6.26932	-16.17160	11.27051
6.27351	-16.17160	11.27051
6.27781	-16.19357	11.27051
6.28213	-16.17160	11.27051
6.28637	-16.19357	11.27051
6.29059	-16.19357	11.27051
6.29478	-16.19357	11.27051
6.29898	-16.21554	11.27051
6.30316	-16.21554	11.27051
6.30735	-16.21554	11.27051
6.31158	-16.21554	11.27051
6.31583	-16.21554	11.27051
6.32005	-16.23752	11.27051
6.32426	-16.21554	11.27051
6.32845	-16.23752	11.27051
6.33264	-16.23752	11.27051
6.33683	-16.23752	11.27051
6.34102	-16.23752	11.27051
6.34530	-16.25949	11.27051
6.34952	-16.25949	11.27051
6.35373	-16.25949	11.27051
6.35792	-16.25949	11.27051
6.36211	-16.28146	11.27051
6.36630	-16.28146	11.27051
6.37049	-16.25949	11.27051
6.37478	-16.28146	11.27051
6.37913	-16.28146	11.27051
6.38334	-16.28146	11.27051
6.38754	-16.30343	11.27051
6.39173	-16.30343	11.27051
6.39592	-16.28146	11.27051
6.40011	-16.30343	11.27051
6.40440	-16.30343	11.27051
6.40864	-16.30343	11.27051
6.41286	-16.30343	11.27051
6.41705	-16.30343	11.27051
6.42124	-16.32541	11.27051
6.42543	-16.32541	11.27051
6.42961	-16.32541	11.27051
6.43385	-16.32541	11.27051
6.43810	-16.34738	11.27051
6.44231	-16.34738	11.27051
6.44652	-16.34738	11.27051
6.45071	-16.34738	11.27051
6.45490	-16.34738	11.27051
6.45908	-16.34738	11.27051
6.46327	-16.36935	11.27051
6.46755	-16.36935	11.27051
6.47178	-16.36935	11.27051
6.47599	-16.36935	11.27051
6.48029	-16.36935	11.27051
6.48448	-16.36935	11.27051
6.48867	-16.36935	11.27051
6.49286	-16.36935	11.27051
6.49715	-16.36935	11.27051
6.50139	-16.36935	11.27051
6.50560	-16.39132	11.27051
6.50980	-16.39132	11.27051
6.51399	-16.39132	11.27051
6.51818	-16.39132	11.27051
6.52237	-16.39132	11.27051
6.52668	-16.39132	11.27051
6.53092	-16.39132	11.27051
6.53513	-16.39132	11.27051
6.53932	-16.41330	11.27051
6.54351	-16.41330	11.27051
6.54770	-16.41330	11.27051
6.55188	-16.41330	11.27051
6.55612	-16.41330	11.27051
6.56038	-16.41330	11.27051
6.56460	-16.41330	11.27051
6.56880	-16.41330	11.27051
6.57299	-16.41330	11.27051
6.57718	-16.41330	11.27051
6.58148	-16.41330	11.27051
6.58566	-16.41330	11.27051
6.58994	-16.41330	11.27051
6.59417	-16.41330	11.27051
6.59838	-16.41330	11.27051
6.60257	-16.41330	11.27051
6.60677	-16.43527	11.27051
6.61095	-16.41330	11.27051
6.61514	-16.41330	11.27051
6.61942	-16.41330	11.27051
6.62366	-16.41330	11.27051
6.62788	-16.41330	11.27051
6.63209	-16.41330	11.27051
6.63628	-16.43527	11.27051
6.64047	-16.41330	11.27051
6.64466	-16.43527	11.27051
6.64897	-16.43527	11.27051
6.65321	-16.41330	11.27051
6.65742	-16.41330	11.27051
6.66161	-16.43527	11.27051
6.66580	-16.43527	11.27051
6.66999	-16.43527	11.27051
6.67417	-16.43527	11.27051
6.67840	-16.43527	11.27051
6.68277	-16.41330	11.27051
6.68699	-16.41330	11.27051
6.69119	-16.41330	11.27051
6.69538	-16.41330	11.27051
6.69957	-16.41330	11.27051
6.70376	-16.41330	11.27051
6.70794	-16.41330	11.27051
6.71223	-16.41330	11.27051
6.71645	-16.41330	11.27051
6.72066	-16.41330	11.27051
6.72486	-16.41330	11.27051
6.72905	-16.41330	11.27051
6.73324	-16.41330	11.27051
6.73743	-16.41330	11.27051
6.74171	-16.39132	11.27051
6.74595	-16.41330	11.27051
6.75015	-16.41330	11.27051
6.75435	-16.41330	11.27051
6.75854	-16.41330	11.27051
6.76273	-16.41330	11.27051
6.76691	-16.39132	11.27051
6.77123	-16.39132	11.27051
6.77547	-16.39132	11.27051
6.77968	-16.39132	11.27051
6.78398	-16.39132	11.27051
6.78817	-16.39132	11.27051
6.79235	-16.39132	11.27051
6.79654	-16.39132	11.27051
6.80077	-16.36935	11.27051
6.80501	-16.36935	11.27051
6.80923	-16.36935	11.27051
6.81343	-16.36935	11.27051
6.81762	-16.36935	11.27051
6.82181	-16.34738	11.27051
6.82600	-16.34738	11.27051
6.83018	-16.34738	11.27051
6.83446	-16.34738	11.27051
6.83869	-16.34738	11.27051
6.84289	-16.34738	11.27051
6.84709	-16.34738	11.27051
6.85128	-16.34738	11.27051
6.85547	-16.32541	11.27051
6.85966	-16.32541	11.27051
6.86395	-16.32541	11.27051
6.86820	-16.32541	11.27051
6.87241	-16.30343	11.27051
6.87661	-16.30343	11.27051
6.88081	-16.30343	11.27051
6.88510	-16.30343	11.27051
6.88929	-16.30343	11.27051
6.89358	-16.28146	11.27051
6.89782	-16.28146	11.27051
6.90203	-16.28146	11.27051
6.90622	-16.28146	11.27051
6.91042	-16.28146	11.27051
6.91460	-16.25949	11.27051
6.91879	-16.25949	11.27051
6.92302	-16.25949	11.27051
6.92727	-16.23752	11.27051
6.93149	-16.23752	11.27051
6.93569	-16.23752	11.27051
6.93989	-16.21554	11.27051
6.94408	-16.21554	11.27051
6.94827	-16.21554	11.27051
6.95246	-16.21554	11.27051
6.95673	-16.21554	11.27051
6.96096	-16.19357	11.27051
6.96516	-16.19357	11.27051
6.96936	-16.19357	11.27051
6.97355	-16.19357	11.27051
6.97774	-16.17160	11.27051
6.98193	-16.17160	11.27051
6.98632	-16.17160	11.27051
6.99055	-16.17160	11.27051
6.99476	-16.14963	11.27051
6.99896	-16.14963	11.27051
7.00315	-16.14963	11.27051
7.00733	-16.12765	11.27051
7.01152	-16.12765	11.27051
7.01582	-16.12765	11.27051
7.02006	-16.12765	11.27051
7.02430	-16.12765	11.27051
7.02851	-16.12765	11.27051
7.03270	-16.10568	11.27051
7.03689	-16.10568	11.27051
7.04108	-16.10568	11.27051
7.04532	-16.10568	11.27051
7.04957	-16.08371	11.27051
7.05379	-16.08371	11.27051
7.05799	-16.06173	11.27051
7.06219	-16.06173	11.27051
7.06637	-16.06173	11.27051
7.07056	-16.06173	11.27051
7.07475	-16.06173	11.27051
7.07902	-16.03976	11.27051
7.08325	-16.03976	11.27051
7.08757	-16.03976	11.27051
7.09176	-16.01779	11.27051
7.09595	-16.01779	11.27051
7.10015	-16.01779	11.27051
7.10433	-16.01779	11.27051
7.10862	-15.99582	11.27051
7.11286	-15.99582	11.27051
7.11707	-15.99582	11.27051
7.12129	-15.99582	11.27051
7.12549	-15.97384	11.27051
7.12968	-15.97384	11.27051
7.13387	-15.97384	11.27051
7.13818	-15.97384	11.27051
7.14242	-15.95187	11.27051
7.14663	-15.95187	11.27051
7.15083	-15.95187	11.27051
7.15502	-15.92990	11.27051
7.15921	-15.92990	11.27051
7.16341	-15.90793	11.27051
7.16765	-15.90793	11.27051
7.17190	-15.90793	11.27051
7.17614	-15.90793	11.27051
7.18035	-15.90793	11.27051
7.18455	-15.90793	11.27051
7.18884	-15.88595	11.27051
7.19303	-15.88595	11.27051
7.19722	-15.88595	11.27051
7.20150	-15.86398	11.27051
7.20572	-15.86398	11.27051
7.20993	-15.86398	11.27051
7.21414	-15.86398	11.27051
7.21834	-15.84201	11.27051
7.22254	-15.84201	11.27051
7.22673	-15.84201	11.27051
7.23103	-15.82004	11.27051
7.23528	-15.82004	11.27051
7.23949	-15.82004	11.27051
7.24370	-15.82004	11.27051
7.24791	-15.79806	11.27051
7.25212	-15.79806	11.27051
7.25634	-15.79806	11.27051
7.26077	-15.79806	11.27051
7.26504	-15.79806	11.27051
7.26926	-15.79806	11.27051
7.27346	-15.77609	11.27051
7.27766	-15.77609	11.27051
7.28187	-15.77609	11.27051
7.28607	-15.75412	11.27051
7.29048	-15.75412	11.27051
7.29474	-15.75412	11.27051
7.29897	-15.75412	11.27051
7.30318	-15.75412	11.27051
7.30742	-15.73214	11.27051
7.31163	-15.73214	11.27051
7.31584	-15.73214	11.27051
7.32004	-15.73214	11.27051
7.32434	-15.73214	11.27051
7.32861	-15.71017	11.27051
7.33284	-15.71017	11.27051
7.33704	-15.71017	11.27051
7.34124	-15.71017	11.27051
7.34543	-15.68820	11.27051
7.34961	-15.68820	11.27051
7.35391	-15.68820	11.27051
7.35816	-15.68820	11.27051
7.36238	-15.68820	11.27051
7.36659	-15.68820	11.27051
7.37078	-15.68820	11.27051
7.37497	-15.68820	11.27051
7.37915	-15.68820	11.27051
7.38345	-15.66623	11.27051
7.38773	-15.66623	11.27051
7.39207	-15.66623	11.27051
7.39627	-15.66623	11.27051
7.40046	-15.66623	11.27051
7.40465	-15.66623	11.27051
7.40884	-15.66623	11.27051
7.41308	-15.64425	11.27051
7.41733	-15.64425	11.27051
7.42155	-15.64425	11.27051
7.42575	-15.64425	11.27051
7.42995	-15.64425	11.27051
7.43414	-15.64425	11.27051
7.43833	-15.64425	11.27051
7.44252	-15.64425	11.27051
7.44680	-15.64425	11.27051
7.45103	-15.64425	11.27051
7.45524	-15.64425	11.27051
7.45944	-15.64425	11.27051
7.46364	-15.64425	11.27051
7.46783	-15.64425	11.27051
7.47202	-15.62228	11.27051
7.47628	-15.64425	11.27051
7.48051	-15.64425	11.27051
7.48474	-15.62228	11.27051
7.48894	-15.62228	11.27051
7.49324	-15.64425	11.27051
7.49743	-15.62228	11.27051
7.50162	-15.62228	11.27051
7.50592	-15.62228	11.27051
7.51017	-15.62228	11.27051
7.51438	-15.64425	11.27051
7.51858	-15.64425	11.27051
7.52277	-15.64425	11.27051
7.52696	-15.64425	11.27051
7.53115	-15.64425	11.27051
7.53538	-15.64425	11.27051
7.53963	-15.64425	11.27051
7.54385	-15.64425	11.27051
7.54807	-15.64425	11.27051
7.55227	-15.64425	11.27051
7.55646	-15.64425	11.27051
7.56064	-15.64425	11.27051
7.56483	-15.64425	11.27051
7.56911	-15.64425	11.27051
7.57333	-15.64425	11.27051
7.57754	-15.64425	11.27051
7.58174	-15.64425	11.27051
7.58593	-15.64425	11.27051
7.59012	-15.64425	11.27051
7.59442	-15.64425	11.27051
7.59870	-15.64425	11.27051
7.60294	-15.66623	11.27051
7.60715	-15.66623	11.27051
7.61135	-15.66623	11.27051
7.61555	-15.66623	11.27051
7.61974	-15.66623	11.27051
7.62392	-15.66623	11.27051
7.62825	-15.66623	11.27051
7.63248	-15.66623	11.27051
7.63669	-15.66623	11.27051
7.64089	-15.66623	11.27051
7.64508	-15.68820	11.27051
7.64927	-15.68820	11.27051
7.65346	-15.66623	11.27051
7.65769	-15.68820	11.27051
7.66194	-15.68820	11.27051
7.66615	-15.68820	11.27051
7.67035	-15.68820	11.27051
7.67454	-15.68820	11.27051
7.67873	-15.68820	11.27051
7.68292	-15.68820	11.27051
7.68711	-15.68820	11.27051
7.69139	-15.71017	11.27051
7.69573	-15.71017	11.27051
7.69993	-15.71017	11.27051
7.70414	-15.71017	11.27051
7.70834	-15.71017	11.27051
7.71253	-15.71017	11.27051
7.71671	-15.71017	11.27051
7.72100	-15.73214	11.27051
7.72524	-15.73214	11.27051
7.72945	-15.73214	11.27051
7.73365	-15.73214	11.27051
7.73784	-15.73214	11.27051
7.74203	-15.73214	11.27051
7.74622	-15.73214	11.27051
7.75054	-15.75412	11.27051
7.75477	-15.75412	11.27051
7.75898	-15.75412	11.27051
7.76318	-15.75412	11.27051
7.76737	-15.75412	11.27051
7.77156	-15.75412	11.27051
7.77574	-15.75412	11.27051
7.77997	-15.75412	11.27051
7.78423	-15.77609	11.27051
7.78845	-15.77609	11.27051
7.79265	-15.77609	11.27051
7.79695	-15.77609	11.27051
7.80113	-15.77609	11.27051
7.80532	-15.77609	11.27051
7.80951	-15.79806	11.27051
7.81378	-15.79806	11.27051
7.81801	-15.79806	11.27051
7.82221	-15.79806	11.27051
7.82641	-15.79806	11.27051
7.83060	-15.82004	11.27051
7.83479	-15.82004	11.27051
7.83899	-15.82004	11.27051
7.84327	-15.82004	11.27051
7.84751	-15.82004	11.27051
7.85173	-15.82004	11.27051
7.85593	-15.84201	11.27051
7.86013	-15.84201	11.27051
7.86432	-15.84201	11.27051
7.86851	-15.84201	11.27051
7.87281	-15.84201	11.27051
7.87705	-15.84201	11.27051
7.88127	-15.86398	11.27051
7.88548	-15.86398	11.27051
7.88968	-15.86398	11.27051
7.89387	-15.86398	11.27051
7.89818	-15.88595	11.27051
7.90242	-15.88595	11.27051
7.90668	-15.88595	11.27051
7.91090	-15.88595	11.27051
7.91511	-15.90793	11.27051
7.91931	-15.88595	11.27051
7.92351	-15.88595	11.27051
7.92770	-15.88595	11.27051
7.93189	-15.90793	11.27051
7.93619	-15.90793	11.27051
7.94043	-15.90793	11.27051
7.94464	-15.90793	11.27051
7.94885	-15.90793	11.27051
7.95304	-15.90793	11.27051
7.95723	-15.92990	11.27051
7.96141	-15.92990	11.27051
7.96570	-15.92990	11.27051
7.96994	-15.92990	11.27051
7.97415	-15.95187	11.27051
7.97835	-15.92990	11.27051
7.98255	-15.92990	11.27051
7.98674	-15.95187	11.27051
7.99092	-15.95187	11.27051
7.99523	-15.95187	11.27051
7.99957	-15.97384	11.27051
8.00378	-15.97384	11.27051
8.00797	-15.97384	11.27051
8.01217	-15.97384	11.27051
8.01636	-15.97384	11.27051
8.02054	-15.97384	11.27051
8.02477	-15.97384	11.27051
8.02902	-15.99582	11.27051
8.03324	-15.99582	11.27051
8.03744	-15.99582	11.27051
8.04163	-15.99582	11.27051
8.04582	-15.99582	11.27051
8.05001	-15.99582	11.27051
8.05419	-15.99582	11.27051
8.05847	-16.01779	11.27051
8.06270	-16.01779	11.27051
8.06691	-16.01779	11.27051
8.07111	-16.01779	11.27051
8.07530	-16.01779	11.27051
8.07949	-16.01779	11.27051
8.08368	-16.03976	11.27051
8.08797	-16.03976	11.27051
8.09221	-16.03976	11.27051
8.09643	-16.03976	11.27051
8.10073	-16.03976	11.27051
8.10492	-16.03976	11.27051
8.10911	-16.03976	11.27051
8.11330	-16.03976	11.27051
8.11760	-16.03976	11.27051
8.12184	-16.06173	11.27051
8.12604	-16.06173	11.27051
8.13024	-16.06173	11.27051
8.13443	-16.06173	11.27051
8.13862	-16.06173	11.27051
8.14280	-16.06173	11.27051
8.14703	-16.06173	11.27051
8.15128	-16.06173	11.27051
8.15550	-16.06173	11.27051
8.15970	-16.08371	11.27051
8.16389	-16.08371	11.27051
8.16809	-16.08371	11.27051
8.17228	-16.08371	11.27051
8.17647	-16.08371	11.27051
8.18074	-16.08371	11.27051
8.18497	-16.08371	11.27051
8.18919	-16.08371	11.27051
8.19338	-16.08371	11.27051
8.19758	-16.08371	11.27051
8.20187	-16.08371	11.27051
8.20605	-16.08371	11.27051
8.21034	-16.10568	11.27051
8.21458	-16.10568	11.27051
8.21880	-16.10568	11.27051
8.22301	-16.10568	11.27051
8.22720	-16.10568	11.27051
8.23139	-16.10568	11.27051
8.23558	-16.10568	11.27051
8.23987	-16.10568	11.27051
8.24412	-16.10568	11.27051
8.24834	-16.10568	11.27051
8.25254	-16.10568	11.27051
8.25673	-16.10568	11.27051
8.26091	-16.10568	11.27051
8.26511	-16.12765	11.27051
8.26937	-16.10568	11.27051
8.27363	-16.10568	11.27051
8.27785	-16.12765	11.27051
8.28219	-16.10568	11.27051
8.28642	-16.12765	11.27051
8.29062	-16.12765	11.27051
8.29481	-16.12765	11.27051
8.29900	-16.12765	11.27051
8.30340	-16.12765	11.27051
8.30765	-16.12765	11.27051
8.31187	-16.12765	11.27051
8.31608	-16.12765	11.27051
8.32027	-16.12765	11.27051
8.32446	-16.12765	11.27051
8.32865	-16.12765	11.27051
8.33294	-16.12765	11.27051
8.33718	-16.12765	11.27051
8.34139	-16.12765	11.27051
8.34560	-16.12765	11.27051
8.34979	-16.12765	11.27051
8.35398	-16.12765	11.27051
8.35817	-16.12765	11.27051
8.36247	-16.12765	11.27051
8.36672	-16.10568	11.27051
8.37093	-16.12765	11.27051
8.37513	-16.12765	11.27051
8.37932	-16.12765	11.27051
8.38352	-16.12765	11.27051
8.38771	-16.12765	11.27051
8.39195	-16.12765	11.27051
8.39621	-16.10568	11.27051
8.40043	-16.10568	11.27051
8.40474	-16.10568	11.27051
8.40893	-16.10568	11.27051
8.41312	-16.10568	11.27051
8.41731	-16.12765	11.27051
8.42149	-16.10568	11.27051
8.42577	-16.10568	11.27051
8.43000	-16.10568	11.27051
8.43421	-16.10568	11.27051
8.43841	-16.10568	11.27051
8.44260	-16.10568	11.27051
8.44679	-16.10568	11.27051
8.45098	-16.10568	11.27051
8.45526	-16.10568	11.27051
8.45950	-16.10568	11.27051
8.46372	-16.10568	11.27051
8.46792	-16.08371	11.27051
8.47212	-16.08371	11.27051
8.47631	-16.08371	11.27051
8.48050	-16.08371	11.27051
8.48480	-16.08371	11.27051
8.48905	-16.08371	11.27051
8.49326	-16.08371	11.27051
8.49747	-16.08371	11.27051
8.50167	-16.08371	11.27051
8.50596	-16.08371	11.27051
8.51015	-16.08371	11.27051
8.51438	-16.08371	11.27051
8.51863	-16.06173	11.27051
8.52285	-16.06173	11.27051
8.52705	-16.06173	11.27051
8.53125	-16.06173	11.27051
8.53544	-16.06173	11.27051
8.53963	-16.06173	11.27051
8.54381	-16.06173	11.27051
8.54811	-16.06173	11.27051
8.55235	-16.06173	11.27051
8.55656	-16.03976	11.27051
8.56076	-16.03976	11.27051
8.56495	-16.03976	11.27051
8.56914	-16.03976	11.27051
8.57333	-16.03976	11.27051
8.57761	-16.03976	11.27051
8.58185	-16.03976	11.27051
8.58607	-16.03976	11.27051
8.59027	-16.03976	11.27051
8.59446	-16.03976	11.27051
8.59865	-16.01779	11.27051
8.60284	-16.01779	11.27051
8.60727	-16.01779	11.27051
8.61148	-16.01779	11.27051
8.61567	-16.01779	11.27051
8.61986	-16.01779	11.27051
8.62405	-16.01779	11.27051
8.62824	-16.01779	11.27051
8.63242	-15.99582	11.27051
8.63665	-15.99582	11.27051
8.64090	-15.99582	11.27051
8.64512	-15.99582	11.27051
8.64933	-15.99582	11.27051
8.65352	-15.99582	11.27051
8.65775	-15.97384	11.27051
8.66194	-15.99582	11.27051
8.66613	-15.99582	11.27051
8.67041	-15.97384	11.27051
8.67464	-15.97384	11.27051
8.67885	-15.97384	11.27051
8.68305	-15.97384	11.27051
8.68724	-15.97384	11.27051
8.69143	-15.95187	11.27051
8.69562	-15.95187	11.27051
8.69990	-15.95187	11.27051
8.70415	-15.95187	11.27051
8.70847	-15.95187	11.27051
8.71267	-15.95187	11.27051
8.71686	-15.92990	11.27051
8.72105	-15.92990	11.27051
8.72524	-15.92990	11.27051
8.72956	-15.92990	11.27051
8.73379	-15.92990	11.27051
8.73800	-15.92990	11.27051
8.74220	-15.92990	11.27051
8.74640	-15.92990	11.27051
8.75058	-15.92990	11.27051
8.75477	-15.92990	11.27051
8.75899	-15.92990	11.27051
8.76324	-15.90793	11.27051
8.76746	-15.90793	11.27051
8.77165	-15.90793	11.27051
8.77585	-15.90793	11.27051
8.78004	-15.90793	11.27051
8.78424	-15.90793	11.27051
8.78842	-15.90793	11.27051
8.79270	-15.90793	11.27051
8.79693	-15.88595	11.27051
8.80114	-15.88595	11.27051
8.80533	-15.88595	11.27051
8.80963	-15.88595	11.27051
8.81381	-15.88595	11.27051
8.81800	-15.88595	11.27051
8.82228	-15.88595	11.27051
8.82652	-15.88595	11.27051
8.83073	-15.88595	11.27051
8.83493	-15.88595	11.27051
8.83911	-15.88595	11.27051
8.84330	-15.86398	11.27051
8.84748	-15.86398	11.27051
8.85179	-15.86398	11.27051
8.85601	-15.86398	11.27051
8.86017	-15.86398	11.27051
8.86436	-15.86398	11.27051
8.86855	-15.86398	11.27051
8.87273	-15.86398	11.27051
8.87692	-15.86398	11.27051
8.88115	-15.86398	11.27051
8.88541	-15.84201	11.27051
8.88961	-15.86398	11.27051
8.89380	-15.86398	11.27051
8.89798	-15.84201	11.27051
8.90217	-15.84201	11.27051
8.90636	-15.84201	11.27051
8.91065	-15.84201	11.27051
8.91493	-15.84201	11.27051
8.91914	-15.86398	11.27051
8.92333	-15.84201	11.27051
8.92751	-15.84201	11.27051
8.93170	-15.84201	11.27051
8.93589	-15.84201	11.27051
8.94008	-15.84201	11.27051
8.94437	-15.86398	11.27051
8.94858	-15.84201	11.27051
8.95277	-15.84201	11.27051
8.95695	-15.84201	11.27051
8.96114	-15.84201	11.27051
8.96532	-15.84201	11.27051
8.96951	-15.84201	11.27051
8.97381	-15.84201	11.27051
8.97805	-15.84201	11.27051
8.98224	-15.84201	11.27051
8.98643	-15.84201	11.27051
8.99062	-15.84201	11.27051
8.99480	-15.84201	11.27051
8.99898	-15.84201	11.27051
9.00322	-15.84201	11.27051
9.00747	-15.84201	11.27051
9.01177	-15.84201	11.27051
9.01596	-15.84201	11.27051
9.02015	-15.84201	11.27051
9.02434	-15.84201	11.27051
9.02853	-15.84201	11.27051
9.03271	-15.84201	11.27051
9.03698	-15.84201	11.27051
9.04119	-15.84201	11.27051
9.04538	-15.84201	11.27051
9.04957	-15.84201	11.27051
9.05376	-15.84201	11.27051
9.05794	-15.84201	11.27051
9.06213	-15.84201	11.27051
9.06641	-15.84201	11.27051
9.07063	-15.84201	11.27051
9.07482	-15.84201	11.27051
9.07900	-15.84201	11.27051
9.08319	-15.84201	11.27051
9.08737	-15.86398	11.27051
9.09156	-15.86398	11.27051
9.09586	-15.84201	11.27051
9.10009	-15.84201	11.27051
9.10428	-15.84201	11.27051
9.10846	-15.84201	11.27051
9.11275	-15.84201	11.27051
9.11694	-15.84201	11.27051
9.12113	-15.84201	11.27051
9.12536	-15.84201	11.27051
9.12961	-15.84201	11.27051
9.13381	-15.84201	11.27051
9.13800	-15.84201	11.27051
9.14219	-15.84201	11.27051
9.14637	-15.84201	11.27051
9.15056	-15.86398	11.27051
9.15474	-15.84201	11.27051
9.15902	-15.84201	11.27051
9.16324	-15.84201	11.27051
9.16742	-15.84201	11.27051
9.17161	-15.84201	11.27051
9.17579	-15.84201	11.27051
9.17998	-15.84201	11.27051
9.18416	-15.84201	11.27051
9.18845	-15.84201	11.27051
9.19266	-15.84201	11.27051
9.19685	-15.84201	11.27051
9.20104	-15.84201	11.27051
9.20522	-15.84201	11.27051
9.20941	-15.84201	11.27051
9.21369	-15.84201	11.27051
9.21801	-15.84201	11.27051
9.22224	-15.84201	11.27051
9.22643	-15.84201	11.27051
9.23062	-15.84201	11.27051
9.23481	-15.84201	11.27051
9.23900	-15.84201	11.27051
9.24319	-15.84201	11.27051
9.24744	-15.84201	11.27051
9.25169	-15.84201	11.27051
9.25589	-15.84201	11.27051
9.26009	-15.84201	11.27051
9.26428	-15.84201	11.27051
9.26847	-15.86398	11.27051
9.27265	-15.86398	11.27051
9.27684	-15.84201	11.27051
9.28112	-15.84201	11.27051
9.28533	-15.84201	11.27051
9.28952	-15.84201	11.27051
9.29371	-15.84201	11.27051
9.29789	-15.84201	11.27051
9.30208	-15.84201	11.27051
9.30626	-15.84201	11.27051
9.31055	-15.84201	11.27051
9.31487	-15.84201	11.27051
9.31906	-15.84201	11.27051
9.32325	-15.84201	11.27051
9.32743	-15.84201	11.27051
9.33162	-15.84201	11.27051
9.33580	-15.84201	11.27051
9.34013	-15.84201	11.27051
9.34436	-15.84201	11.27051
9.34856	-15.84201	11.27051
9.35275	-15.84201	11.27051
9.35694	-15.84201	11.27051
9.36113	-15.84201	11.27051
9.36531	-15.84201	11.27051
9.36955	-15.84201	11.27051
9.37380	-15.84201	11.27051
9.37802	-15.84201	11.27051
9.38222	-15.84201	11.27051
9.38642	-15.84201	11.27051
9.39061	-15.84201	11.27051
9.39480	-15.86398	11.27051
9.39898	-15.84201	11.27051
9.40326	-15.84201	11.27051
9.40749	-15.86398	11.27051
9.41170	-15.86398	11.27051
9.41600	-15.86398	11.27051
9.42017	-15.86398	11.27051
9.42435	-15.86398	11.27051
9.42854	-15.86398	11.27051
9.43283	-15.86398	11.27051
9.43706	-15.86398	11.27051
9.44128	-15.86398	11.27051
9.44548	-15.86398	11.27051
9.44968	-15.86398	11.27051
9.45387	-15.86398	11.27051
9.45805	-15.86398	11.27051
9.46236	-15.86398	11.27051
9.46660	-15.86398	11.27051
9.47081	-15.86398	11.27051
9.47501	-15.86398	11.27051
9.47920	-15.86398	11.27051
9.48340	-15.86398	11.27051
9.48759	-15.86398	11.27051
9.49184	-15.88595	11.27051
9.49611	-15.88595	11.27051
9.50033	-15.88595	11.27051
9.50453	-15.88595	11.27051
9.50873	-15.88595	11.27051
9.51291	-15.88595	11.27051
9.51720	-15.88595	11.27051
9.52139	-15.88595	11.27051
9.52566	-15.88595	11.27051
9.52990	-15.88595	11.27051
9.53411	-15.88595	11.27051
9.53830	-15.88595	11.27051
9.54249	-15.88595	11.27051
9.54668	-15.88595	11.27051
9.55087	-15.88595	11.27051
9.55515	-15.88595	11.27051
9.55939	-15.88595	11.27051
9.56361	-15.88595	11.27051
9.56780	-15.88595	11.27051
9.57199	-15.88595	11.27051
9.57616	-15.90793	11.27051
9.58035	-15.88595	11.27051
9.58464	-15.88595	11.27051
9.58887	-15.88595	11.27051
9.59306	-15.88595	11.27051
9.59724	-15.88595	11.27051
9.60143	-15.90793	11.27051
9.60562	-15.90793	11.27051
9.60980	-15.90793	11.27051
9.61403	-15.90793	11.27051
9.61838	-15.88595	11.27051
9.62258	-15.90793	11.27051
9.62676	-15.90793	11.27051
9.63095	-15.90793	11.27051
9.63514	-15.90793	11.27051
9.63932	-15.90793	11.27051
9.64351	-15.90793	11.27051
9.64779	-15.90793	11.27051
9.65200	-15.90793	11.27051
9.65617	-15.92990	11.27051
9.66036	-15.90793	11.27051
9.66455	-15.90793	11.27051
9.66873	-15.90793	11.27051
9.67292	-15.90793	11.27051
9.67720	-15.90793	11.27051
9.68144	-15.90793	11.27051
9.68566	-15.90793	11.27051
9.68985	-15.90793	11.27051
9.69403	-15.92990	11.27051
9.69822	-15.92990	11.27051
9.70240	-15.92990	11.27051
9.70671	-15.92990	11.27051
9.71095	-15.92990	11.27051
9.71516	-15.92990	11.27051
9.71946	-15.92990	11.27051
9.72365	-15.92990	11.27051
9.72784	-15.92990	11.27051
9.73203	-15.92990	11.27051
9.73627	-15.92990	11.27051
9.74052	-15.92990	11.27051
9.74473	-15.92990	11.27051
9.74893	-15.92990	11.27051
9.75313	-15.92990	11.27051
9.75732	-15.92990	11.27051
9.76150	-15.92990	11.27051
9.76569	-15.92990	11.27051
9.76997	-15.92990	11.27051
9.77420	-15.92990	11.27051
9.77842	-15.92990	11.27051
9.78261	-15.92990	11.27051
9.78681	-15.92990	11.27051
9.79100	-15.92990	11.27051
9.79518	-15.92990	11.27051
9.79947	-15.92990	11.27051
9.80371	-15.92990	11.27051
9.80792	-15.92990	11.27051
9.81214	-15.92990	11.27051
9.81633	-15.92990	11.27051
9.82063	-15.92990	11.27051
9.82482	-15.92990	11.27051
9.82913	-15.92990	11.27051
9.83336	-15.92990	11.27051
9.83757	-15.92990	11.27051
9.84177	-15.92990	11.27051
9.84597	-15.92990	11.27051
9.85016	-15.90793	11.27051
9.85435	-15.90793	11.27051
9.85860	-15.92990	11.27051
9.86287	-15.92990	11.27051
9.86710	-15.90793	11.27051
9.87131	-15.92990	11.27051
9.87550	-15.92990	11.27051
9.87969	-15.90793	11.27051
9.88388	-15.90793	11.27051
9.88808	-15.92990	11.27051
9.89238	-15.90793	11.27051
9.89662	-15.90793	11.27051
9.90084	-15.90793	11.27051
9.90503	-15.90793	11.27051
9.90923	-15.90793	11.27051
9.91341	-15.90793	11.27051
9.91760	-15.90793	11.27051
9.92201	-15.90793	11.27051
9.92625	-15.90793	11.27051
9.93046	-15.90793	11.27051
9.93466	-15.90793	11.27051
9.93885	-15.90793	11.27051
9.94304	-15.90793	11.27051
9.94722	-15.90793	11.27051
9.95153	-15.88595	11.27051
9.95581	-15.88595	11.27051
9.96007	-15.88595	11.27051
9.96430	-15.88595	11.27051
9.96852	-15.88595	11.27051
9.97272	-15.88595	11.27051
9.97694	-15.88595	11.27051
9.98221	-15.86398	11.27051
9.98652	-15.88595	11.27051
9.99074	-15.88595	11.27051
9.99494	-15.88595	11.27051
9.99915	-15.86398	11.27051
10.00336	-15.86398	11.27051
10.00757	-15.86398	11.27051
10.01231	-15.86398	11.27051
10.01664	-15.86398	11.27051
10.02086	-15.86398	11.27051
10.02517	-15.86398	11.27051
10.02938	-15.86398	11.27051
10.03358	-15.84201	11.27051
10.03777	-15.84201	11.27051
10.04196	-15.84201	11.27051
10.04631	-15.84201	11.27051
10.05052	-15.84201	11.27051
10.05471	-15.84201	11.27051
10.05891	-15.84201	11.27051
10.06312	-15.84201	11.27051
10.06731	-15.84201	11.27051
10.07150	-15.84201	11.27051
10.07584	-15.84201	11.27051
10.08009	-15.82004	11.27051
10.08429	-15.82004	11.27051
10.08848	-15.82004	11.27051
10.09267	-15.82004	11.27051
10.09686	-15.82004	11.27051
10.10104	-15.79806	11.27051
10.10590	-15.82004	11.27051
10.11016	-15.82004	11.27051
10.11438	-15.79806	11.27051
10.11857	-15.79806	11.27051
10.12277	-15.79806	11.27051
10.12707	-15.79806	11.27051
10.13127	-15.79806	11.27051
10.13551	-15.77609	11.27051
10.13984	-15.77609	11.27051
10.14406	-15.77609	11.27051
10.14827	-15.77609	11.27051
10.15247	-15.77609	11.27051
10.15666	-15.77609	11.27051
10.16086	-15.77609	11.27051
10.16505	-15.77609	11.27051
10.16941	-15.75412	11.27051
10.17362	-15.75412	11.27051
10.17783	-15.75412	11.27051
10.18202	-15.75412	11.27051
10.18622	-15.75412	11.27051
10.19041	-15.75412	11.27051
10.19460	-15.73214	11.27051
10.19897	-15.73214	11.27051
10.20318	-15.73214	11.27051
10.20738	-15.73214	11.27051
10.21159	-15.73214	11.27051
10.21579	-15.73214	11.27051
10.21998	-15.73214	11.27051
10.22418	-15.73214	11.27051
10.22915	-15.71017	11.27051
10.23341	-15.71017	11.27051
10.23761	-15.71017	11.27051
10.24180	-15.71017	11.27051
10.24600	-15.71017	11.27051
10.25019	-15.68820	11.27051
10.25438	-15.71017	11.27051
10.25864	-15.68820	11.27051
10.26298	-15.68820	11.27051
10.26722	-15.68820	11.27051
10.27142	-15.68820	11.27051
10.27562	-15.68820	11.27051
10.27982	-15.66623	11.27051
10.28401	-15.66623	11.27051
10.28817	-15.66623	11.27051
10.29253	-15.66623	11.27051
10.29675	-15.66623	11.27051
10.30095	-15.66623	11.27051
10.30514	-15.66623	11.27051
10.30932	-15.64425	11.27051
10.31351	-15.64425	11.27051
10.31770	-15.64425	11.27051
10.32206	-15.64425	11.27051
10.32626	-15.64425	11.27051
10.33058	-15.64425	11.27051
10.33477	-15.62228	11.27051
10.33897	-15.62228	11.27051
10.34315	-15.62228	11.27051
10.34734	-15.62228	11.27051
10.35223	-15.62228	11.27051
10.35650	-15.62228	11.27051
10.36073	-15.62228	11.27051
10.36495	-15.60031	11.27051
10.36915	-15.60031	11.27051
10.37334	-15.60031	11.27051
10.37753	-15.60031	11.27051
10.38180	-15.60031	11.27051
10.38607	-15.60031	11.27051
10.39031	-15.60031	11.27051
10.39451	-15.60031	11.27051
10.39871	-15.60031	11.27051
10.40290	-15.57834	11.27051
10.40709	-15.57834	11.27051
10.41128	-15.57834	11.27051
10.41558	-15.57834	11.27051
10.41978	-15.57834	11.27051
10.42397	-15.57834	11.27051
10.42817	-15.57834	11.27051
10.43246	-15.57834	11.27051
10.43665	-15.57834	11.27051
10.44084	-15.57834	11.27051
10.44514	-15.57834	11.27051
10.44935	-15.55636	11.27051
10.45354	-15.55636	11.27051
10.45772	-15.55636	11.27051
10.46191	-15.55636	11.27051
10.46610	-15.55636	11.27051
10.47029	-15.55636	11.27051
10.47458	-15.55636	11.27051
10.47881	-15.55636	11.27051
10.48301	-15.53439	11.27051
10.48724	-15.53439	11.27051
10.49143	-15.53439	11.27051
10.49563	-15.53439	11.27051
10.49983	-15.53439	11.27051
10.50410	-15.53439	11.27051
10.50838	-15.53439	11.27051
10.51259	-15.53439	11.27051
10.51678	-15.53439	11.27051
10.52097	-15.53439	11.27051
10.52516	-15.53439	11.27051
10.52934	-15.53439	11.27051
10.53364	-15.53439	11.27051
10.53793	-15.53439	11.27051
10.54214	-15.53439	11.27051
10.54633	-15.53439	11.27051
10.55052	-15.53439	11.27051
10.55470	-15.51242	11.27051
10.55889	-15.53439	11.27051
10.56308	-15.53439	11.27051
10.56738	-15.51242	11.27051
10.57159	-15.51242	11.27051
10.57578	-15.53439	11.27051
10.57997	-15.51242	11.27051
10.58417	-15.51242	11.27051
10.58837	-15.53439	11.27051
10.59256	-15.53439	11.27051
10.59688	-15.51242	11.27051
10.60113	-15.53439	11.27051
10.60533	-15.51242	11.27051
10.60952	-15.53439	11.27051
10.61371	-15.51242	11.27051
10.61790	-15.51242	11.27051
10.62210	-15.51242	11.27051
10.62634	-15.53439	11.27051
10.63061	-15.53439	11.27051
10.63493	-15.53439	11.27051
10.63912	-15.53439	11.27051
10.64330	-15.53439	11.27051
10.64749	-15.53439	11.27051
10.65168	-15.53439	11.27051
10.65586	-15.51242	11.27051
10.66017	-15.53439	11.27051
10.66439	-15.51242	11.27051
10.66858	-15.53439	11.27051
10.67276	-15.53439	11.27051
10.67695	-15.53439	11.27051
10.68114	-15.53439	11.27051
10.68532	-15.53439	11.27051
10.68966	-15.53439	11.27051
10.69389	-15.53439	11.27051
10.69808	-15.53439	11.27051
10.70227	-15.53439	11.27051
10.70645	-15.55636	11.27051
10.71064	-15.53439	11.27051
10.71483	-15.53439	11.27051
10.71912	-15.53439	11.27051
10.72336	-15.55636	11.27051
10.72756	-15.55636	11.27051
10.73175	-15.55636	11.27051
10.73607	-15.55636	11.27051
10.74025	-15.55636	11.27051
10.74444	-15.55636	11.27051
10.74868	-15.55636	11.27051
10.75294	-15.55636	11.27051
10.75714	-15.55636	11.27051
10.76134	-15.55636	11.27051
10.76553	-15.57834	11.27051
10.76972	-15.55636	11.27051
10.77391	-15.55636	11.27051
10.77809	-15.57834	11.27051
10.78239	-15.57834	11.27051
10.78659	-15.57834	11.27051
10.79080	-15.60031	11.27051
10.79499	-15.57834	11.27051
10.79918	-15.57834	11.27051
10.80336	-15.60031	11.27051
10.80755	-15.57834	11.27051
10.81185	-15.60031	11.27051
10.81607	-15.60031	11.27051
10.82026	-15.60031	11.27051
10.82445	-15.60031	11.27051
10.82864	-15.60031	11.27051
10.83283	-15.60031	11.27051
10.83712	-15.60031	11.27051
10.84141	-15.60031	11.27051
10.84565	-15.62228	11.27051
10.84984	-15.62228	11.27051
10.85404	-15.62228	11.27051
10.85822	-15.62228	11.27051
10.86241	-15.62228	11.27051
10.86659	-15.62228	11.27051
10.87083	-15.62228	11.27051
10.87510	-15.62228	11.27051
10.87931	-15.62228	11.27051
10.88350	-15.62228	11.27051
10.88770	-15.64425	11.27051
10.89190	-15.64425	11.27051
10.89610	-15.64425	11.27051
10.90029	-15.64425	11.27051
10.90458	-15.64425	11.27051
10.90879	-15.64425	11.27051
10.91298	-15.64425	11.27051
10.91717	-15.64425	11.27051
10.92136	-15.64425	11.27051
10.92554	-15.66623	11.27051
10.92973	-15.64425	11.27051
10.93403	-15.64425	11.27051
10.93834	-15.66623	11.27051
10.94253	-15.66623	11.27051
10.94672	-15.66623	11.27051
10.95091	-15.66623	11.27051
10.95510	-15.66623	11.27051
10.95928	-15.66623	11.27051
10.96361	-15.66623	11.27051
10.96784	-15.66623	11.27051
10.97204	-15.66623	11.27051
10.97623	-15.66623	11.27051
10.98042	-15.66623	11.27051
10.98463	-15.68820	11.27051
10.98883	-15.68820	11.27051
10.99310	-15.66623	11.27051
10.99737	-15.68820	11.27051
11.00157	-15.68820	11.27051
11.00577	-15.68820	11.27051
11.00996	-15.68820	11.27051
11.01415	-15.68820	11.27051
11.01835	-15.68820	11.27051
11.02254	-15.68820	11.27051
11.02687	-15.68820	11.27051
11.03111	-15.68820	11.27051
11.03531	-15.68820	11.27051
11.03960	-15.68820	11.27051
11.04379	-15.68820	11.27051
11.04798	-15.68820	11.27051
11.05217	-15.68820	11.27051
11.05655	-15.68820	11.27051
11.06079	-15.68820	11.27051
11.06498	-15.68820	11.27051
11.06917	-15.71017	11.27051
11.07336	-15.71017	11.27051
11.07754	-15.68820	11.27051
11.08173	-15.71017	11.27051
11.08650	-15.68820	11.27051
11.09077	-15.71017	11.27051
11.09499	-15.71017	11.27051
11.09918	-15.68820	11.27051
11.10338	-15.71017	11.27051
11.10757	-15.71017	11.27051
11.11175	-15.71017	11.27051
11.11600	-15.71017	11.27051
11.12030	-15.71017	11.27051
11.12451	-15.71017	11.27051
11.12872	-15.71017	11.27051
11.13291	-15.68820	11.27051
11.13710	-15.68820	11.27051
11.14139	-15.71017	11.27051
11.14557	-15.71017	11.27051
11.14993	-15.71017	11.27051
11.15413	-15.71017	11.27051
11.15832	-15.71017	11.27051
11.16254	-15.71017	11.27051
11.16674	-15.71017	11.27051
11.17093	-15.71017	11.27051
11.17512	-15.71017	11.27051
11.17947	-15.71017	11.27051
11.18367	-15.71017	11.27051
11.18788	-15.71017	11.27051
11.19209	-15.71017	11.27051
11.19630	-15.71017	11.27051
11.20050	-15.71017	11.27051
11.20469	-15.71017	11.27051
11.20946	-15.68820	11.27051
11.21372	-15.71017	11.27051
11.21792	-15.68820	11.27051
11.22213	-15.71017	11.27051
11.22632	-15.71017	11.27051
11.23051	-15.71017	11.27051
11.23471	-15.71017	11.27051
11.23897	-15.68820	11.27051
11.24344	-15.68820	11.27051
11.24766	-15.68820	11.27051
11.25186	-15.71017	11.27051
11.25606	-15.71017	11.27051
11.26026	-15.71017	11.27051
11.26445	-15.71017	11.27051
11.26865	-15.71017	11.27051
11.27294	-15.71017	11.27051
11.27716	-15.71017	11.27051
11.28137	-15.71017	11.27051
11.28557	-15.71017	11.27051
11.28977	-15.71017	11.27051
11.29396	-15.71017	11.27051
11.29815	-15.71017	11.27051
11.30247	-15.71017	11.27051
11.30668	-15.71017	11.27051
11.31088	-15.71017	11.27051
11.31507	-15.71017	11.27051
11.31926	-15.68820	11.27051
11.32344	-15.71017	11.27051
11.32763	-15.71017	11.27051
11.33187	-15.71017	11.27051
11.33612	-15.71017	11.27051
11.34031	-15.71017	11.27051
11.34461	-15.71017	11.27051
11.34879	-15.71017	11.27051
11.35298	-15.71017	11.27051
11.35717	-15.71017	11.27051
11.36141	-15.71017	11.27051
11.36568	-15.71017	11.27051
11.36987	-15.71017	11.27051
11.37406	-15.71017	11.27051
11.37825	-15.71017	11.27051
11.38244	-15.71017	11.27051
11.38663	-15.71017	11.27051
11.39084	-15.71017	11.27051
11.39514	-15.71017	11.27051
11.39935	-15.71017	11.27051
11.40354	-15.71017	11.27051
11.40772	-15.71017	11.27051
11.41191	-15.71017	11.27051
11.41611	-15.71017	11.27051
11.42029	-15.71017	11.27051
11.42459	-15.71017	11.27051
11.42880	-15.71017	11.27051
11.43299	-15.71017	11.27051
11.43718	-15.71017	11.27051
11.44136	-15.71017	11.27051
11.44565	-15.71017	11.27051
11.44984	-15.71017	11.27051
11.45413	-15.71017	11.27051
11.45836	-15.71017	11.27051
11.46256	-15.71017	11.27051
11.46674	-15.71017	11.27051
11.47093	-15.71017	11.27051
11.47511	-15.71017	11.27051
11.47930	-15.68820	11.27051
11.48353	-15.71017	11.27051
11.48782	-15.68820	11.27051
11.49202	-15.68820	11.27051
11.49617	-15.71017	11.27051
11.50037	-15.71017	11.27051
11.50456	-15.71017	11.27051
11.50874	-15.71017	11.27051
11.51293	-15.68820	11.27051
11.51722	-15.68820	11.27051
11.52142	-15.68820	11.27051
11.52561	-15.71017	11.27051
11.52979	-15.68820	11.27051
11.53398	-15.71017	11.27051
11.53816	-15.68820	11.27051
11.54235	-15.68820	11.27051
11.54675	-15.68820	11.27051
11.55095	-15.68820	11.27051
11.55514	-15.68820	11.27051
11.55933	-15.68820	11.27051
11.56351	-15.68820	11.27051
11.56770	-15.68820	11.27051
11.57188	-15.68820	11.27051
11.57622	-15.68820	11.27051
11.58046	-15.68820	11.27051
11.58466	-15.68820	11.27051
11.58884	-15.68820	11.27051
11.59304	-15.68820	11.27051
11.59722	-15.68820	11.27051
11.60141	-15.68820	11.27051
11.60566	-15.68820	11.27051
11.60994	-15.68820	11.27051
11.61414	-15.66623	11.27051
11.61832	-15.68820	11.27051
11.62251	-15.68820	11.27051
11.62670	-15.68820	11.27051
11.63088	-15.68820	11.27051
11.63507	-15.68820	11.27051
11.63935	-15.68820	11.27051
11.64357	-15.66623	11.27051
11.64786	-15.68820	11.27051
11.65206	-15.68820	11.27051
11.65624	-15.68820	11.27051
11.66043	-15.68820	11.27051
11.66461	-15.68820	11.27051
11.66891	-15.66623	11.27051
11.67312	-15.68820	11.27051
11.67730	-15.66623	11.27051
11.68149	-15.66623	11.27051
11.68568	-15.66623	11.27051
11.68986	-15.66623	11.27051
11.69405	-15.66623	11.27051
11.69834	-15.66623	11.27051
11.70258	-15.66623	11.27051
11.70677	-15.66623	11.27051
11.71096	-15.66623	11.27051
11.71515	-15.66623	11.27051
11.71933	-15.66623	11.27051
11.72352	-15.66623	11.27051
11.72776	-15.66623	11.27051
11.73204	-15.66623	11.27051
11.73624	-15.68820	11.27051
11.74043	-15.66623	11.27051
11.74461	-15.66623	11.27051
11.74891	-15.66623	11.27051
11.75309	-15.66623	11.27051
11.75728	-15.66623	11.27051
11.76159	-15.66623	11.27051
11.76580	-15.66623	11.27051
11.76999	-15.66623	11.27051
11.77418	-15.66623	11.27051
11.77836	-15.66623	11.27051
11.78255	-15.66623	11.27051
11.78673	-15.66623	11.27051
11.79103	-15.66623	11.27051
11.79525	-15.66623	11.27051
11.79944	-15.66623	11.27051
11.80363	-15.68820	11.27051
11.80781	-15.68820	11.27051
11.81200	-15.66623	11.27051
11.81616	-15.68820	11.27051
11.82047	-15.66623	11.27051
11.82472	-15.66623	11.27051
11.82891	-15.66623	11.27051
11.83310	-15.66623	11.27051
11.83729	-15.66623	11.27051
11.84147	-15.66623	11.27051
11.84566	-15.66623	11.27051
11.85000	-15.66623	11.27051
11.85427	-15.66623	11.27051
11.85846	-15.66623	11.27051
11.86265	-15.66623	11.27051
11.86684	-15.66623	11.27051
11.87102	-15.66623	11.27051
11.87521	-15.68820	11.27051
11.87940	-15.66623	11.27051
11.88369	-15.68820	11.27051
11.88789	-15.68820	11.27051
11.89209	-15.68820	11.27051
11.89628	-15.68820	11.27051
11.90046	-15.68820	11.27051
11.90465	-15.66623	11.27051
11.90884	-15.68820	11.27051
11.91313	-15.68820	11.27051
11.91734	-15.66623	11.27051
11.92152	-15.66623	11.27051
11.92571	-15.66623	11.27051
11.92990	-15.68820	11.27051
11.93408	-15.66623	11.27051
11.93827	-15.66623	11.27051
11.94257	-15.66623	11.27051
11.94681	-15.68820	11.27051
11.95111	-15.66623	11.27051
11.95530	-15.66623	11.27051
11.95948	-15.66623	11.27051
11.96367	-15.66623	11.27051
11.96786	-15.66623	11.27051
11.97210	-15.66623	11.27051
11.97638	-15.66623	11.27051
11.98058	-15.66623	11.27051
11.98477	-15.66623	11.27051
11.98895	-15.66623	11.27051
11.99314	-15.66623	11.27051
11.99734	-15.66623	11.27051
12.00152	-15.66623	11.27051
12.00581	-15.66623	11.27051
12.01002	-15.66623	11.27051
12.01421	-15.66623	11.27051
12.01840	-15.66623	11.27051
12.02259	-15.66623	11.27051
12.02677	-15.66623	11.27051
12.03096	-15.66623	11.27051
12.03526	-15.66623	11.27051
12.03947	-15.66623	11.27051
12.04366	-15.66623	11.27051
12.04785	-15.66623	11.27051
12.05215	-15.66623	11.27051
12.05634	-15.66623	11.27051
12.06052	-15.66623	11.27051
12.06481	-15.66623	11.27051
12.06905	-15.66623	11.27051
12.07324	-15.66623	11.27051
12.07743	-15.66623	11.27051
12.08162	-15.66623	11.27051
12.08581	-15.66623	11.27051
12.08999	-15.66623	11.27051
12.09422	-15.66623	11.27051
12.09850	-15.66623	11.27051
12.10270	-15.66623	11.27051
12.10688	-15.66623	11.27051
12.11107	-15.66623	11.27051
12.11526	-15.64425	11.27051
12.11945	-15.64425	11.27051
12.12363	-15.64425	11.27051
12.12792	-15.64425	11.27051
12.13214	-15.66623	11.27051
12.13633	-15.64425	11.27051
12.14051	-15.66623	11.27051
12.14470	-15.64425	11.27051
12.14888	-15.64425	11.27051
12.15317	-15.64425	11.27051
12.15747	-15.64425	11.27051
12.16169	-15.64425	11.27051
12.16588	-15.64425	11.27051
12.17007	-15.64425	11.27051
12.17425	-15.64425	11.27051
12.17844	-15.64425	11.27051
12.18263	-15.64425	11.27051
12.18694	-15.64425	11.27051
12.19118	-15.64425	11.27051
12.19537	-15.64425	11.27051
12.19957	-15.62228	11.27051
12.20376	-15.62228	11.27051
12.20794	-15.64425	11.27051
12.21214	-15.62228	11.27051
12.21638	-15.64425	11.27051
12.22066	-15.62228	11.27051
12.22486	-15.64425	11.27051
12.22904	-15.64425	11.27051
12.23323	-15.64425	11.27051
12.23742	-15.64425	11.27051
12.24160	-15.62228	11.27051
12.24579	-15.62228	11.27051
12.25007	-15.62228	11.27051
12.25438	-15.62228	11.27051
12.25857	-15.62228	11.27051
12.26275	-15.62228	11.27051
12.26694	-15.62228	11.27051
12.27113	-15.62228	11.27051
12.27531	-15.62228	11.27051
12.27961	-15.62228	11.27051
12.28382	-15.62228	11.27051
12.28801	-15.62228	11.27051
12.29217	-15.62228	11.27051
12.29636	-15.60031	11.27051
12.30055	-15.62228	11.27051
12.30473	-15.62228	11.27051
12.30905	-15.62228	11.27051
12.31329	-15.62228	11.27051
12.31748	-15.62228	11.27051
12.32167	-15.62228	11.27051
12.32586	-15.60031	11.27051
12.33004	-15.60031	11.27051
12.33423	-15.62228	11.27051
12.33846	-15.60031	11.27051
12.34273	-15.60031	11.27051
12.34693	-15.60031	11.27051
12.35111	-15.60031	11.27051
12.35540	-15.60031	11.27051
12.35959	-15.62228	11.27051
12.36377	-15.60031	11.27051
12.36796	-15.60031	11.27051
12.37226	-15.60031	11.27051
12.37647	-15.60031	11.27051
12.38066	-15.60031	11.27051
12.38485	-15.60031	11.27051
12.38903	-15.60031	11.27051
12.39322	-15.60031	11.27051
12.39741	-15.60031	11.27051
12.40170	-15.60031	11.27051
12.40591	-15.60031	11.27051
12.41010	-15.60031	11.27051
12.41429	-15.60031	11.27051
12.41847	-15.60031	11.27051
12.42266	-15.60031	11.27051
12.42684	-15.60031	11.27051
12.43113	-15.60031	11.27051
12.43537	-15.60031	11.27051
12.43956	-15.60031	11.27051
12.44375	-15.60031	11.27051
12.44793	-15.60031	11.27051
12.45213	-15.60031	11.27051
12.45642	-15.60031	11.27051
12.46066	-15.60031	11.27051
12.46493	-15.60031	11.27051
12.46912	-15.60031	11.27051
12.47331	-15.57834	11.27051
12.47749	-15.60031	11.27051
12.48168	-15.57834	11.27051
12.48587	-15.57834	11.27051
12.49006	-15.57834	11.27051
12.49436	-15.57834	11.27051
12.49857	-15.57834	11.27051
12.50276	-15.57834	11.27051
12.50695	-15.60031	11.27051
12.51114	-15.60031	11.27051
12.51532	-15.57834	11.27051
12.51951	-15.57834	11.27051
12.52381	-15.57834	11.27051
12.52804	-15.57834	11.27051
12.53223	-15.57834	11.27051
12.53642	-15.57834	11.27051
12.54061	-15.57834	11.27051
12.54479	-15.57834	11.27051
12.54898	-15.57834	11.27051
12.55327	-15.57834	11.27051
12.55760	-15.57834	11.27051
12.56180	-15.57834	11.27051
12.56599	-15.57834	11.27051
12.57017	-15.57834	11.27051
12.57436	-15.57834	11.27051
12.57854	-15.57834	11.27051
12.58278	-15.57834	11.27051
12.58705	-15.57834	11.27051
12.59124	-15.57834	11.27051
12.59543	-15.57834	11.27051
12.59962	-15.57834	11.27051
12.60381	-15.57834	11.27051
12.60800	-15.57834	11.27051
12.61216	-15.55636	11.27051
12.61645	-15.57834	11.27051
12.62065	-15.57834	11.27051
12.62484	-15.57834	11.27051
12.62902	-15.57834	11.27051
12.63321	-15.57834	11.27051
12.63739	-15.57834	11.27051
12.64158	-15.57834	11.27051
12.64587	-15.57834	11.27051
12.65008	-15.55636	11.27051
12.65427	-15.57834	11.27051
12.65860	-15.55636	11.27051
12.66279	-15.57834	11.27051
12.66698	-15.57834	11.27051
12.67116	-15.57834	11.27051
12.67546	-15.55636	11.27051
12.67970	-15.57834	11.27051
12.68389	-15.57834	11.27051
12.68809	-15.57834	11.27051
12.69228	-15.57834	11.27051
12.69647	-15.57834	11.27051
12.70065	-15.57834	11.27051
12.70489	-15.57834	11.27051
12.70915	-15.57834	11.27051
12.71335	-15.55636	11.27051
12.71754	-15.57834	11.27051
12.72172	-15.57834	11.27051
12.72591	-15.57834	11.27051
12.73009	-15.57834	11.27051
12.73428	-15.57834	11.27051
12.73856	-15.57834	11.27051
12.74277	-15.57834	11.27051
12.74696	-15.57834	11.27051
12.75114	-15.57834	11.27051
12.75533	-15.57834	11.27051
12.75962	-15.57834	11.27051
12.76381	-15.57834	11.27051
12.76812	-15.57834	11.27051
12.77232	-15.57834	11.27051
12.77651	-15.57834	11.27051
12.78070	-15.57834	11.27051
12.78489	-15.57834	11.27051
12.78907	-15.57834	11.27051
12.79326	-15.57834	11.27051
12.79755	-15.57834	11.27051
12.80179	-15.57834	11.27051
12.80599	-15.57834	11.27051
12.81018	-15.57834	11.27051
12.81437	-15.57834	11.27051
12.81855	-15.57834	11.27051
12.82274	-15.57834	11.27051
12.82697	-15.57834	11.27051
12.83123	-15.57834	11.27051
12.83543	-15.57834	11.27051
12.83962	-15.57834	11.27051
12.84380	-15.57834	11.27051
12.84799	-15.57834	11.27051
12.85217	-15.57834	11.27051
12.85635	-15.57834	11.27051
12.86075	-15.60031	11.27051
12.86495	-15.60031	11.27051
12.86914	-15.60031	11.27051
12.87332	-15.60031	11.27051
12.87751	-15.60031	11.27051
12.88170	-15.60031	11.27051
12.88588	-15.60031	11.27051
12.89018	-15.60031	11.27051
12.89439	-15.60031	11.27051
12.89858	-15.60031	11.27051
12.90277	-15.62228	11.27051
12.90697	-15.62228	11.27051
12.91117	-15.60031	11.27051
12.91536	-15.62228	11.27051
12.91967	-15.60031	11.27051
12.92391	-15.62228	11.27051
12.92812	-15.60031	11.27051
12.93231	-15.60031	11.27051
12.93649	-15.62228	11.27051
12.94068	-15.62228	11.27051
12.94486	-15.62228	11.27051
12.94911	-15.62228	11.27051
12.95337	-15.62228	11.27051
12.95757	-15.64425	11.27051
12.96186	-15.64425	11.27051
12.96605	-15.64425	11.27051
12.97024	-15.64425	11.27051
12.97442	-15.64425	11.27051
12.97862	-15.64425	11.27051
12.98292	-15.64425	11.27051
12.98713	-15.64425	11.27051
12.99132	-15.66623	11.27051
12.99551	-15.66623	11.27051
12.99970	-15.66623	11.27051
13.00389	-15.66623	11.27051
13.00809	-15.66623	11.27051
13.01240	-15.66623	11.27051
13.01661	-15.66623	11.27051
13.02080	-15.66623	11.27051
13.02499	-15.68820	11.27051
13.02918	-15.68820	11.27051
13.03336	-15.68820	11.27051
13.03755	-15.68820	11.27051
13.04185	-15.68820	11.27051
13.04609	-15.68820	11.27051
13.05028	-15.68820	11.27051
13.05446	-15.71017	11.27051
13.05865	-15.71017	11.27051
13.06294	-15.71017	11.27051
13.06712	-15.71017	11.27051
13.07136	-15.71017	11.27051
13.07563	-15.73214	11.27051
13.07983	-15.73214	11.27051
13.08401	-15.73214	11.27051
13.08817	-15.73214	11.27051
13.09235	-15.73214	11.27051
13.09654	-15.73214	11.27051
13.10073	-15.73214	11.27051
13.10502	-15.75412	11.27051
13.10923	-15.75412	11.27051
13.11341	-15.75412	11.27051
13.11760	-15.75412	11.27051
13.12179	-15.77609	11.27051
13.12597	-15.77609	11.27051
13.13016	-15.77609	11.27051
13.13445	-15.77609	11.27051
13.13866	-15.77609	11.27051
13.14285	-15.77609	11.27051
13.14704	-15.79806	11.27051
13.15123	-15.79806	11.27051
13.15541	-15.79806	11.27051
13.15960	-15.79806	11.27051
13.16407	-15.79806	11.27051
13.16828	-15.82004	11.27051
13.17247	-15.82004	11.27051
13.17666	-15.82004	11.27051
13.18084	-15.82004	11.27051
13.18503	-15.82004	11.27051
13.18921	-15.84201	11.27051
13.19345	-15.84201	11.27051
13.19771	-15.84201	11.27051
13.20191	-15.84201	11.27051
13.20609	-15.86398	11.27051
13.21028	-15.86398	11.27051
13.21447	-15.86398	11.27051
13.21865	-15.86398	11.27051
13.22284	-15.86398	11.27051
13.22713	-15.86398	11.27051
13.23133	-15.88595	11.27051
13.23551	-15.88595	11.27051
13.23970	-15.88595	11.27051
13.24388	-15.88595	11.27051
13.24808	-15.88595	11.27051
13.25227	-15.90793	11.27051
13.25656	-15.90793	11.27051
13.26077	-15.90793	11.27051
13.26506	-15.92990	11.27051
13.26925	-15.92990	11.27051
13.27344	-15.92990	11.27051
13.27762	-15.92990	11.27051
13.28181	-15.95187	11.27051
13.28611	-15.95187	11.27051
13.29035	-15.95187	11.27051
13.29454	-15.95187	11.27051
13.29873	-15.95187	11.27051
13.30291	-15.95187	11.27051
13.30710	-15.97384	11.27051
13.31129	-15.97384	11.27051
13.31553	-15.97384	11.27051
13.31980	-15.99582	11.27051
13.32399	-15.99582	11.27051
13.32817	-15.99582	11.27051
13.33236	-15.99582	11.27051
13.33654	-15.99582	11.27051
13.34073	-15.99582	11.27051
13.34492	-16.01779	11.27051
13.34921	-16.01779	11.27051
13.35341	-16.01779	11.27051
13.35759	-16.03976	11.27051
13.36178	-16.03976	11.27051
13.36607	-16.03976	11.27051
13.37025	-16.03976	11.27051
13.37444	-16.03976	11.27051
13.37874	-16.06173	11.27051
13.38294	-16.06173	11.27051
13.38713	-16.06173	11.27051
13.39132	-16.06173	11.27051
13.39550	-16.08371	11.27051
13.39969	-16.08371	11.27051
13.40387	-16.08371	11.27051
13.40818	-16.10568	11.27051
13.41241	-16.08371	11.27051
13.41660	-16.10568	11.27051
13.42079	-16.10568	11.27051
13.42497	-16.10568	11.27051
13.42916	-16.12765	11.27051
13.43334	-16.12765	11.27051
13.43757	-16.12765	11.27051
13.44183	-16.12765	11.27051
13.44603	-16.12765	11.27051
13.45022	-16.14963	11.27051
13.45440	-16.14963	11.27051
13.45859	-16.14963	11.27051
13.46278	-16.14963	11.27051
13.46706	-16.17160	11.27051
13.47134	-16.14963	11.27051
13.47555	-16.17160	11.27051
13.47974	-16.17160	11.27051
13.48393	-16.17160	11.27051
13.48813	-16.17160	11.27051
13.49233	-16.19357	11.27051
13.49652	-16.19357	11.27051
13.50081	-16.19357	11.27051
13.50503	-16.19357	11.27051
13.50922	-16.19357	11.27051
13.51342	-16.19357	11.27051
13.51761	-16.19357	11.27051
13.52179	-16.21554	11.27051
13.52598	-16.21554	11.27051
13.53027	-16.21554	11.27051
13.53450	-16.21554	11.27051
13.53870	-16.21554	11.27051
13.54289	-16.21554	11.27051
13.54708	-16.23752	11.27051
13.55126	-16.21554	11.27051
13.55545	-16.23752	11.27051
13.55968	-16.23752	11.27051
13.56394	-16.23752	11.27051
13.56825	-16.23752	11.27051
13.57244	-16.25949	11.27051
13.57663	-16.25949	11.27051
13.58082	-16.25949	11.27051
13.58500	-16.25949	11.27051
13.58918	-16.25949	11.27051
13.59346	-16.25949	11.27051
13.59767	-16.25949	11.27051
13.60186	-16.25949	11.27051
13.60605	-16.28146	11.27051
13.61023	-16.28146	11.27051
13.61443	-16.28146	11.27051
13.61861	-16.28146	11.27051
13.62289	-16.28146	11.27051
13.62712	-16.28146	11.27051
13.63130	-16.28146	11.27051
13.63549	-16.28146	11.27051
13.63967	-16.28146	11.27051
13.64386	-16.28146	11.27051
13.64805	-16.28146	11.27051
13.65249	-16.28146	11.27051
13.65672	-16.28146	11.27051
13.66092	-16.30343	11.27051
13.66511	-16.30343	11.27051
13.66940	-16.28146	11.27051
13.67358	-16.28146	11.27051
13.67777	-16.30343	11.27051
13.68202	-16.28146	11.27051
13.68627	-16.28146	11.27051
13.69047	-16.30343	11.27051
13.69466	-16.30343	11.27051
13.69885	-16.30343	11.27051
13.70303	-16.30343	11.27051
13.70722	-16.28146	11.27051
13.71141	-16.30343	11.27051
13.71570	-16.30343	11.27051
13.71991	-16.28146	11.27051
13.72411	-16.30343	11.27051
13.72830	-16.30343	11.27051
13.73249	-16.30343	11.27051
13.73667	-16.30343	11.27051
13.74086	-16.30343	11.27051
13.74514	-16.30343	11.27051
13.74936	-16.30343	11.27051
13.75355	-16.28146	11.27051
13.75773	-16.30343	11.27051
13.76192	-16.30343	11.27051
13.76611	-16.30343	11.27051
13.77040	-16.30343	11.27051
13.77470	-16.30343	11.27051
13.77893	-16.28146	11.27051
13.78312	-16.28146	11.27051
13.78731	-16.30343	11.27051
13.79150	-16.30343	11.27051
13.79568	-16.28146	11.27051
13.79987	-16.28146	11.27051
13.80411	-16.28146	11.27051
13.80836	-16.28146	11.27051
13.81257	-16.28146	11.27051
13.81676	-16.28146	11.27051
13.82094	-16.28146	11.27051
13.82513	-16.28146	11.27051
13.82932	-16.25949	11.27051
13.83350	-16.28146	11.27051
13.83778	-16.28146	11.27051
13.84199	-16.28146	11.27051
13.84619	-16.28146	11.27051
13.85038	-16.25949	11.27051
13.85457	-16.25949	11.27051
13.85876	-16.25949	11.27051
13.86294	-16.25949	11.27051
13.86723	-16.25949	11.27051
13.87156	-16.25949	11.27051
13.87575	-16.25949	11.27051
13.87994	-16.25949	11.27051
13.88414	-16.25949	11.27051
13.88833	-16.23752	11.27051
13.89251	-16.23752	11.27051
13.89683	-16.25949	11.27051
13.90107	-16.25949	11.27051
13.90526	-16.23752	11.27051
13.90944	-16.23752	11.27051
13.91363	-16.23752	11.27051
13.91783	-16.23752	11.27051
13.92202	-16.21554	11.27051
13.92625	-16.21554	11.27051
13.93052	-16.23752	11.27051
13.93471	-16.23752	11.27051
13.93890	-16.23752	11.27051
13.94308	-16.21554	11.27051
13.94727	-16.21554	11.27051
13.95146	-16.21554	11.27051
13.95564	-16.21554	11.27051
13.95993	-16.21554	11.27051
13.96414	-16.21554	11.27051
13.96833	-16.21554	11.27051
13.97262	-16.21554	11.27051
13.97681	-16.21554	11.27051
13.98099	-16.19357	11.27051
13.98518	-16.19357	11.27051
13.98947	-16.19357	11.27051
13.99369	-16.19357	11.27051
13.99788	-16.19357	11.27051
14.00206	-16.17160	11.27051
14.00625	-16.17160	11.27051
14.01044	-16.17160	11.27051
14.01462	-16.17160	11.27051
14.01891	-16.17160	11.27051
14.02315	-16.17160	11.27051
14.02735	-16.17160	11.27051
14.03154	-16.17160	11.27051
14.03573	-16.14963	11.27051
14.03991	-16.14963	11.27051
14.04411	-16.14963	11.27051
14.04835	-16.14963	11.27051
14.05262	-16.14963	11.27051
14.05682	-16.14963	11.27051
14.06101	-16.14963	11.27051
14.06519	-16.14963	11.27051
14.06938	-16.12765	11.27051
14.07367	-16.12765	11.27051
14.07785	-16.12765	11.27051
14.08214	-16.12765	11.27051
14.08634	-16.12765	11.27051
14.09052	-16.12765	11.27051
14.09471	-16.12765	11.27051
14.09890	-16.12765	11.27051
14.10309	-16.12765	11.27051
14.10727	-16.10568	11.27051
14.11156	-16.10568	11.27051
14.11578	-16.10568	11.27051
14.11998	-16.10568	11.27051
14.12417	-16.10568	11.27051
14.12835	-16.10568	11.27051
14.13254	-16.10568	11.27051
14.13673	-16.10568	11.27051
14.14101	-16.10568	11.27051
14.14524	-16.08371	11.27051
14.14943	-16.10568	11.27051
14.15362	-16.10568	11.27051
14.15780	-16.08371	11.27051
14.16199	-16.08371	11.27051
14.16617	-16.08371	11.27051
14.17040	-16.08371	11.27051
14.17475	-16.08371	11.27051
14.17895	-16.08371	11.27051
14.18314	-16.08371	11.27051
14.18733	-16.08371	11.27051
14.19152	-16.08371	11.27051
14.19570	-16.08371	11.27051
14.19989	-16.08371	11.27051
14.20418	-16.08371	11.27051
14.20839	-16.08371	11.27051
14.21258	-16.06173	11.27051
14.21677	-16.06173	11.27051
14.22096	-16.06173	11.27051
14.22515	-16.06173	11.27051
14.22934	-16.06173	11.27051
14.23363	-16.06173	11.27051
14.23785	-16.06173	11.27051
14.24204	-16.06173	11.27051
14.24623	-16.06173	11.27051
14.25042	-16.06173	11.27051
14.25461	-16.06173	11.27051
14.25879	-16.06173	11.27051
14.26308	-16.06173	11.27051
14.26731	-16.06173	11.27051
14.27150	-16.06173	11.27051
14.27580	-16.06173	11.27051
14.28002	-16.06173	11.27051
14.28419	-16.06173	11.27051
14.28838	-16.06173	11.27051
14.29268	-16.06173	11.27051
14.29702	-16.06173	11.27051
14.30125	-16.06173	11.27051
14.30547	-16.06173	11.27051
14.30969	-16.06173	11.27051
14.31391	-16.06173	11.27051
14.31813	-16.06173	11.27051
14.32255	-16.06173	11.27051
14.32693	-16.06173	11.27051
14.33116	-16.06173	11.27051
14.33538	-16.06173	11.27051
14.33959	-16.06173	11.27051
14.34379	-16.06173	11.27051
14.34801	-16.06173	11.27051
14.35218	-16.06173	11.27051
14.35651	-16.06173	11.27051
14.36072	-16.06173	11.27051
14.36492	-16.06173	11.27051
14.36912	-16.06173	11.27051
14.37331	-16.06173	11.27051
14.37762	-16.06173	11.27051
14.38181	-16.03976	11.27051
14.38614	-16.03976	11.27051
14.39039	-16.06173	11.27051
14.39459	-16.06173	11.27051
14.39879	-16.06173	11.27051
14.40298	-16.06173	11.27051
14.40718	-16.06173	11.27051
14.41137	-16.06173	11.27051
14.41563	-16.06173	11.27051
14.41990	-16.06173	11.27051
14.42411	-16.06173	11.27051
14.42831	-16.06173	11.27051
14.43250	-16.06173	11.27051
14.43669	-16.06173	11.27051
14.44088	-16.03976	11.27051
14.44506	-16.06173	11.27051
14.44935	-16.06173	11.27051
14.45356	-16.06173	11.27051
14.45775	-16.06173	11.27051
14.46193	-16.06173	11.27051
14.46612	-16.03976	11.27051
14.47031	-16.06173	11.27051
14.47449	-16.06173	11.27051
14.47890	-16.06173	11.27051
14.48310	-16.06173	11.27051
14.48730	-16.06173	11.27051
14.49149	-16.06173	11.27051
14.49568	-16.03976	11.27051
14.49987	-16.06173	11.27051
14.50406	-16.06173	11.27051
14.50839	-16.03976	11.27051
14.51264	-16.03976	11.27051
14.51684	-16.06173	11.27051
14.52104	-16.06173	11.27051
14.52524	-16.06173	11.27051
14.52943	-16.06173	11.27051
14.53363	-16.06173	11.27051
14.53786	-16.06173	11.27051
14.54214	-16.06173	11.27051
14.54634	-16.03976	11.27051
14.55054	-16.03976	11.27051
14.55473	-16.06173	11.27051
14.55892	-16.06173	11.27051
14.56311	-16.06173	11.27051
14.56730	-16.06173	11.27051
14.57161	-16.03976	11.27051
14.57582	-16.06173	11.27051
14.58015	-16.06173	11.27051
14.58434	-16.06173	11.27051
14.58853	-16.06173	11.27051
14.59273	-16.03976	11.27051
14.59692	-16.06173	11.27051
14.60123	-16.06173	11.27051
14.60544	-16.03976	11.27051
14.60963	-16.03976	11.27051
14.61382	-16.06173	11.27051
14.61800	-16.03976	11.27051
14.62261	-16.03976	11.27051
14.62680	-16.03976	11.27051
14.63112	-16.06173	11.27051
14.63536	-16.03976	11.27051
14.63956	-16.03976	11.27051
14.64376	-16.03976	11.27051
14.64796	-16.03976	11.27051
14.65215	-16.03976	11.27051
14.65635	-16.03976	11.27051
14.66059	-16.03976	11.27051
14.66487	-16.03976	11.27051
14.66907	-16.03976	11.27051
14.67326	-16.03976	11.27051
14.67746	-16.03976	11.27051
14.68177	-16.03976	11.27051
14.68596	-16.03976	11.27051
14.69015	-16.03976	11.27051
14.69445	-16.03976	11.27051
14.69866	-16.03976	11.27051
14.70285	-16.03976	11.27051
14.70704	-16.03976	11.27051
14.71124	-16.01779	11.27051
14.71543	-16.03976	11.27051
14.71963	-16.01779	11.27051
14.72394	-16.01779	11.27051
14.72816	-16.03976	11.27051
14.73233	-16.03976	11.27051
14.73650	-16.01779	11.27051
14.74067	-16.01779	11.27051
14.74484	-16.01779	11.27051
14.74901	-16.01779	11.27051
14.75346	-16.01779	11.27051
14.75766	-16.01779	11.27051
14.76183	-16.01779	11.27051
14.76600	-16.01779	11.27051
14.77017	-16.01779	11.27051
14.77434	-16.01779	11.27051
14.77851	-16.01779	11.27051
14.78283	-16.01779	11.27051
14.78708	-16.01779	11.27051
14.79126	-16.01779	11.27051
14.79543	-16.01779	11.27051
14.79960	-16.01779	11.27051
14.80377	-16.01779	11.27051
14.80794	-16.01779	11.27051
14.81212	-16.01779	11.27051
14.81639	-16.01779	11.27051
14.82058	-16.01779	11.27051
14.82475	-16.01779	11.27051
14.82894	-16.01779	11.27051
14.83314	-15.99582	11.27051
14.83733	-16.01779	11.27051
14.84152	-16.01779	11.27051
14.84582	-16.01779	11.27051
14.85004	-16.01779	11.27051
14.85423	-16.01779	11.27051
14.85842	-16.01779	11.27051
14.86261	-15.99582	11.27051
14.86681	-15.99582	11.27051
14.87100	-15.99582	11.27051
14.87541	-15.99582	11.27051
14.87964	-15.99582	11.27051
14.88395	-16.01779	11.27051
14.88814	-15.99582	11.27051
14.89234	-16.01779	11.27051
14.89653	-15.99582	11.27051
14.90072	-15.99582	11.27051
14.90497	-15.99582	11.27051
14.90925	-15.99582	11.27051
14.91345	-15.99582	11.27051
14.91764	-15.99582	11.27051
14.92183	-15.99582	11.27051
14.92602	-15.99582	11.27051
14.93021	-15.99582	11.27051
14.93440	-15.99582	11.27051
14.93870	-15.99582	11.27051
14.94291	-15.99582	11.27051
14.94710	-15.99582	11.27051
14.95129	-15.99582	11.27051
14.95549	-15.99582	11.27051
14.95968	-15.99582	11.27051
14.96387	-15.97384	11.27051
14.96820	-15.99582	11.27051
14.97241	-15.99582	11.27051
14.97660	-15.99582	11.27051
14.98080	-15.99582	11.27051
14.98510	-15.99582	11.27051
14.98929	-15.97384	11.27051
14.99349	-15.97384	11.27051
14.99784	-15.97384	11.27051
15.00253	-15.97384	7.37969
15.00659	-15.97384	7.37969
15.01065	-15.97384	7.37969
15.01470	-15.97384	7.37969
15.01876	-15.97384	7.37969
15.02282	-15.97384	7.37969
15.02688	-15.97384	7.37969
15.03096	-15.97384	7.37969
15.03502	-15.97384	7.37969
15.03908	-15.97384	7.37969
15.04314	-15.95187	7.37969
15.04719	-15.95187	7.37969
15.05125	-15.95187	7.37969
15.05531	-15.95187	7.37969
15.05937	-15.95187	7.37969
15.06342	-15.95187	7.37969
15.06748	-15.95187	7.37969
15.07154	-15.95187	7.37969
15.07560	-15.95187	7.37969
15.07965	-15.95187	7.37969
15.08371	-15.95187	7.37969
15.08777	-15.92990	7.37969
15.09182	-15.92990	7.37969
15.09588	-15.92990	7.37969
15.09994	-15.92990	7.37969
15.10423	-15.92990	7.37969
15.10829	-15.90793	7.37969
15.11235	-15.90793	7.37969
15.11640	-15.90793	7.37969
15.12046	-15.90793	7.37969
15.12452	-15.88595	7.37969
15.12860	-15.88595	7.37969
15.13266	-15.88595	7.37969
15.13672	-15.86398	7.37969
15.14078	-15.86398	7.37969
15.14484	-15.86398	7.37969
15.14889	-15.86398	7.37969
15.15295	-15.84201	7.37969
15.15701	-15.84201	7.37969
15.16107	-15.84201	7.37969
15.16512	-15.84201	7.37969
15.16918	-15.82004	7.37969
15.17324	-15.82004	7.37969
15.17729	-15.79806	7.37969
15.18135	-15.79806	7.37969
15.18541	-15.79806	7.37969
15.18947	-15.77609	7.37969
15.19352	-15.75412	7.37969
15.19758	-15.75412	7.37969
15.20164	-15.75412	7.37969
15.20594	-15.73214	7.37969
15.21000	-15.71017	7.37969
15.21405	-15.71017	7.37969
15.21811	-15.68820	7.37969
15.22217	-15.68820	7.37969
15.22623	-15.68820	7.37969
15.23029	-15.64425	7.37969
15.23436	-15.64425	7.37969
15.23841	-15.62228	7.37969
15.24247	-15.60031	7.37969
15.24653	-15.60031	7.37969
15.25059	-15.57834	7.37969
15.25464	-15.57834	7.37969
15.25870	-15.55636	7.37969
15.26276	-15.53439	7.37969
15.26681	-15.51242	7.37969
15.27088	-15.51242	7.37969
15.27494	-15.49045	7.37969
15.27900	-15.46847	7.37969
15.28305	-15.44650	7.37969
15.28711	-15.42453	7.37969
15.29117	-15.42453	7.37969
15.29523	-15.40256	7.37969
15.29928	-15.38058	7.37969
15.30334	-15.35861	7.37969
15.30764	-15.31466	7.37969
15.31170	-15.31466	7.37969
15.31576	-15.29269	7.37969
15.31982	-15.27072	7.37969
15.32387	-15.24875	7.37969
15.32793	-15.22677	7.37969
15.33199	-15.22677	7.37969
15.33605	-15.18283	7.37969
15.34011	-15.16086	7.37969
15.34417	-15.13888	7.37969
15.34823	-15.11691	7.37969
15.35229	-15.07297	7.37969
15.35634	-15.07297	7.37969
15.36040	-15.05099	7.37969
15.36446	-15.02902	7.37969
15.36852	-14.98507	7.37969
15.37257	-14.98507	7.37969
15.37663	-14.96310	7.37969
15.38069	-14.94113	7.37969
15.38474	-14.89718	7.37969
15.38880	-14.87521	7.37969
15.39286	-14.85324	7.37969
15.39692	-14.85324	7.37969
15.40097	-14.80929	7.37969
15.40503	-14.76535	7.37969
15.40933	-14.74338	7.37969
15.41339	-14.69943	7.37969
15.41745	-14.69943	7.37969
15.42150	-14.65548	7.37969
15.42556	-14.63351	7.37969
15.42962	-14.58957	7.37969
15.43368	-14.56759	7.37969
15.43774	-14.52365	7.37969
15.44180	-14.52365	7.37969
15.44586	-14.50168	7.37969
15.44992	-14.45773	7.37969
15.45397	-14.41379	7.37969
15.45803	-14.36984	7.37969
15.46209	-14.36984	7.37969
15.46615	-14.34787	7.37969
15.47021	-14.30392	7.37969
15.47427	-14.25998	7.37969
15.47833	-14.23800	7.37969
15.48238	-14.19406	7.37969
15.48644	-14.19406	7.37969
15.49050	-14.15011	7.37969
15.49455	-14.10617	7.37969
15.49861	-14.06222	7.37969
15.50267	-14.06222	7.37969
15.50673	-14.04025	7.37969
15.51103	-13.99631	7.37969
15.51509	-13.95236	7.37969
15.51915	-13.90841	7.37969
15.52320	-13.86447	7.37969
15.52726	-13.86447	7.37969
15.53132	-13.84250	7.37969
15.53538	-13.77658	7.37969
15.53946	-13.73263	7.37969
15.54353	-13.71066	7.37969
15.54758	-13.71066	7.37969
15.55164	-13.64474	7.37969
15.55570	-13.60080	7.37969
15.55976	-13.55685	7.37969
15.56381	-13.51291	7.37969
15.56787	-13.51291	7.37969
15.57193	-13.46896	7.37969
15.57599	-13.40304	7.37969
15.58003	-13.38107	7.37969
15.58409	-13.31515	7.37969
15.58815	-13.31515	7.37969
15.59220	-13.27121	7.37969
15.59626	-13.22726	7.37969
15.60032	-13.18332	7.37969
15.60438	-13.13937	7.37969
15.60843	-13.09543	7.37969
15.61272	-13.09543	7.37969
15.61678	-13.05148	7.37969
15.62084	-13.00754	7.37969
15.62489	-12.94162	7.37969
15.62895	-12.89767	7.37969
15.63301	-12.89767	7.37969
15.63707	-12.85373	7.37969
15.64114	-12.80978	7.37969
15.64521	-12.76584	7.37969
15.64927	-12.69992	7.37969
15.65333	-12.65597	7.37969
15.65738	-12.65597	7.37969
15.66144	-12.61203	7.37969
15.66550	-12.54611	7.37969
15.66955	-12.50216	7.37969
15.67361	-12.50216	7.37969
15.67767	-12.43625	7.37969
15.68173	-12.39230	7.37969
15.68578	-12.34836	7.37969
15.68984	-12.30441	7.37969
15.69390	-12.26047	7.37969
15.69795	-12.26047	7.37969
15.70201	-12.19455	7.37969
15.70607	-12.15060	7.37969
15.71012	-12.08468	7.37969
15.71441	-12.04074	7.37969
15.71847	-12.04074	7.37969
15.72253	-11.97482	7.37969
15.72659	-11.93088	7.37969
15.73064	-11.88693	7.37969
15.73470	-11.82101	7.37969
15.73876	-11.77707	7.37969
15.74284	-11.77707	7.37969
15.74690	-11.73312	7.37969
15.75095	-11.66720	7.37969
15.75501	-11.60129	7.37969
15.75908	-11.55734	7.37969
15.76313	-11.55734	7.37969
15.76719	-11.49142	7.37969
15.77125	-11.44748	7.37969
15.77531	-11.40353	7.37969
15.77936	-11.33761	7.37969
15.78342	-11.27170	7.37969
15.78748	-11.27170	7.37969
15.79154	-11.22775	7.37969
15.79559	-11.16183	7.37969
15.79965	-11.11789	7.37969
15.80371	-11.11789	7.37969
15.80776	-11.05197	7.37969
15.81182	-11.00802	7.37969
15.81612	-10.94211	7.37969
15.82018	-10.87619	7.37969
15.82424	-10.87619	7.37969
15.82829	-10.83224	7.37969
15.83235	-10.76632	7.37969
15.83641	-10.72238	7.37969
15.84046	-10.65646	7.37969
15.84454	-10.65646	7.37969
15.84860	-10.59054	7.37969
15.85266	-10.54660	7.37969
15.85672	-10.48068	7.37969
15.86078	-10.43673	7.37969
15.86484	-10.39279	7.37969
15.86889	-10.39279	7.37969
15.87295	-10.32687	7.37969
15.87701	-10.28293	7.37969
15.88107	-10.21701	7.37969
15.88512	-10.15109	7.37969
15.88918	-10.15109	7.37969
15.89324	-10.10714	7.37969
15.89729	-10.04123	7.37969
15.90135	-9.99728	7.37969
15.90541	-9.93136	7.37969
15.90947	-9.86545	7.37969
15.91352	-9.86545	7.37969
15.91781	-9.82150	7.37969
15.92187	-9.77756	7.37969
15.92593	-9.71164	7.37969
15.92998	-9.64572	7.37969
15.93404	-9.64572	7.37969
15.93810	-9.57980	7.37969
15.94216	-9.55783	7.37969
15.94624	-9.49191	7.37969
15.95030	-9.44797	7.37969
15.95435	-9.44797	7.37969
15.95841	-9.38205	7.37969
15.96247	-9.31613	7.37969
15.96653	-9.25021	7.37969
15.97059	-9.20627	7.37969
15.97464	-9.20627	7.37969
15.97870	-9.16232	7.37969
15.98276	-9.09640	7.37969
15.98682	-9.05246	7.37969
15.99087	-9.00851	7.37969
15.99493	-8.94259	7.37969
15.99899	-8.94259	7.37969
16.00304	-8.89865	7.37969
16.00710	-8.83273	7.37969
16.01116	-8.78879	7.37969
16.01521	-8.72287	7.37969
16.01950	-8.72287	7.37969
16.02356	-8.67892	7.37969
16.02762	-8.61300	7.37969
16.03168	-8.56906	7.37969
16.03573	-8.52511	7.37969
16.03979	-8.45920	7.37969
16.04385	-8.45920	7.37969
16.04793	-8.43722	7.37969
16.05199	-8.37131	7.37969
16.05603	-8.32736	7.37969
16.06010	-8.26144	7.37969
16.06415	-8.26144	7.37969
16.06821	-8.21750	7.37969
16.07227	-8.15158	7.37969
16.07633	-8.10763	7.37969
16.08038	-8.06369	7.37969
16.08444	-8.06369	7.37969
16.08850	-8.01974	7.37969
16.09255	-7.97580	7.37969
16.09661	-7.90988	7.37969
16.10067	-7.90988	7.37969
16.10473	-7.86593	7.37969
16.10878	-7.82199	7.37969
16.11284	-7.77804	7.37969
16.11690	-7.73410	7.37969
16.12119	-7.69015	7.37969
16.12524	-7.69015	7.37969
16.12930	-7.64621	7.37969
16.13336	-7.60226	7.37969
16.13742	-7.55832	7.37969
16.14147	-7.51437	7.37969
16.14553	-7.51437	7.37969
16.14960	-7.47043	7.37969
16.15366	-7.42648	7.37969
16.15775	-7.38254	7.37969
16.16182	-7.33859	7.37969
16.16588	-7.29464	7.37969
16.16994	-7.29464	7.37969
16.17399	-7.25070	7.37969
16.17805	-7.20675	7.37969
16.18211	-7.16281	7.37969
16.18617	-7.11886	7.37969
16.19022	-7.11886	7.37969
16.19428	-7.07492	7.37969
16.19834	-7.03097	7.37969
16.20239	-7.00900	7.37969
16.20645	-6.98703	7.37969
16.21051	-6.92111	7.37969
16.21456	-6.92111	7.37969
16.21862	-6.89914	7.37969
16.22292	-6.85519	7.37969
16.22697	-6.83322	7.37969
16.23103	-6.78927	7.37969
16.23509	-6.78927	7.37969
16.23915	-6.74533	7.37969
16.24320	-6.72336	7.37969
16.24726	-6.67941	7.37969
16.25134	-6.65744	7.37969
16.25540	-6.65744	7.37969
16.25947	-6.61349	7.37969
16.26353	-6.59152	7.37969
16.26759	-6.54757	7.37969
16.27165	-6.50363	7.37969
16.27571	-6.50363	7.37969
16.27977	-6.48166	7.37969
16.28382	-6.43771	7.37969
16.28788	-6.41574	7.37969
16.29194	-6.39377	7.37969
16.29600	-6.34982	7.37969
16.30004	-6.34982	7.37969
16.30410	-6.32785	7.37969
16.30815	-6.28390	7.37969
16.31221	-6.26193	7.37969
16.31627	-6.23996	7.37969
16.32032	-6.23996	7.37969
16.32461	-6.21798	7.37969
16.32867	-6.17404	7.37969
16.33273	-6.15207	7.37969
16.33678	-6.13009	7.37969
16.34084	-6.13009	7.37969
16.34490	-6.08615	7.37969
16.34895	-6.06418	7.37969
16.35303	-6.04220	7.37969
16.35709	-6.02023	7.37969
16.36115	-6.02023	7.37969
16.36521	-5.99826	7.37969
16.36927	-5.95431	7.37969
16.37333	-5.95431	7.37969
16.37739	-5.93234	7.37969
16.38144	-5.91037	7.37969
16.38550	-5.91037	7.37969
16.38956	-5.86642	7.37969
16.39361	-5.86642	7.37969
16.39767	-5.84445	7.37969
16.40173	-5.84445	7.37969
16.40578	-5.80050	7.37969
16.40984	-5.80050	7.37969
16.41390	-5.77853	7.37969
16.41796	-5.75656	7.37969
16.42201	-5.73459	7.37969
16.42630	-5.73459	7.37969
16.43036	-5.69064	7.37969
16.43442	-5.69064	7.37969
16.43848	-5.66867	7.37969
16.44253	-5.66867	7.37969
16.44659	-5.66867	7.37969
16.45066	-5.64670	7.37969
16.45473	-5.62472	7.37969
16.45880	-5.62472	7.37969
16.46286	-5.60275	7.37969
16.46692	-5.58078	7.37969
16.47097	-5.58078	7.37969
16.47503	-5.55881	7.37969
16.47909	-5.55881	7.37969
16.48314	-5.53683	7.37969
16.48720	-5.51486	7.37969
16.49126	-5.51486	7.37969
16.49532	-5.51486	7.37969
16.49937	-5.49289	7.37969
16.50343	-5.49289	7.37969
16.50749	-5.47091	7.37969
16.51154	-5.44894	7.37969
16.51560	-5.44894	7.37969
16.51966	-5.47091	7.37969
16.52372	-5.44894	7.37969
16.52801	-5.44894	7.37969
16.53204	-5.42697	7.37969
16.53609	-5.42697	7.37969
16.54015	-5.42697	7.37969
16.54421	-5.42697	7.37969
16.54827	-5.40500	7.37969
16.55232	-5.40500	7.37969
16.55640	-5.40500	7.37969
16.56046	-5.40500	7.37969
16.56452	-5.40500	7.37969
16.56858	-5.38302	7.37969
16.57264	-5.38302	7.37969
16.57669	-5.38302	7.37969
16.58075	-5.38302	7.37969
16.58481	-5.36105	7.37969
16.58887	-5.38302	7.37969
16.59292	-5.36105	7.37969
16.59698	-5.36105	7.37969
16.60104	-5.38302	7.37969
16.60509	-5.38302	7.37969
16.60915	-5.36105	7.37969
16.61321	-5.38302	7.37969
16.61727	-5.38302	7.37969
16.62132	-5.38302	7.37969
16.62538	-5.38302	7.37969
16.62967	-5.36105	7.37969
16.63373	-5.38302	7.37969
16.63779	-5.38302	7.37969
16.64185	-5.38302	7.37969
16.64590	-5.38302	7.37969
16.64996	-5.40500	7.37969
16.65402	-5.38302	7.37969
16.65810	-5.40500	7.37969
16.66216	-5.40500	7.37969
16.66622	-5.40500	7.37969
16.67028	-5.40500	7.37969
16.67433	-5.42697	7.37969
16.67839	-5.42697	7.37969
16.68245	-5.42697	7.37969
16.68651	-5.44894	7.37969
16.69056	-5.44894	7.37969
16.69462	-5.47091	7.37969
16.69868	-5.47091	7.37969
16.70273	-5.47091	7.37969
16.70679	-5.47091	7.37969
16.71085	-5.49289	7.37969
16.71491	-5.49289	7.37969
16.71896	-5.51486	7.37969
16.72302	-5.53683	7.37969
16.72708	-5.53683	7.37969
16.73137	-5.53683	7.37969
16.73543	-5.55881	7.37969
16.73948	-5.55881	7.37969
16.74354	-5.58078	7.37969
16.74760	-5.58078	7.37969
16.75165	-5.58078	7.37969
16.75571	-5.60275	7.37969
16.75979	-5.62472	7.37969
16.76385	-5.64670	7.37969
16.76791	-5.66867	7.37969
16.77196	-5.66867	7.37969
16.77604	-5.66867	7.37969
16.78010	-5.71261	7.37969
16.78416	-5.71261	7.37969
16.78821	-5.73459	7.37969
16.79227	-5.73459	7.37969
16.79633	-5.75656	7.37969
16.80039	-5.75656	7.37969
16.80444	-5.80050	7.37969
16.80850	-5.80050	7.37969
16.81256	-5.84445	7.37969
16.81661	-5.84445	7.37969
16.82067	-5.86642	7.37969
16.82473	-5.88839	7.37969
16.82879	-5.93234	7.37969
16.83308	-5.93234	7.37969
16.83713	-5.93234	7.37969
16.84119	-5.97629	7.37969
16.84525	-5.99826	7.37969
16.84931	-6.02023	7.37969
16.85337	-6.02023	7.37969
16.85742	-6.06418	7.37969
16.86150	-6.06418	7.37969
16.86556	-6.10812	7.37969
16.86962	-6.13009	7.37969
16.87368	-6.13009	7.37969
16.87774	-6.17404	7.37969
16.88180	-6.19601	7.37969
16.88586	-6.21798	7.37969
16.88992	-6.26193	7.37969
16.89397	-6.26193	7.37969
16.89803	-6.26193	7.37969
16.90209	-6.30588	7.37969
16.90615	-6.34982	7.37969
16.91020	-6.37179	7.37969
16.91426	-6.41574	7.37969
16.91832	-6.41574	7.37969
16.92238	-6.43771	7.37969
16.92643	-6.48166	7.37969
16.93049	-6.50363	7.37969
16.93478	-6.54757	7.37969
16.93884	-6.56955	7.37969
16.94289	-6.56955	7.37969
16.94695	-6.61349	7.37969
16.95101	-6.65744	7.37969
16.95507	-6.67941	7.37969
16.95913	-6.72336	7.37969
16.96321	-6.72336	7.37969
16.96727	-6.76730	7.37969
16.97133	-6.78927	7.37969
16.97539	-6.83322	7.37969
16.97945	-6.85519	7.37969
16.98351	-6.85519	7.37969
16.98757	-6.89914	7.37969
16.99163	-6.94308	7.37969
16.99568	-6.98703	7.37969
16.99974	-7.03097	7.37969
17.00380	-7.03097	7.37969
17.00786	-7.07492	7.37969
17.01191	-7.09689	7.37969
17.01597	-7.14084	7.37969
17.02004	-7.20675	7.37969
17.02410	-7.22873	7.37969
17.02815	-7.22873	7.37969
17.03221	-7.27267	7.37969
17.03650	-7.31662	7.37969
17.04056	-7.36056	7.37969
17.04462	-7.40451	7.37969
17.04867	-7.40451	7.37969
17.05273	-7.42648	7.37969
17.05679	-7.49240	7.37969
17.06085	-7.51437	7.37969
17.06492	-7.55832	7.37969
17.06898	-7.60226	7.37969
17.07304	-7.60226	7.37969
17.07711	-7.66818	7.37969
17.08116	-7.71213	7.37969
17.08522	-7.73410	7.37969
17.08928	-7.80002	7.37969
17.09334	-7.80002	7.37969
17.09740	-7.84396	7.37969
17.10145	-7.88791	7.37969
17.10551	-7.93185	7.37969
17.10957	-7.97580	7.37969
17.11363	-7.97580	7.37969
17.11768	-8.04172	7.37969
17.12174	-8.06369	7.37969
17.12580	-8.12961	7.37969
17.12985	-8.12961	7.37969
17.13391	-8.17355	7.37969
17.13820	-8.21750	7.37969
17.14226	-8.26144	7.37969
17.14632	-8.30539	7.37969
17.15037	-8.34933	7.37969
17.15443	-8.34933	7.37969
17.15849	-8.39328	7.37969
17.16254	-8.45920	7.37969
17.16662	-8.50314	7.37969
17.17068	-8.52511	7.37969
17.17474	-8.52511	7.37969
17.17880	-8.59103	7.37969
17.18286	-8.63498	7.37969
17.18692	-8.67892	7.37969
17.19097	-8.72287	7.37969
17.19503	-8.76681	7.37969
17.19909	-8.76681	7.37969
17.20315	-8.83273	7.37969
17.20720	-8.87668	7.37969
17.21126	-8.92062	7.37969
17.21532	-8.96457	7.37969
17.21938	-8.96457	7.37969
17.22344	-9.00851	7.37969
17.22750	-9.05246	7.37969
17.23156	-9.09640	7.37969
17.23561	-9.16232	7.37969
17.23990	-9.20627	7.37969
17.24396	-9.20627	7.37969
17.24802	-9.25021	7.37969
17.25204	-9.31613	7.37969
17.25609	-9.36007	7.37969
17.26015	-9.40402	7.37969
17.26422	-9.44797	7.37969
17.26830	-9.44797	7.37969
17.27236	-9.49191	7.37969
17.27643	-9.55783	7.37969
17.28049	-9.60177	7.37969
17.28454	-9.60177	7.37969
17.28860	-9.64572	7.37969
17.29266	-9.68966	7.37969
17.29672	-9.75558	7.37969
17.30077	-9.79953	7.37969
17.30483	-9.79953	7.37969
17.30889	-9.84347	7.37969
17.31295	-9.88742	7.37969
17.31700	-9.93136	7.37969
17.32106	-9.99728	7.37969
17.32512	-10.04123	7.37969
17.32918	-10.04123	7.37969
17.33323	-10.08517	7.37969
17.33729	-10.12912	7.37969
17.34158	-10.17306	7.37969
17.34564	-10.23898	7.37969
17.34970	-10.23898	7.37969
17.35375	-10.28293	7.37969
17.35781	-10.32687	7.37969
17.36187	-10.37082	7.37969
17.36593	-10.43673	7.37969
17.37000	-10.43673	7.37969
17.37406	-10.48068	7.37969
17.37813	-10.52463	7.37969
17.38219	-10.56857	7.37969
17.38624	-10.61252	7.37969
17.39030	-10.61252	7.37969
17.39436	-10.65646	7.37969
17.39842	-10.70041	7.37969
17.40247	-10.74435	7.37969
17.40653	-10.78830	7.37969
17.41059	-10.83224	7.37969
17.41465	-10.83224	7.37969
17.41870	-10.89816	7.37969
17.42276	-10.94211	7.37969
17.42682	-11.00802	7.37969
17.43088	-11.00802	7.37969
17.43493	-11.03000	7.37969
17.43899	-11.07394	7.37969
17.44328	-11.11789	7.37969
17.44734	-11.16183	7.37969
17.45140	-11.20578	7.37969
17.45546	-11.20578	7.37969
17.45951	-11.24972	7.37969
17.46357	-11.29367	7.37969
17.46763	-11.33761	7.37969
17.47171	-11.38156	7.37969
17.47577	-11.38156	7.37969
17.47983	-11.42550	7.37969
17.48389	-11.44748	7.37969
17.48795	-11.51339	7.37969
17.49201	-11.55734	7.37969
17.49604	-11.57931	7.37969
17.50009	-11.57931	7.37969
17.50415	-11.64523	7.37969
17.50821	-11.66720	7.37969
17.51226	-11.73312	7.37969
17.51632	-11.75509	7.37969
17.52038	-11.79904	7.37969
17.52444	-11.79904	7.37969
17.52849	-11.84298	7.37969
17.53255	-11.86496	7.37969
17.53661	-11.93088	7.37969
17.54066	-11.95285	7.37969
17.54496	-11.95285	7.37969
17.54902	-11.99679	7.37969
17.55307	-12.04074	7.37969
17.55713	-12.08468	7.37969
17.56119	-12.10666	7.37969
17.56525	-12.12863	7.37969
17.56930	-12.12863	7.37969
17.57338	-12.19455	7.37969
17.57745	-12.23849	7.37969
17.58151	-12.26047	7.37969
17.58556	-12.26047	7.37969
17.58962	-12.30441	7.37969
17.59368	-12.34836	7.37969
17.59774	-12.37033	7.37969
17.60179	-12.41427	7.37969
17.60585	-12.41427	7.37969
17.60991	-12.45822	7.37969
17.61397	-12.48019	7.37969
17.61802	-12.52414	7.37969
17.62208	-12.56808	7.37969
17.62614	-12.56808	7.37969
17.63020	-12.59006	7.37969
17.63425	-12.63400	7.37969
17.63831	-12.65597	7.37969
17.64237	-12.67795	7.37969
17.64666	-12.67795	7.37969
17.65071	-12.72189	7.37969
17.65477	-12.74386	7.37969
17.65884	-12.78781	7.37969
17.66290	-12.80978	7.37969
17.66695	-12.85373	7.37969
17.67101	-12.85373	7.37969
17.67509	-12.87570	7.37969
17.67915	-12.89767	7.37969
17.68320	-12.94162	7.37969
17.68726	-12.96359	7.37969
17.69132	-12.98556	7.37969
17.69538	-12.98556	7.37969
17.69943	-13.02951	7.37969
17.70349	-13.05148	7.37969
17.70755	-13.07345	7.37969
17.71161	-13.07345	7.37969
17.71566	-13.09543	7.37969
17.71972	-13.13937	7.37969
17.72378	-13.16134	7.37969
17.72783	-13.18332	7.37969
17.73189	-13.18332	7.37969
17.73595	-13.20529	7.37969
17.74001	-13.22726	7.37969
17.74404	-13.24923	7.37969
17.74834	-13.29318	7.37969
17.75240	-13.29318	7.37969
17.75645	-13.29318	7.37969
17.76051	-13.33713	7.37969
17.76457	-13.35910	7.37969
17.76863	-13.38107	7.37969
17.77268	-13.40304	7.37969
17.77676	-13.42502	7.37969
17.78082	-13.42502	7.37969
17.78488	-13.44699	7.37969
17.78893	-13.46896	7.37969
17.79300	-13.49093	7.37969
17.79706	-13.51291	7.37969
17.80112	-13.51291	7.37969
17.80517	-13.53488	7.37969
17.80923	-13.53488	7.37969
17.81329	-13.55685	7.37969
17.81735	-13.57882	7.37969
17.82140	-13.60080	7.37969
17.82546	-13.60080	7.37969
17.82952	-13.62277	7.37969
17.83357	-13.64474	7.37969
17.83764	-13.66672	7.37969
17.84169	-13.66672	7.37969
17.84575	-13.66672	7.37969
17.85004	-13.68869	7.37969
17.85409	-13.71066	7.37969
17.85815	-13.71066	7.37969
17.86221	-13.73263	7.37969
17.86627	-13.73263	7.37969
17.87032	-13.73263	7.37969
17.87438	-13.75461	7.37969
17.87846	-13.77658	7.37969
17.88252	-13.77658	7.37969
17.88658	-13.77658	7.37969
17.89063	-13.79855	7.37969
17.89470	-13.79855	7.37969
17.89875	-13.82052	7.37969
17.90281	-13.82052	7.37969
17.90687	-13.82052	7.37969
17.91093	-13.84250	7.37969
17.91498	-13.84250	7.37969
17.91904	-13.86447	7.37969
17.92310	-13.86447	7.37969
17.92716	-13.86447	7.37969
17.93121	-13.88644	7.37969
17.93527	-13.88644	7.37969
17.93933	-13.88644	7.37969
17.94338	-13.90841	7.37969
17.94744	-13.90841	7.37969
17.95173	-13.90841	7.37969
17.95579	-13.90841	7.37969
17.95985	-13.93039	7.37969
17.96390	-13.93039	7.37969
17.96796	-13.93039	7.37969
17.97202	-13.93039	7.37969
17.97604	-13.93039	7.37969
17.98011	-13.95236	7.37969
17.98417	-13.95236	7.37969
17.98823	-13.95236	7.37969
17.99229	-13.95236	7.37969
17.99635	-13.95236	7.37969
18.00041	-13.95236	7.37969
18.00447	-13.95236	7.37969
18.00852	-13.97433	7.37969
18.01258	-13.97433	7.37969
18.01664	-13.97433	7.37969
18.02069	-13.97433	7.37969
18.02475	-13.97433	7.37969
18.02881	-13.95236	7.37969
18.03287	-13.97433	7.37969
18.03692	-13.97433	7.37969
18.04098	-13.97433	7.37969
18.04504	-13.97433	7.37969
18.04909	-13.95236	7.37969
18.05338	-13.95236	7.37969
18.05744	-13.95236	7.37969
18.06150	-13.95236	7.37969
18.06556	-13.95236	7.37969
18.06962	-13.95236	7.37969
18.07368	-13.95236	7.37969
18.07773	-13.95236	7.37969
18.08180	-13.95236	7.37969
18.08586	-13.95236	7.37969
18.08993	-13.93039	7.37969
18.09399	-13.93039	7.37969
18.09805	-13.93039	7.37969
18.10211	-13.93039	7.37969
18.10617	-13.93039	7.37969
18.11022	-13.90841	7.37969
18.11428	-13.90841	7.37969
18.11834	-13.90841	7.37969
18.12239	-13.90841	7.37969
18.12645	-13.88644	7.37969
18.13051	-13.88644	7.37969
18.13457	-13.86447	7.37969
18.13862	-13.86447	7.37969
18.14268	-13.86447	7.37969
18.14674	-13.86447	7.37969
18.15079	-13.84250	7.37969
18.15508	-13.84250	7.37969
18.15914	-13.84250	7.37969
18.16320	-13.82052	7.37969
18.16726	-13.82052	7.37969
18.17132	-13.79855	7.37969
18.17537	-13.79855	7.37969
18.17943	-13.79855	7.37969
18.18351	-13.79855	7.37969
18.18757	-13.77658	7.37969
18.19163	-13.75461	7.37969
18.19569	-13.75461	7.37969
18.19975	-13.73263	7.37969
18.20380	-13.73263	7.37969
18.20786	-13.73263	7.37969
18.21192	-13.73263	7.37969
18.21598	-13.71066	7.37969
18.22003	-13.68869	7.37969
18.22409	-13.68869	7.37969
18.22815	-13.68869	7.37969
18.23220	-13.66672	7.37969
18.23626	-13.64474	7.37969
18.24032	-13.64474	7.37969
18.24438	-13.62277	7.37969
18.24843	-13.62277	7.37969
18.25249	-13.62277	7.37969
18.25678	-13.60080	7.37969
18.26084	-13.57882	7.37969
18.26489	-13.57882	7.37969
18.26895	-13.55685	7.37969
18.27301	-13.55685	7.37969
18.27707	-13.53488	7.37969
18.28113	-13.53488	7.37969
18.28521	-13.51291	7.37969
18.28927	-13.49093	7.37969
18.29333	-13.46896	7.37969
18.29739	-13.46896	7.37969
18.30145	-13.46896	7.37969
18.30550	-13.44699	7.37969
18.30956	-13.42502	7.37969
18.31362	-13.42502	7.37969
18.31768	-13.42502	7.37969
18.32173	-13.40304	7.37969
18.32579	-13.40304	7.37969
18.32985	-13.38107	7.37969
18.33390	-13.35910	7.37969
18.33796	-13.35910	7.37969
18.34202	-13.33713	7.37969
18.34608	-13.33713	7.37969
18.35013	-13.31515	7.37969
18.35419	-13.29318	7.37969
18.35848	-13.29318	7.37969
18.36253	-13.27121	7.37969
18.36659	-13.27121	7.37969
18.37065	-13.24923	7.37969
18.37471	-13.22726	7.37969
18.37876	-13.22726	7.37969
18.38282	-13.20529	7.37969
18.38689	-13.18332	7.37969
18.39095	-13.18332	7.37969
18.39502	-13.16134	7.37969
18.39907	-13.16134	7.37969
18.40313	-13.13937	7.37969
18.40719	-13.13937	7.37969
18.41124	-13.09543	7.37969
18.41530	-13.07345	7.37969
18.41936	-13.07345	7.37969
18.42342	-13.07345	7.37969
18.42747	-13.07345	7.37969
18.43153	-13.02951	7.37969
18.43559	-13.00754	7.37969
18.43965	-13.00754	7.37969
18.44370	-13.00754	7.37969
18.44776	-12.98556	7.37969
18.45182	-12.96359	7.37969
18.45587	-12.94162	7.37969
18.46017	-12.94162	7.37969
18.46423	-12.94162	7.37969
18.46829	-12.91964	7.37969
18.47235	-12.89767	7.37969
18.47640	-12.87570	7.37969
18.48046	-12.85373	7.37969
18.48452	-12.85373	7.37969
18.48859	-12.83175	7.37969
18.49266	-12.80978	7.37969
18.49672	-12.80978	7.37969
18.50077	-12.78781	7.37969
18.50483	-12.76584	7.37969
18.50889	-12.76584	7.37969
18.51295	-12.76584	7.37969
18.51700	-12.72189	7.37969
18.52106	-12.72189	7.37969
18.52512	-12.69992	7.37969
18.52918	-12.69992	7.37969
18.53323	-12.67795	7.37969
18.53729	-12.65597	7.37969
18.54135	-12.63400	7.37969
18.54540	-12.63400	7.37969
18.54946	-12.59006	7.37969
18.55352	-12.59006	7.37969
18.55757	-12.59006	7.37969
18.56186	-12.56808	7.37969
18.56593	-12.54611	7.37969
18.56999	-12.52414	7.37969
18.57404	-12.52414	7.37969
18.57810	-12.50216	7.37969
18.58216	-12.50216	7.37969
18.58622	-12.45822	7.37969
18.59029	-12.45822	7.37969
18.59435	-12.45822	7.37969
18.59841	-12.43625	7.37969
18.60247	-12.41427	7.37969
18.60653	-12.39230	7.37969
18.61058	-12.39230	7.37969
18.61464	-12.39230	7.37969
18.61870	-12.37033	7.37969
18.62276	-12.34836	7.37969
18.62681	-12.32638	7.37969
18.63087	-12.30441	7.37969
18.63493	-12.30441	7.37969
18.63898	-12.28244	7.37969
18.64304	-12.26047	7.37969
18.64710	-12.23849	7.37969
18.65115	-12.23849	7.37969
18.65521	-12.23849	7.37969
18.65927	-12.21652	7.37969
18.66356	-12.19455	7.37969
18.66762	-12.17257	7.37969
18.67168	-12.15060	7.37969
18.67574	-12.15060	7.37969
18.67979	-12.15060	7.37969
18.68385	-12.12863	7.37969
18.68791	-12.12863	7.37969
18.69198	-12.08468	7.37969
18.69605	-12.06271	7.37969
18.70011	-12.06271	7.37969
18.70416	-12.06271	7.37969
18.70823	-12.01877	7.37969
18.71229	-12.01877	7.37969
18.71634	-12.01877	7.37969
18.72040	-11.97482	7.37969
18.72446	-11.97482	7.37969
18.72852	-11.97482	7.37969
18.73257	-11.95285	7.37969
18.73663	-11.93088	7.37969
18.74069	-11.93088	7.37969
18.74475	-11.90890	7.37969
18.74880	-11.90890	7.37969
18.75286	-11.88693	7.37969
18.75692	-11.86496	7.37969
18.76097	-11.84298	7.37969
18.76526	-11.84298	7.37969
18.76932	-11.84298	7.37969
18.77338	-11.82101	7.37969
18.77743	-11.79904	7.37969
18.78149	-11.79904	7.37969
18.78555	-11.79904	7.37969
18.78960	-11.77707	7.37969
18.79367	-11.75509	7.37969
18.79773	-11.75509	7.37969
18.80180	-11.73312	7.37969
18.80586	-11.71115	7.37969
18.80992	-11.71115	7.37969
18.81398	-11.68918	7.37969
18.81804	-11.68918	7.37969
18.82209	-11.66720	7.37969
18.82615	-11.66720	7.37969
18.83021	-11.66720	7.37969
18.83426	-11.64523	7.37969
18.83832	-11.62326	7.37969
18.84238	-11.60129	7.37969
18.84644	-11.60129	7.37969
18.85049	-11.57931	7.37969
18.85455	-11.57931	7.37969
18.85861	-11.57931	7.37969
18.86266	-11.57931	7.37969
18.86695	-11.53537	7.37969
18.87101	-11.53537	7.37969
18.87507	-11.53537	7.37969
18.87913	-11.51339	7.37969
18.88318	-11.51339	7.37969
18.88724	-11.49142	7.37969
18.89130	-11.49142	7.37969
18.89537	-11.49142	7.37969
18.89943	-11.46945	7.37969
18.90349	-11.44748	7.37969
18.90755	-11.44748	7.37969
18.91161	-11.44748	7.37969
18.91567	-11.42550	7.37969
18.91973	-11.42550	7.37969
18.92378	-11.40353	7.37969
18.92784	-11.40353	7.37969
18.93190	-11.40353	7.37969
18.93596	-11.40353	7.37969
18.94001	-11.38156	7.37969
18.94404	-11.35959	7.37969
18.94810	-11.35959	7.37969
18.95215	-11.33761	7.37969
18.95621	-11.33761	7.37969
18.96027	-11.33761	7.37969
18.96433	-11.33761	7.37969
18.96861	-11.31564	7.37969
18.97268	-11.31564	7.37969
18.97673	-11.29367	7.37969
18.98079	-11.29367	7.37969
18.98485	-11.29367	7.37969
18.98890	-11.27170	7.37969
18.99296	-11.27170	7.37969
18.99704	-11.24972	7.37969
19.00110	-11.24972	7.37969
19.00516	-11.24972	7.37969
19.00922	-11.24972	7.37969
19.01328	-11.22775	7.37969
19.01734	-11.22775	7.37969
19.02139	-11.22775	7.37969
19.02545	-11.22775	7.37969
19.02951	-11.20578	7.37969
19.03357	-11.20578	7.37969
19.03763	-11.18381	7.37969
19.04169	-11.18381	7.37969
19.04575	-11.18381	7.37969
19.04980	-11.16183	7.37969
19.05386	-11.16183	7.37969
19.05792	-11.16183	7.37969
19.06198	-11.13986	7.37969
19.06603	-11.13986	7.37969
19.07032	-11.13986	7.37969
19.07438	-11.13986	7.37969
19.07844	-11.11789	7.37969
19.08249	-11.11789	7.37969
19.08655	-11.11789	7.37969
19.09061	-11.11789	7.37969
19.09466	-11.09591	7.37969
19.09874	-11.09591	7.37969
19.10280	-11.09591	7.37969
19.10686	-11.09591	7.37969
19.11092	-11.09591	7.37969
19.11498	-11.07394	7.37969
19.11904	-11.07394	7.37969
19.12309	-11.07394	7.37969
19.12715	-11.05197	7.37969
19.13121	-11.05197	7.37969
19.13526	-11.05197	7.37969
19.13932	-11.05197	7.37969
19.14338	-11.05197	7.37969
19.14743	-11.03000	7.37969
19.15149	-11.03000	7.37969
19.15555	-11.03000	7.37969
19.15960	-11.03000	7.37969
19.16366	-11.00802	7.37969
19.16772	-11.00802	7.37969
19.17200	-11.00802	7.37969
19.17606	-11.00802	7.37969
19.18012	-11.00802	7.37969
19.18418	-11.00802	7.37969
19.18823	-10.98605	7.37969
19.19229	-10.98605	7.37969
19.19635	-10.98605	7.37969
19.20041	-10.98605	7.37969
19.20447	-10.98605	7.37969
19.20852	-10.98605	7.37969
19.21258	-10.98605	7.37969
19.21664	-10.96408	7.37969
19.22071	-10.96408	7.37969
19.22476	-10.96408	7.37969
19.22882	-10.96408	7.37969
19.23288	-10.96408	7.37969
19.23694	-10.96408	7.37969
19.24100	-10.94211	7.37969
19.24505	-10.94211	7.37969
19.24911	-10.94211	7.37969
19.25317	-10.94211	7.37969
19.25723	-10.94211	7.37969
19.26128	-10.92013	7.37969
19.26534	-10.92013	7.37969
19.26940	-10.92013	7.37969
19.27370	-10.92013	7.37969
19.27776	-10.92013	7.37969
19.28182	-10.92013	7.37969
19.28588	-10.89816	7.37969
19.28993	-10.92013	7.37969
19.29399	-10.92013	7.37969
19.29805	-10.89816	7.37969
19.30211	-10.89816	7.37969
19.30617	-10.89816	7.37969
19.31023	-10.89816	7.37969
19.31428	-10.89816	7.37969
19.31834	-10.87619	7.37969
19.32240	-10.87619	7.37969
19.32646	-10.87619	7.37969
19.33051	-10.87619	7.37969
19.33457	-10.87619	7.37969
19.33863	-10.87619	7.37969
19.34268	-10.87619	7.37969
19.34674	-10.87619	7.37969
19.35080	-10.87619	7.37969
19.35485	-10.85422	7.37969
19.35891	-10.85422	7.37969
19.36297	-10.85422	7.37969
19.36703	-10.85422	7.37969
19.37109	-10.85422	7.37969
19.37539	-10.85422	7.37969
19.37945	-10.83224	7.37969
19.38351	-10.83224	7.37969
19.38757	-10.83224	7.37969
19.39162	-10.83224	7.37969
19.39568	-10.83224	7.37969
19.39974	-10.83224	7.37969
19.40381	-10.83224	7.37969
19.40787	-10.83224	7.37969
19.41193	-10.83224	7.37969
19.41598	-10.83224	7.37969
19.42003	-10.81027	7.37969
19.42409	-10.81027	7.37969
19.42815	-10.81027	7.37969
19.43221	-10.81027	7.37969
19.43626	-10.81027	7.37969
19.44032	-10.81027	7.37969
19.44438	-10.81027	7.37969
19.44844	-10.81027	7.37969
19.45249	-10.78830	7.37969
19.45655	-10.78830	7.37969
19.46061	-10.78830	7.37969
19.46466	-10.76632	7.37969
19.46872	-10.76632	7.37969
19.47278	-10.78830	7.37969
19.47708	-10.76632	7.37969
19.48114	-10.76632	7.37969
19.48520	-10.76632	7.37969
19.48926	-10.76632	7.37969
19.49331	-10.76632	7.37969
19.49740	-10.74435	7.37969
19.50146	-10.74435	7.37969
19.50552	-10.74435	7.37969
19.50958	-10.74435	7.37969
19.51364	-10.74435	7.37969
19.51770	-10.74435	7.37969
19.52175	-10.74435	7.37969
19.52581	-10.72238	7.37969
19.52987	-10.72238	7.37969
19.53393	-10.72238	7.37969
19.53798	-10.72238	7.37969
19.54204	-10.72238	7.37969
19.54610	-10.70041	7.37969
19.55015	-10.70041	7.37969
19.55421	-10.70041	7.37969
19.55827	-10.70041	7.37969
19.56232	-10.70041	7.37969
19.56638	-10.70041	7.37969
19.57044	-10.67843	7.37969
19.57449	-10.67843	7.37969
19.57879	-10.67843	7.37969
19.58285	-10.67843	7.37969
19.58690	-10.67843	7.37969
19.59096	-10.67843	7.37969
19.59502	-10.65646	7.37969
19.59908	-10.65646	7.37969
19.60313	-10.65646	7.37969
19.60720	-10.67843	7.37969
19.61125	-10.65646	7.37969
19.61531	-10.65646	7.37969
19.61937	-10.63449	7.37969
19.62343	-10.63449	7.37969
19.62748	-10.63449	7.37969
19.63154	-10.63449	7.37969
19.63560	-10.63449	7.37969
19.63966	-10.63449	7.37969
19.64371	-10.63449	7.37969
19.64777	-10.61252	7.37969
19.65183	-10.61252	7.37969
19.65588	-10.61252	7.37969
19.65994	-10.61252	7.37969
19.66400	-10.61252	7.37969
19.66804	-10.59054	7.37969
19.67209	-10.59054	7.37969
19.67615	-10.59054	7.37969
19.68044	-10.56857	7.37969
19.68450	-10.56857	7.37969
19.68855	-10.59054	7.37969
19.69261	-10.56857	7.37969
19.69667	-10.56857	7.37969
19.70073	-10.56857	7.37969
19.70478	-10.56857	7.37969
19.70885	-10.56857	7.37969
19.71290	-10.54660	7.37969
19.71696	-10.54660	7.37969
19.72102	-10.54660	7.37969
19.72507	-10.54660	7.37969
19.72913	-10.54660	7.37969
19.73319	-10.54660	7.37969
19.73725	-10.52463	7.37969
19.74130	-10.52463	7.37969
19.74536	-10.52463	7.37969
19.74942	-10.52463	7.37969
19.75347	-10.52463	7.37969
19.75753	-10.50265	7.37969
19.76159	-10.50265	7.37969
19.76565	-10.50265	7.37969
19.76970	-10.50265	7.37969
19.77376	-10.50265	7.37969
19.77782	-10.48068	7.37969
19.78211	-10.48068	7.37969
19.78617	-10.48068	7.37969
19.79022	-10.45871	7.37969
19.79428	-10.45871	7.37969
19.79834	-10.45871	7.37969
19.80240	-10.45871	7.37969
19.80645	-10.45871	7.37969
19.81052	-10.43673	7.37969
19.81457	-10.43673	7.37969
19.81863	-10.43673	7.37969
19.82269	-10.43673	7.37969
19.82674	-10.43673	7.37969
19.83080	-10.43673	7.37969
19.83486	-10.43673	7.37969
19.83891	-10.43673	7.37969
19.84297	-10.41476	7.37969
19.84703	-10.41476	7.37969
19.85109	-10.39279	7.37969
19.85514	-10.39279	7.37969
19.85920	-10.39279	7.37969
19.86326	-10.39279	7.37969
19.86731	-10.39279	7.37969
19.87138	-10.39279	7.37969
19.87544	-10.37082	7.37969
19.87950	-10.37082	7.37969
19.88378	-10.37082	7.37969
19.88784	-10.34884	7.37969
19.89190	-10.34884	7.37969
19.89596	-10.34884	7.37969
19.90001	-10.34884	7.37969
19.90404	-10.32687	7.37969
19.90809	-10.34884	7.37969
19.91215	-10.32687	7.37969
19.91621	-10.32687	7.37969
19.92027	-10.32687	7.37969
19.92433	-10.30490	7.37969
19.92839	-10.30490	7.37969
19.93244	-10.30490	7.37969
19.93650	-10.28293	7.37969
19.94056	-10.28293	7.37969
19.94462	-10.28293	7.37969
19.94867	-10.28293	7.37969
19.95273	-10.28293	7.37969
19.95679	-10.26095	7.37969
19.96084	-10.26095	7.37969
19.96490	-10.26095	7.37969
19.96896	-10.26095	7.37969
19.97301	-10.23898	7.37969
19.97707	-10.23898	7.37969
19.98113	-10.21701	7.37969
19.98542	-10.21701	7.37969
19.98947	-10.21701	7.37969
19.99353	-10.21701	7.37969
19.99759	-10.21701	7.37969
20.00165	-10.21701	7.37969
20.00570	-10.19504	7.37969
20.00976	-10.19504	7.37969
20.01382	-10.19504	7.37969
20.01788	-10.17306	7.37969
20.02194	-10.17306	7.37969
20.02600	-10.17306	7.37969
20.03005	-10.17306	7.37969
20.03411	-10.15109	7.37969
20.03817	-10.15109	7.37969
20.04222	-10.15109	7.37969
20.04628	-10.15109	7.37969
20.05034	-10.15109	7.37969
20.05439	-10.12912	7.37969
20.05845	-10.12912	7.37969
20.06251	-10.12912	7.37969
20.06656	-10.10714	7.37969
20.07062	-10.10714	7.37969
20.07468	-10.10714	7.37969
20.07873	-10.08517	7.37969
20.08280	-10.08517	7.37969
20.08709	-10.08517	7.37969
20.09114	-10.06320	7.37969
20.09520	-10.06320	7.37969
20.09926	-10.06320	7.37969
20.10332	-10.06320	7.37969
20.10737	-10.04123	7.37969
20.11143	-10.04123	7.37969
20.11549	-10.04123	7.37969
20.11955	-10.01925	7.37969
20.12361	-10.01925	7.37969
20.12767	-10.01925	7.37969
20.13172	-10.01925	7.37969
20.13578	-10.01925	7.37969
20.13984	-10.01925	7.37969
20.14389	-9.99728	7.37969
20.14795	-9.99728	7.37969
20.15201	-9.97531	7.37969
20.15603	-9.97531	7.37969
20.16009	-9.97531	7.37969
20.16415	-9.97531	7.37969
20.16821	-9.97531	7.37969
20.17226	-9.95334	7.37969
20.17632	-9.95334	7.37969
20.18038	-9.95334	7.37969
20.18443	-9.95334	7.37969
20.18873	-9.93136	7.37969
20.19278	-9.93136	7.37969
20.19684	-9.93136	7.37969
20.20090	-9.93136	7.37969
20.20495	-9.90939	7.37969
20.20901	-9.90939	7.37969
20.21307	-9.88742	7.37969
20.21713	-9.88742	7.37969
20.22119	-9.88742	7.37969
20.22525	-9.88742	7.37969
20.22931	-9.86545	7.37969
20.23337	-9.86545	7.37969
20.23742	-9.86545	7.37969
20.24148	-9.86545	7.37969
20.24554	-9.86545	7.37969
20.24959	-9.84347	7.37969
20.25365	-9.84347	7.37969
20.25771	-9.82150	7.37969
20.26177	-9.82150	7.37969
20.26582	-9.82150	7.37969
20.26988	-9.82150	7.37969
20.27394	-9.79953	7.37969
20.27799	-9.79953	7.37969
20.28205	-9.79953	7.37969
20.28611	-9.79953	7.37969
20.29040	-9.77756	7.37969
20.29445	-9.77756	7.37969
20.29851	-9.75558	7.37969
20.30257	-9.77756	7.37969
20.30662	-9.75558	7.37969
20.31068	-9.75558	7.37969
20.31474	-9.75558	7.37969
20.31880	-9.73361	7.37969
20.32286	-9.73361	7.37969
20.32692	-9.73361	7.37969
20.33098	-9.73361	7.37969
20.33503	-9.71164	7.37969
20.33909	-9.71164	7.37969
20.34315	-9.71164	7.37969
20.34720	-9.68966	7.37969
20.35126	-9.68966	7.37969
20.35532	-9.68966	7.37969
20.35937	-9.68966	7.37969
20.36343	-9.68966	7.37969
20.36749	-9.66769	7.37969
20.37156	-9.66769	7.37969
20.37561	-9.66769	7.37969
20.37967	-9.66769	7.37969
20.38373	-9.64572	7.37969
20.38779	-9.64572	7.37969
20.39208	-9.62375	7.37969
20.39614	-9.62375	7.37969
20.40020	-9.64572	7.37969
20.40426	-9.64572	7.37969
20.40831	-9.62375	7.37969
20.41238	-9.62375	7.37969
20.41644	-9.62375	7.37969
20.42050	-9.60177	7.37969
20.42456	-9.60177	7.37969
20.42862	-9.57980	7.37969
20.43267	-9.60177	7.37969
20.43673	-9.60177	7.37969
20.44079	-9.57980	7.37969
20.44485	-9.57980	7.37969
20.44890	-9.57980	7.37969
20.45296	-9.57980	7.37969
20.45702	-9.55783	7.37969
20.46107	-9.57980	7.37969
20.46513	-9.55783	7.37969
20.46919	-9.55783	7.37969
20.47324	-9.55783	7.37969
20.47730	-9.55783	7.37969
20.48136	-9.53586	7.37969
20.48542	-9.53586	7.37969
20.48948	-9.53586	7.37969
20.49377	-9.53586	7.37969
20.49784	-9.53586	7.37969
20.50190	-9.53586	7.37969
20.50595	-9.51388	7.37969
20.51001	-9.53586	7.37969
20.51407	-9.51388	7.37969
20.51813	-9.51388	7.37969
20.52219	-9.51388	7.37969
20.52625	-9.51388	7.37969
20.53030	-9.51388	7.37969
20.53436	-9.51388	7.37969
20.53842	-9.49191	7.37969
20.54247	-9.49191	7.37969
20.54653	-9.49191	7.37969
20.55059	-9.49191	7.37969
20.55465	-9.49191	7.37969
20.55870	-9.49191	7.37969
20.56276	-9.49191	7.37969
20.56682	-9.49191	7.37969
20.57087	-9.49191	7.37969
20.57493	-9.46994	7.37969
20.57899	-9.49191	7.37969
20.58304	-9.49191	7.37969
20.58711	-9.46994	7.37969
20.59116	-9.46994	7.37969
20.59546	-9.46994	7.37969
20.59951	-9.46994	7.37969
20.60357	-9.46994	7.37969
20.60763	-9.46994	7.37969
20.61169	-9.46994	7.37969
20.61574	-9.46994	7.37969
20.61980	-9.46994	7.37969
20.62386	-9.46994	7.37969
20.62792	-9.46994	7.37969
20.63198	-9.46994	7.37969
20.63604	-9.44797	7.37969
20.64010	-9.46994	7.37969
20.64415	-9.44797	7.37969
20.64821	-9.44797	7.37969
20.65227	-9.44797	7.37969
20.65632	-9.46994	7.37969
20.66038	-9.46994	7.37969
20.66444	-9.46994	7.37969
20.66850	-9.44797	7.37969
20.67255	-9.44797	7.37969
20.67661	-9.46994	7.37969
20.68067	-9.46994	7.37969
20.68472	-9.44797	7.37969
20.68879	-9.46994	7.37969
20.69285	-9.46994	7.37969
20.69714	-9.46994	7.37969
20.70119	-9.46994	7.37969
20.70525	-9.46994	7.37969
20.70931	-9.46994	7.37969
20.71337	-9.46994	7.37969
20.71742	-9.46994	7.37969
20.72148	-9.46994	7.37969
20.72554	-9.49191	7.37969
20.72960	-9.46994	7.37969
20.73366	-9.46994	7.37969
20.73772	-9.46994	7.37969
20.74177	-9.49191	7.37969
20.74583	-9.49191	7.37969
20.74989	-9.49191	7.37969
20.75394	-9.49191	7.37969
20.75800	-9.49191	7.37969
20.76206	-9.49191	7.37969
20.76612	-9.49191	7.37969
20.77017	-9.49191	7.37969
20.77423	-9.51388	7.37969
20.77829	-9.51388	7.37969
20.78234	-9.51388	7.37969
20.78640	-9.51388	7.37969
20.79046	-9.51388	7.37969
20.79452	-9.53586	7.37969
20.79881	-9.53586	7.37969
20.80287	-9.53586	7.37969
20.80692	-9.53586	7.37969
20.81098	-9.55783	7.37969
20.81504	-9.53586	7.37969
20.81910	-9.55783	7.37969
20.82315	-9.55783	7.37969
20.82721	-9.55783	7.37969
20.83127	-9.55783	7.37969
20.83533	-9.57980	7.37969
20.83939	-9.55783	7.37969
20.84344	-9.55783	7.37969
20.84750	-9.57980	7.37969
20.85156	-9.57980	7.37969
20.85562	-9.60177	7.37969
20.85967	-9.60177	7.37969
20.86373	-9.60177	7.37969
20.86779	-9.60177	7.37969
20.87185	-9.62375	7.37969
20.87591	-9.62375	7.37969
20.87996	-9.64572	7.37969
20.88402	-9.64572	7.37969
20.88804	-9.64572	7.37969
20.89209	-9.64572	7.37969
20.89615	-9.66769	7.37969
20.90044	-9.64572	7.37969
20.90449	-9.66769	7.37969
20.90855	-9.66769	7.37969
20.91261	-9.66769	7.37969
20.91667	-9.68966	7.37969
20.92072	-9.68966	7.37969
20.92478	-9.71164	7.37969
20.92884	-9.71164	7.37969
20.93290	-9.73361	7.37969
20.93696	-9.73361	7.37969
20.94102	-9.73361	7.37969
20.94507	-9.75558	7.37969
20.94913	-9.75558	7.37969
20.95319	-9.75558	7.37969
20.95724	-9.77756	7.37969
20.96130	-9.77756	7.37969
20.96536	-9.79953	7.37969
20.96942	-9.79953	7.37969
20.97347	-9.79953	7.37969
20.97753	-9.79953	7.37969
20.98159	-9.82150	7.37969
20.98564	-9.82150	7.37969
20.98970	-9.84347	7.37969
20.99376	-9.84347	7.37969
20.99782	-9.84347	7.37969
21.00211	-9.86545	7.37969
21.00617	-9.86545	7.37969
21.01023	-9.88742	7.37969
21.01429	-9.88742	7.37969
21.01834	-9.88742	7.37969
21.02240	-9.90939	7.37969
21.02646	-9.93136	7.37969
21.03052	-9.93136	7.37969
21.03458	-9.93136	7.37969
21.03864	-9.93136	7.37969
21.04269	-9.95334	7.37969
21.04675	-9.95334	7.37969
21.05081	-9.97531	7.37969
21.05486	-9.97531	7.37969
21.05892	-9.99728	7.37969
21.06298	-9.99728	7.37969
21.06704	-10.01925	7.37969
21.07109	-10.01925	7.37969
21.07515	-10.04123	7.37969
21.07921	-10.04123	7.37969
21.08326	-10.04123	7.37969
21.08732	-10.08517	7.37969
21.09138	-10.08517	7.37969
21.09545	-10.08517	7.37969
21.09950	-10.08517	7.37969
21.10379	-10.10714	7.37969
21.10785	-10.10714	7.37969
21.11191	-10.12912	7.37969
21.11596	-10.12912	7.37969
21.12002	-10.15109	7.37969
21.12403	-10.15109	7.37969
21.12809	-10.17306	7.37969
21.13215	-10.17306	7.37969
21.13621	-10.19504	7.37969
21.14027	-10.21701	7.37969
21.14433	-10.21701	7.37969
21.14838	-10.21701	7.37969
21.15244	-10.23898	7.37969
21.15650	-10.23898	7.37969
21.16055	-10.26095	7.37969
21.16461	-10.26095	7.37969
21.16867	-10.26095	7.37969
21.17272	-10.28293	7.37969
21.17678	-10.30490	7.37969
21.18084	-10.30490	7.37969
21.18489	-10.30490	7.37969
21.18895	-10.32687	7.37969
21.19301	-10.34884	7.37969
21.19706	-10.34884	7.37969
21.20112	-10.34884	7.37969
21.20541	-10.34884	7.37969
21.20946	-10.39279	7.37969
21.21352	-10.37082	7.37969
21.21758	-10.41476	7.37969
21.22164	-10.41476	7.37969
21.22570	-10.41476	7.37969
21.22976	-10.43673	7.37969
21.23382	-10.43673	7.37969
21.23788	-10.43673	7.37969
21.24193	-10.45871	7.37969
21.24599	-10.48068	7.37969
21.25005	-10.48068	7.37969
21.25410	-10.48068	7.37969
21.25816	-10.50265	7.37969
21.26222	-10.52463	7.37969
21.26628	-10.52463	7.37969
21.27033	-10.52463	7.37969
21.27439	-10.54660	7.37969
21.27845	-10.54660	7.37969
21.28250	-10.56857	7.37969
21.28656	-10.56857	7.37969
21.29062	-10.56857	7.37969
21.29467	-10.59054	7.37969
21.29874	-10.61252	7.37969
21.30280	-10.61252	7.37969
21.30710	-10.63449	7.37969
21.31116	-10.63449	7.37969
21.31521	-10.63449	7.37969
21.31928	-10.65646	7.37969
21.32334	-10.65646	7.37969
21.32739	-10.67843	7.37969
21.33145	-10.70041	7.37969
21.33551	-10.70041	7.37969
21.33957	-10.70041	7.37969
21.34363	-10.72238	7.37969
21.34769	-10.72238	7.37969
21.35174	-10.74435	7.37969
21.35580	-10.74435	7.37969
21.35986	-10.74435	7.37969
21.36392	-10.76632	7.37969
21.36797	-10.78830	7.37969
21.37204	-10.78830	7.37969
21.37610	-10.81027	7.37969
21.38015	-10.81027	7.37969
21.38421	-10.81027	7.37969
21.38827	-10.83224	7.37969
21.39233	-10.83224	7.37969
21.39638	-10.85422	7.37969
21.40044	-10.85422	7.37969
21.40450	-10.85422	7.37969
21.40878	-10.87619	7.37969
21.41284	-10.89816	7.37969
21.41690	-10.89816	7.37969
21.42095	-10.89816	7.37969
21.42501	-10.89816	7.37969
21.42907	-10.92013	7.37969
21.43312	-10.94211	7.37969
21.43719	-10.94211	7.37969
21.44125	-10.94211	7.37969
21.44530	-10.96408	7.37969
21.44936	-10.98605	7.37969
21.45342	-10.98605	7.37969
21.45747	-10.98605	7.37969
21.46153	-10.98605	7.37969
21.46559	-11.00802	7.37969
21.46964	-11.00802	7.37969
21.47370	-11.03000	7.37969
21.47776	-11.05197	7.37969
21.48182	-11.05197	7.37969
21.48587	-11.05197	7.37969
21.48993	-11.05197	7.37969
21.49399	-11.07394	7.37969
21.49807	-11.07394	7.37969
21.50213	-11.09591	7.37969
21.50619	-11.09591	7.37969
21.51047	-11.11789	7.37969
21.51453	-11.11789	7.37969
21.51859	-11.11789	7.37969
21.52265	-11.13986	7.37969
21.52670	-11.13986	7.37969
21.53076	-11.13986	7.37969
21.53482	-11.16183	7.37969
21.53888	-11.16183	7.37969
21.54294	-11.18381	7.37969
21.54700	-11.20578	7.37969
21.55105	-11.20578	7.37969
21.55511	-11.20578	7.37969
21.55917	-11.20578	7.37969
21.56323	-11.22775	7.37969
21.56728	-11.22775	7.37969
21.57134	-11.22775	7.37969
21.57540	-11.24972	7.37969
21.57946	-11.24972	7.37969
21.58351	-11.27170	7.37969
21.58757	-11.27170	7.37969
21.59163	-11.27170	7.37969
21.59569	-11.27170	7.37969
21.59974	-11.29367	7.37969
21.60380	-11.31564	7.37969
21.60786	-11.31564	7.37969
21.61215	-11.31564	7.37969
21.61621	-11.31564	7.37969
21.62027	-11.33761	7.37969
21.62433	-11.33761	7.37969
21.62838	-11.33761	7.37969
21.63244	-11.35959	7.37969
21.63650	-11.35959	7.37969
21.64056	-11.35959	7.37969
21.64462	-11.38156	7.37969
21.64867	-11.38156	7.37969
21.65273	-11.40353	7.37969
21.65679	-11.40353	7.37969
21.66085	-11.40353	7.37969
21.66490	-11.40353	7.37969
21.66896	-11.42550	7.37969
21.67302	-11.42550	7.37969
21.67707	-11.42550	7.37969
21.68113	-11.42550	7.37969
21.68519	-11.44748	7.37969
21.68924	-11.44748	7.37969
21.69330	-11.46945	7.37969
21.69736	-11.46945	7.37969
21.70141	-11.46945	7.37969
21.70547	-11.46945	7.37969
21.70953	-11.49142	7.37969
21.71382	-11.49142	7.37969
21.71787	-11.49142	7.37969
21.72193	-11.49142	7.37969
21.72599	-11.51339	7.37969
21.73005	-11.51339	7.37969
21.73410	-11.51339	7.37969
21.73816	-11.51339	7.37969
21.74223	-11.53537	7.37969
21.74628	-11.53537	7.37969
21.75034	-11.53537	7.37969
21.75440	-11.55734	7.37969
21.75845	-11.55734	7.37969
21.76251	-11.55734	7.37969
21.76657	-11.55734	7.37969
21.77063	-11.57931	7.37969
21.77468	-11.57931	7.37969
21.77874	-11.57931	7.37969
21.78280	-11.57931	7.37969
21.78685	-11.57931	7.37969
21.79091	-11.60129	7.37969
21.79497	-11.60129	7.37969
21.79903	-11.60129	7.37969
21.80309	-11.62326	7.37969
21.80715	-11.62326	7.37969
21.81120	-11.62326	7.37969
21.81549	-11.62326	7.37969
21.81954	-11.62326	7.37969
21.82360	-11.62326	7.37969
21.82766	-11.62326	7.37969
21.83172	-11.62326	7.37969
21.83577	-11.64523	7.37969
21.83983	-11.64523	7.37969
21.84390	-11.64523	7.37969
21.84796	-11.66720	7.37969
21.85201	-11.66720	7.37969
21.85604	-11.66720	7.37969
21.86010	-11.66720	7.37969
21.86415	-11.68918	7.37969
21.86821	-11.68918	7.37969
21.87227	-11.66720	7.37969
21.87633	-11.68918	7.37969
21.88039	-11.68918	7.37969
21.88445	-11.68918	7.37969
21.88850	-11.71115	7.37969
21.89256	-11.71115	7.37969
21.89662	-11.68918	7.37969
21.90068	-11.71115	7.37969
21.90473	-11.71115	7.37969
21.90879	-11.71115	7.37969
21.91285	-11.71115	7.37969
21.91714	-11.71115	7.37969
21.92120	-11.71115	7.37969
21.92526	-11.71115	7.37969
21.92932	-11.71115	7.37969
21.93337	-11.71115	7.37969
21.93743	-11.71115	7.37969
21.94149	-11.73312	7.37969
21.94555	-11.73312	7.37969
21.94961	-11.73312	7.37969
21.95367	-11.73312	7.37969
21.95772	-11.73312	7.37969
21.96178	-11.73312	7.37969
21.96584	-11.73312	7.37969
21.96989	-11.75509	7.37969
21.97395	-11.73312	7.37969
21.97801	-11.73312	7.37969
21.98207	-11.73312	7.37969
21.98613	-11.75509	7.37969
21.99019	-11.73312	7.37969
21.99424	-11.73312	7.37969
21.99830	-11.75509	7.37969
22.00236	-11.75509	7.37969
22.00641	-11.73312	7.37969
22.01047	-11.75509	7.37969
22.01453	-11.75509	7.37969
22.01881	-11.75509	7.37969
22.02287	-11.75509	7.37969
22.02692	-11.75509	7.37969
22.03098	-11.75509	7.37969
22.03504	-11.75509	7.37969
22.03910	-11.75509	7.37969
22.04315	-11.75509	7.37969
22.04722	-11.75509	7.37969
22.05128	-11.75509	7.37969
22.05533	-11.75509	7.37969
22.05939	-11.75509	7.37969
22.06345	-11.75509	7.37969
22.06750	-11.75509	7.37969
22.07156	-11.75509	7.37969
22.07562	-11.75509	7.37969
22.07968	-11.75509	7.37969
22.08373	-11.75509	7.37969
22.08779	-11.75509	7.37969
22.09185	-11.75509	7.37969
22.09590	-11.75509	7.37969
22.09996	-11.73312	7.37969
22.10402	-11.75509	7.37969
22.10805	-11.75509	7.37969
22.11211	-11.75509	7.37969
22.11616	-11.73312	7.37969
22.12045	-11.75509	7.37969
22.12451	-11.73312	7.37969
22.12856	-11.73312	7.37969
22.13262	-11.73312	7.37969
22.13668	-11.73312	7.37969
22.14074	-11.73312	7.37969
22.14479	-11.73312	7.37969
22.14886	-11.73312	7.37969
22.15291	-11.73312	7.37969
22.15697	-11.73312	7.37969
22.16103	-11.73312	7.37969
22.16509	-11.73312	7.37969
22.16914	-11.73312	7.37969
22.17320	-11.73312	7.37969
22.17726	-11.71115	7.37969
22.18131	-11.71115	7.37969
22.18537	-11.71115	7.37969
22.18943	-11.71115	7.37969
22.19348	-11.71115	7.37969
22.19754	-11.71115	7.37969
22.20160	-11.71115	7.37969
22.20566	-11.71115	7.37969
22.20971	-11.68918	7.37969
22.21377	-11.68918	7.37969
22.21783	-11.68918	7.37969
22.22214	-11.68918	7.37969
22.22619	-11.68918	7.37969
22.23025	-11.68918	7.37969
22.23431	-11.68918	7.37969
22.23837	-11.66720	7.37969
22.24242	-11.66720	7.37969
22.24648	-11.66720	7.37969
22.25054	-11.66720	7.37969
22.25460	-11.66720	7.37969
22.25866	-11.66720	7.37969
22.26272	-11.64523	7.37969
22.26678	-11.64523	7.37969
22.27083	-11.64523	7.37969
22.27489	-11.64523	7.37969
22.27895	-11.64523	7.37969
22.28301	-11.62326	7.37969
22.28706	-11.62326	7.37969
22.29112	-11.62326	7.37969
22.29518	-11.62326	7.37969
22.29923	-11.60129	7.37969
22.30329	-11.62326	7.37969
22.30735	-11.60129	7.37969
22.31141	-11.60129	7.37969
22.31546	-11.60129	7.37969
22.31952	-11.60129	7.37969
22.32381	-11.57931	7.37969
22.32787	-11.57931	7.37969
22.33193	-11.57931	7.37969
22.33598	-11.55734	7.37969
22.34003	-11.55734	7.37969
22.34409	-11.55734	7.37969
22.34815	-11.53537	7.37969
22.35221	-11.55734	7.37969
22.35627	-11.55734	7.37969
22.36033	-11.53537	7.37969
22.36438	-11.53537	7.37969
22.36844	-11.53537	7.37969
22.37250	-11.53537	7.37969
22.37656	-11.51339	7.37969
22.38062	-11.51339	7.37969
22.38468	-11.51339	7.37969
22.38873	-11.51339	7.37969
22.39279	-11.49142	7.37969
22.39685	-11.49142	7.37969
22.40090	-11.49142	7.37969
22.40496	-11.46945	7.37969
22.40902	-11.46945	7.37969
22.41307	-11.46945	7.37969
22.41713	-11.44748	7.37969
22.42119	-11.44748	7.37969
22.42547	-11.44748	7.37969
22.42953	-11.44748	7.37969
22.43359	-11.44748	7.37969
22.43764	-11.42550	7.37969
22.44170	-11.42550	7.37969
22.44576	-11.42550	7.37969
22.44981	-11.42550	7.37969
22.45388	-11.40353	7.37969
22.45793	-11.40353	7.37969
22.46199	-11.38156	7.37969
22.46605	-11.38156	7.37969
22.47011	-11.38156	7.37969
22.47417	-11.38156	7.37969
22.47822	-11.35959	7.37969
22.48228	-11.35959	7.37969
22.48634	-11.35959	7.37969
22.49040	-11.35959	7.37969
22.49446	-11.35959	7.37969
22.49852	-11.33761	7.37969
22.50258	-11.33761	7.37969
22.50663	-11.31564	7.37969
22.51069	-11.31564	7.37969
22.51475	-11.31564	7.37969
22.51881	-11.31564	7.37969
22.52286	-11.31564	7.37969
22.52715	-11.29367	7.37969
22.53121	-11.29367	7.37969
22.53527	-11.29367	7.37969
22.53932	-11.27170	7.37969
22.54338	-11.27170	7.37969
22.54744	-11.27170	7.37969
22.55150	-11.24972	7.37969
22.55556	-11.24972	7.37969
22.55962	-11.24972	7.37969
22.56368	-11.22775	7.37969
22.56774	-11.22775	7.37969
22.57179	-11.22775	7.37969
22.57585	-11.22775	7.37969
22.57991	-11.20578	7.37969
22.58397	-11.20578	7.37969
22.58802	-11.18381	7.37969
22.59208	-11.18381	7.37969
22.59614	-11.18381	7.37969
22.60020	-11.18381	7.37969
22.60425	-11.18381	7.37969
22.60831	-11.16183	7.37969
22.61237	-11.13986	7.37969
22.61642	-11.13986	7.37969
22.62048	-11.13986	7.37969
22.62454	-11.13986	7.37969
22.62883	-11.11789	7.37969
22.63288	-11.11789	7.37969
22.63694	-11.11789	7.37969
22.64100	-11.09591	7.37969
22.64505	-11.09591	7.37969
22.64911	-11.09591	7.37969
22.65317	-11.09591	7.37969
22.65723	-11.07394	7.37969
22.66129	-11.07394	7.37969
22.66535	-11.07394	7.37969
22.66941	-11.05197	7.37969
22.67346	-11.05197	7.37969
22.67752	-11.05197	7.37969
22.68158	-11.03000	7.37969
22.68563	-11.03000	7.37969
22.68969	-11.03000	7.37969
22.69375	-11.03000	7.37969
22.69780	-11.00802	7.37969
22.70186	-11.00802	7.37969
22.70592	-11.00802	7.37969
22.70998	-11.00802	7.37969
22.71403	-10.98605	7.37969
22.71809	-10.98605	7.37969
22.72215	-10.96408	7.37969
22.72620	-10.96408	7.37969
22.73049	-10.96408	7.37969
22.73455	-10.94211	7.37969
22.73860	-10.94211	7.37969
22.74266	-10.94211	7.37969
22.74672	-10.94211	7.37969
22.75078	-10.92013	7.37969
22.75483	-10.92013	7.37969
22.75890	-10.89816	7.37969
22.76295	-10.89816	7.37969
22.76701	-10.89816	7.37969
22.77107	-10.87619	7.37969
22.77513	-10.87619	7.37969
22.77918	-10.87619	7.37969
22.78324	-10.87619	7.37969
22.78730	-10.85422	7.37969
22.79136	-10.85422	7.37969
22.79541	-10.85422	7.37969
22.79947	-10.83224	7.37969
22.80353	-10.83224	7.37969
22.80758	-10.83224	7.37969
22.81164	-10.81027	7.37969
22.81570	-10.81027	7.37969
22.81976	-10.81027	7.37969
22.82381	-10.78830	7.37969
22.82787	-10.78830	7.37969
22.83217	-10.76632	7.37969
22.83623	-10.76632	7.37969
22.84028	-10.76632	7.37969
22.84434	-10.76632	7.37969
22.84840	-10.74435	7.37969
22.85246	-10.74435	7.37969
22.85651	-10.72238	7.37969
22.86057	-10.72238	7.37969
22.86463	-10.72238	7.37969
22.86869	-10.72238	7.37969
22.87275	-10.70041	7.37969
22.87681	-10.70041	7.37969
22.88087	-10.70041	7.37969
22.88492	-10.67843	7.37969
22.88898	-10.67843	7.37969
22.89304	-10.67843	7.37969
22.89710	-10.65646	7.37969
22.90115	-10.65646	7.37969
22.90521	-10.65646	7.37969
22.90927	-10.65646	7.37969
22.91333	-10.63449	7.37969
22.91738	-10.63449	7.37969
22.92144	-10.63449	7.37969
22.92550	-10.63449	7.37969
22.92955	-10.61252	7.37969
22.93384	-10.61252	7.37969
22.93790	-10.59054	7.37969
22.94196	-10.59054	7.37969
22.94601	-10.59054	7.37969
22.95007	-10.59054	7.37969
22.95413	-10.56857	7.37969
22.95818	-10.56857	7.37969
22.96225	-10.56857	7.37969
22.96631	-10.56857	7.37969
22.97036	-10.54660	7.37969
22.97442	-10.54660	7.37969
22.97848	-10.54660	7.37969
22.98253	-10.54660	7.37969
22.98659	-10.54660	7.37969
22.99065	-10.52463	7.37969
22.99471	-10.52463	7.37969
22.99876	-10.50265	7.37969
23.00282	-10.50265	7.37969
23.00688	-10.50265	7.37969
23.01093	-10.50265	7.37969
23.01499	-10.48068	7.37969
23.01905	-10.48068	7.37969
23.02310	-10.48068	7.37969
23.02716	-10.48068	7.37969
23.03122	-10.48068	7.37969
23.03552	-10.45871	7.37969
23.03958	-10.45871	7.37969
23.04364	-10.45871	7.37969
23.04769	-10.45871	7.37969
23.05175	-10.43673	7.37969
23.05581	-10.43673	7.37969
23.05986	-10.43673	7.37969
23.06393	-10.41476	7.37969
23.06798	-10.43673	7.37969
23.07203	-10.43673	7.37969
23.07609	-10.41476	7.37969
23.08015	-10.41476	7.37969
23.08421	-10.39279	7.37969
23.08826	-10.39279	7.37969
23.09232	-10.39279	7.37969
23.09638	-10.39279	7.37969
23.10043	-10.37082	7.37969
23.10449	-10.39279	7.37969
23.10855	-10.37082	7.37969
23.11261	-10.37082	7.37969
23.11666	-10.37082	7.37969
23.12072	-10.37082	7.37969
23.12478	-10.37082	7.37969
23.12883	-10.34884	7.37969
23.13289	-10.34884	7.37969
23.13718	-10.34884	7.37969
23.14124	-10.34884	7.37969
23.14529	-10.34884	7.37969
23.14935	-10.32687	7.37969
23.15341	-10.34884	7.37969
23.15746	-10.34884	7.37969
23.16152	-10.32687	7.37969
23.16558	-10.32687	7.37969
23.16964	-10.32687	7.37969
23.17370	-10.32687	7.37969
23.17776	-10.32687	7.37969
23.18181	-10.32687	7.37969
23.18587	-10.30490	7.37969
23.18993	-10.30490	7.37969
23.19398	-10.30490	7.37969
23.19804	-10.30490	7.37969
23.20210	-10.30490	7.37969
23.20616	-10.30490	7.37969
23.21021	-10.28293	7.37969
23.21427	-10.30490	7.37969
23.21834	-10.28293	7.37969
23.22240	-10.28293	7.37969
23.22645	-10.28293	7.37969
23.23051	-10.28293	7.37969
23.23457	-10.28293	7.37969
23.23885	-10.28293	7.37969
23.24291	-10.28293	7.37969
23.24697	-10.28293	7.37969
23.25102	-10.28293	7.37969
23.25508	-10.28293	7.37969
23.25914	-10.28293	7.37969
23.26320	-10.28293	7.37969
23.26726	-10.28293	7.37969
23.27132	-10.28293	7.37969
23.27538	-10.28293	7.37969
23.27943	-10.28293	7.37969
23.28349	-10.26095	7.37969
23.28755	-10.28293	7.37969
23.29161	-10.26095	7.37969
23.29566	-10.26095	7.37969
23.29972	-10.28293	7.37969
23.30378	-10.28293	7.37969
23.30783	-10.26095	7.37969
23.31189	-10.28293	7.37969
23.31595	-10.26095	7.37969
23.32001	-10.26095	7.37969
23.32403	-10.26095	7.37969
23.32809	-10.26095	7.37969
23.33215	-10.26095	7.37969
23.33621	-10.28293	7.37969
23.34049	-10.26095	7.37969
23.34455	-10.28293	7.37969
23.34861	-10.28293	7.37969
23.35266	-10.26095	7.37969
23.35672	-10.28293	7.37969
23.36078	-10.28293	7.37969
23.36483	-10.28293	7.37969
23.36890	-10.28293	7.37969
23.37296	-10.28293	7.37969
23.37702	-10.28293	7.37969
23.38108	-10.28293	7.37969
23.38513	-10.28293	7.37969
23.38919	-10.28293	7.37969
23.39325	-10.28293	7.37969
23.39731	-10.28293	7.37969
23.40136	-10.28293	7.37969
23.40542	-10.28293	7.37969
23.40948	-10.30490	7.37969
23.41354	-10.30490	7.37969
23.41759	-10.28293	7.37969
23.42165	-10.30490	7.37969
23.42571	-10.30490	7.37969
23.42976	-10.30490	7.37969
23.43382	-10.30490	7.37969
23.43788	-10.30490	7.37969
23.44217	-10.30490	7.37969
23.44622	-10.30490	7.37969
23.45028	-10.32687	7.37969
23.45434	-10.32687	7.37969
23.45840	-10.32687	7.37969
23.46245	-10.32687	7.37969
23.46651	-10.32687	7.37969
23.47057	-10.32687	7.37969
23.47463	-10.32687	7.37969
23.47869	-10.32687	7.37969
23.48275	-10.34884	7.37969
23.48680	-10.34884	7.37969
23.49086	-10.34884	7.37969
23.49492	-10.34884	7.37969
23.49900	-10.34884	7.37969
23.50306	-10.34884	7.37969
23.50712	-10.37082	7.37969
23.51117	-10.37082	7.37969
23.51523	-10.37082	7.37969
23.51929	-10.37082	7.37969
23.52334	-10.37082	7.37969
23.52740	-10.39279	7.37969
23.53146	-10.37082	7.37969
23.53552	-10.39279	7.37969
23.53957	-10.39279	7.37969
23.54386	-10.39279	7.37969
23.54792	-10.39279	7.37969
23.55197	-10.41476	7.37969
23.55603	-10.41476	7.37969
23.56009	-10.41476	7.37969
23.56415	-10.41476	7.37969
23.56821	-10.43673	7.37969
23.57227	-10.43673	7.37969
23.57633	-10.43673	7.37969
23.58038	-10.45871	7.37969
23.58444	-10.45871	7.37969
23.58850	-10.45871	7.37969
23.59255	-10.45871	7.37969
23.59661	-10.45871	7.37969
23.60067	-10.48068	7.37969
23.60473	-10.48068	7.37969
23.60878	-10.48068	7.37969
23.61284	-10.48068	7.37969
23.61690	-10.48068	7.37969
23.62095	-10.48068	7.37969
23.62501	-10.50265	7.37969
23.62907	-10.50265	7.37969
23.63312	-10.50265	7.37969
23.63718	-10.50265	7.37969
23.64124	-10.50265	7.37969
23.64552	-10.52463	7.37969
23.64958	-10.52463	7.37969
23.65364	-10.52463	7.37969
23.65769	-10.52463	7.37969
23.66175	-10.52463	7.37969
23.66581	-10.54660	7.37969
23.66986	-10.54660	7.37969
23.67393	-10.54660	7.37969
23.67798	-10.54660	7.37969
23.68204	-10.54660	7.37969
23.68610	-10.56857	7.37969
23.69016	-10.54660	7.37969
23.69421	-10.54660	7.37969
23.69827	-10.56857	7.37969
23.70233	-10.56857	7.37969
23.70638	-10.56857	7.37969
23.71044	-10.59054	7.37969
23.71450	-10.59054	7.37969
23.71855	-10.59054	7.37969
23.72261	-10.59054	7.37969
23.72667	-10.61252	7.37969
23.73073	-10.61252	7.37969
23.73478	-10.61252	7.37969
23.73884	-10.61252	7.37969
23.74290	-10.61252	7.37969
23.74718	-10.61252	7.37969
23.75124	-10.63449	7.37969
23.75529	-10.63449	7.37969
23.75935	-10.63449	7.37969
23.76341	-10.63449	7.37969
23.76747	-10.65646	7.37969
23.77152	-10.65646	7.37969
23.77559	-10.65646	7.37969
23.77964	-10.65646	7.37969
23.78370	-10.65646	7.37969
23.78776	-10.67843	7.37969
23.79182	-10.67843	7.37969
23.79587	-10.67843	7.37969
23.79993	-10.67843	7.37969
23.80399	-10.67843	7.37969
23.80803	-10.70041	7.37969
23.81209	-10.70041	7.37969
23.81615	-10.70041	7.37969
23.82020	-10.70041	7.37969
23.82426	-10.70041	7.37969
23.82832	-10.72238	7.37969
23.83238	-10.72238	7.37969
23.83643	-10.74435	7.37969
23.84049	-10.74435	7.37969
23.84455	-10.72238	7.37969
23.84883	-10.74435	7.37969
23.85289	-10.74435	7.37969
23.85694	-10.74435	7.37969
23.86100	-10.74435	7.37969
23.86506	-10.76632	7.37969
23.86911	-10.76632	7.37969
23.87317	-10.76632	7.37969
23.87724	-10.76632	7.37969
23.88130	-10.76632	7.37969
23.88536	-10.76632	7.37969
23.88942	-10.78830	7.37969
23.89348	-10.78830	7.37969
23.89753	-10.78830	7.37969
23.90159	-10.81027	7.37969
23.90565	-10.81027	7.37969
23.90970	-10.81027	7.37969
23.91376	-10.81027	7.37969
23.91782	-10.83224	7.37969
23.92188	-10.83224	7.37969
23.92593	-10.83224	7.37969
23.92999	-10.83224	7.37969
23.93405	-10.83224	7.37969
23.93810	-10.85422	7.37969
23.94216	-10.85422	7.37969
23.94622	-10.85422	7.37969
23.95050	-10.85422	7.37969
23.95456	-10.85422	7.37969
23.95862	-10.87619	7.37969
23.96267	-10.87619	7.37969
23.96673	-10.87619	7.37969
23.97079	-10.87619	7.37969
23.97484	-10.87619	7.37969
23.97891	-10.87619	7.37969
23.98296	-10.89816	7.37969
23.98702	-10.89816	7.37969
23.99108	-10.89816	7.37969
23.99514	-10.92013	7.37969
23.99919	-10.92013	7.37969
24.00325	-10.92013	7.37969
24.00731	-10.92013	7.37969
24.01136	-10.92013	7.37969
24.01542	-10.92013	7.37969
24.01948	-10.92013	7.37969
24.02353	-10.94211	7.37969
24.02759	-10.94211	7.37969
24.03165	-10.94211	7.37969
24.03571	-10.94211	7.37969
24.03976	-10.94211	7.37969
24.04382	-10.94211	7.37969
24.04788	-10.96408	7.37969
24.05218	-10.96408	7.37969
24.05623	-10.96408	7.37969
24.06029	-10.96408	7.37969
24.06435	-10.98605	7.37969
24.06840	-10.98605	7.37969
24.07246	-10.98605	7.37969
24.07652	-10.98605	7.37969
24.08058	-10.98605	7.37969
24.08464	-10.98605	7.37969
24.08869	-11.00802	7.37969
24.09275	-10.98605	7.37969
24.09681	-11.00802	7.37969
24.10086	-11.00802	7.37969
24.10492	-11.00802	7.37969
24.10898	-11.00802	7.37969
24.11304	-11.00802	7.37969
24.11709	-11.00802	7.37969
24.12115	-11.00802	7.37969
24.12521	-11.03000	7.37969
24.12926	-11.03000	7.37969
24.13332	-11.03000	7.37969
24.13738	-11.03000	7.37969
24.14143	-11.03000	7.37969
24.14549	-11.03000	7.37969
24.14955	-11.03000	7.37969
24.15383	-11.05197	7.37969
24.15789	-11.05197	7.37969
24.16195	-11.05197	7.37969
24.16600	-11.05197	7.37969
24.17006	-11.05197	7.37969
24.17412	-11.05197	7.37969
24.17817	-11.07394	7.37969
24.18224	-11.05197	7.37969
24.18630	-11.05197	7.37969
24.19035	-11.05197	7.37969
24.19441	-11.07394	7.37969
24.19847	-11.07394	7.37969
24.20252	-11.07394	7.37969
24.20658	-11.07394	7.37969
24.21064	-11.07394	7.37969
24.21470	-11.07394	7.37969
24.21876	-11.07394	7.37969
24.22282	-11.07394	7.37969
24.22688	-11.07394	7.37969
24.23093	-11.07394	7.37969
24.23499	-11.09591	7.37969
24.23905	-11.09591	7.37969
24.24311	-11.09591	7.37969
24.24716	-11.09591	7.37969
24.25122	-11.09591	7.37969
24.25551	-11.09591	7.37969
24.25957	-11.09591	7.37969
24.26362	-11.09591	7.37969
24.26768	-11.09591	7.37969
24.27174	-11.09591	7.37969
24.27579	-11.11789	7.37969
24.27985	-11.11789	7.37969
24.28392	-11.11789	7.37969
24.28797	-11.11789	7.37969
24.29206	-11.11789	7.37969
24.29612	-11.11789	7.37969
24.30018	-11.11789	7.37969
24.30424	-11.11789	7.37969
24.30829	-11.11789	7.37969
24.31236	-11.11789	7.37969
24.31641	-11.11789	7.37969
24.32047	-11.11789	7.37969
24.32453	-11.11789	7.37969
24.32859	-11.11789	7.37969
24.33264	-11.11789	7.37969
24.33670	-11.13986	7.37969
24.34076	-11.11789	7.37969
24.34482	-11.11789	7.37969
24.34887	-11.13986	7.37969
24.35293	-11.13986	7.37969
24.35723	-11.13986	7.37969
24.36129	-11.13986	7.37969
24.36535	-11.13986	7.37969
24.36941	-11.13986	7.37969
24.37347	-11.13986	7.37969
24.37752	-11.13986	7.37969
24.38158	-11.13986	7.37969
24.38566	-11.13986	7.37969
24.38972	-11.13986	7.37969
24.39381	-11.13986	7.37969
24.39787	-11.13986	7.37969
24.40192	-11.13986	7.37969
24.40600	-11.13986	7.37969
24.41006	-11.13986	7.37969
24.41412	-11.13986	7.37969
24.41818	-11.13986	7.37969
24.42223	-11.13986	7.37969
24.42629	-11.13986	7.37969
24.43035	-11.13986	7.37969
24.43441	-11.13986	7.37969
24.43846	-11.16183	7.37969
24.44252	-11.16183	7.37969
24.44657	-11.13986	7.37969
24.45063	-11.13986	7.37969
24.45469	-11.13986	7.37969
24.45897	-11.16183	7.37969
24.46303	-11.16183	7.37969
24.46709	-11.13986	7.37969
24.47115	-11.13986	7.37969
24.47521	-11.16183	7.37969
24.47927	-11.16183	7.37969
24.48332	-11.16183	7.37969
24.48740	-11.16183	7.37969
24.49147	-11.16183	7.37969
24.49553	-11.16183	7.37969
24.49959	-11.16183	7.37969
24.50364	-11.16183	7.37969
24.50770	-11.16183	7.37969
24.51176	-11.16183	7.37969
24.51582	-11.16183	7.37969
24.51988	-11.18381	7.37969
24.52394	-11.16183	7.37969
24.52799	-11.16183	7.37969
24.53203	-11.16183	7.37969
24.53609	-11.18381	7.37969
24.54015	-11.18381	7.37969
24.54420	-11.18381	7.37969
24.54826	-11.18381	7.37969
24.55232	-11.18381	7.37969
24.55637	-11.18381	7.37969
24.56066	-11.18381	7.37969
24.56472	-11.18381	7.37969
24.56877	-11.18381	7.37969
24.57283	-11.18381	7.37969
24.57689	-11.18381	7.37969
24.58095	-11.18381	7.37969
24.58500	-11.18381	7.37969
24.58909	-11.18381	7.37969
24.59315	-11.18381	7.37969
24.59721	-11.18381	7.37969
24.60126	-11.20578	7.37969
24.60532	-11.20578	7.37969
24.60938	-11.20578	7.37969
24.61343	-11.20578	7.37969
24.61750	-11.20578	7.37969
24.62155	-11.20578	7.37969
24.62561	-11.20578	7.37969
24.62967	-11.20578	7.37969
24.63372	-11.20578	7.37969
24.63778	-11.20578	7.37969
24.64184	-11.22775	7.37969
24.64589	-11.22775	7.37969
24.64995	-11.22775	7.37969
24.65401	-11.20578	7.37969
24.65806	-11.20578	7.37969
24.66236	-11.22775	7.37969
24.66642	-11.22775	7.37969
24.67048	-11.22775	7.37969
24.67454	-11.22775	7.37969
24.67860	-11.22775	7.37969
24.68266	-11.22775	7.37969
24.68671	-11.22775	7.37969
24.69080	-11.22775	7.37969
24.69486	-11.22775	7.37969
24.69892	-11.22775	7.37969
24.70298	-11.22775	7.37969
24.70704	-11.22775	7.37969
24.71110	-11.22775	7.37969
24.71516	-11.24972	7.37969
24.71922	-11.24972	7.37969
24.72327	-11.22775	7.37969
24.72733	-11.24972	7.37969
24.73139	-11.22775	7.37969
24.73545	-11.24972	7.37969
24.73950	-11.24972	7.37969
24.74356	-11.24972	7.37969
24.74762	-11.22775	7.37969
24.75167	-11.24972	7.37969
24.75573	-11.24972	7.37969
24.75979	-11.22775	7.37969
24.76408	-11.22775	7.37969
24.76814	-11.24972	7.37969
24.77220	-11.22775	7.37969
24.77626	-11.24972	7.37969
24.78031	-11.24972	7.37969
24.78437	-11.24972	7.37969
24.78843	-11.24972	7.37969
24.79251	-11.24972	7.37969
24.79657	-11.24972	7.37969
24.80063	-11.24972	7.37969
24.80469	-11.24972	7.37969
24.80875	-11.24972	7.37969
24.81280	-11.24972	7.37969
24.81686	-11.22775	7.37969
24.82092	-11.24972	7.37969
24.82498	-11.24972	7.37969
24.82904	-11.24972	7.37969
24.83309	-11.22775	7.37969
24.83715	-11.24972	7.37969
24.84121	-11.22775	7.37969
24.84526	-11.24972	7.37969
24.84932	-11.24972	7.37969
24.85338	-11.22775	7.37969
24.85743	-11.24972	7.37969
24.86149	-11.24972	7.37969
24.86577	-11.22775	7.37969
24.86983	-11.22775	7.37969
24.87389	-11.22775	7.37969
24.87795	-11.24972	7.37969
24.88201	-11.22775	7.37969
24.88607	-11.22775	7.37969
24.89013	-11.22775	7.37969
24.89421	-11.22775	7.37969
24.89827	-11.22775	7.37969
24.90233	-11.22775	7.37969
24.90639	-11.22775	7.37969
24.91045	-11.22775	7.37969
24.91451	-11.22775	7.37969
24.91856	-11.22775	7.37969
24.92262	-11.22775	7.37969
24.92668	-11.22775	7.37969
24.93074	-11.22775	7.37969
24.93480	-11.22775	7.37969
24.93885	-11.22775	7.37969
24.94291	-11.22775	7.37969
24.94697	-11.22775	7.37969
24.95102	-11.20578	7.37969
24.95508	-11.20578	7.37969
24.95914	-11.20578	7.37969
24.96319	-11.22775	7.37969
24.96748	-11.20578	7.37969
24.97154	-11.22775	7.37969
24.97559	-11.20578	7.37969
24.97966	-11.20578	7.37969
24.98372	-11.20578	7.37969
24.98778	-11.20578	7.37969
24.99183	-11.20578	7.37969
24.99592	-11.20578	7.37969
24.99998	-11.20578	7.37969
25.00403	-11.20578	7.37969
25.00810	-11.20578	7.37969
25.01215	-11.20578	7.37969
25.01621	-11.20578	7.37969
25.02027	-11.20578	7.37969
25.02433	-11.18381	7.37969
25.02839	-11.18381	7.37969
25.03244	-11.18381	7.37969
25.03650	-11.18381	7.37969
25.04056	-11.18381	7.37969
25.04461	-11.18381	7.37969
25.04867	-11.18381	7.37969
25.05273	-11.18381	7.37969
25.05678	-11.18381	7.37969
25.06084	-11.18381	7.37969
25.06490	-11.18381	7.37969
25.06918	-11.18381	7.37969
25.07324	-11.18381	7.37969
25.07730	-11.18381	7.37969
25.08136	-11.18381	7.37969
25.08542	-11.18381	7.37969
25.08947	-11.16183	7.37969
25.09353	-11.18381	7.37969
25.09761	-11.18381	7.37969
25.10167	-11.16183	7.37969
25.10581	-11.16183	7.37969
25.10987	-11.16183	7.37969
25.11393	-11.16183	7.37969
25.11798	-11.16183	7.37969
25.12204	-11.16183	7.37969
25.12610	-11.16183	7.37969
25.13016	-11.16183	7.37969
25.13421	-11.13986	7.37969
25.13827	-11.16183	7.37969
25.14233	-11.13986	7.37969
25.14638	-11.13986	7.37969
25.15044	-11.13986	7.37969
25.15450	-11.16183	7.37969
25.15855	-11.13986	7.37969
25.16261	-11.13986	7.37969
25.16667	-11.13986	7.37969
25.17096	-11.11789	7.37969
25.17502	-11.11789	7.37969
25.17907	-11.13986	7.37969
25.18313	-11.13986	7.37969
25.18719	-11.11789	7.37969
25.19124	-11.11789	7.37969
25.19530	-11.11789	7.37969
25.19936	-11.11789	7.37969
25.20342	-11.11789	7.37969
25.20748	-11.11789	7.37969
25.21154	-11.11789	7.37969
25.21560	-11.11789	7.37969
25.21966	-11.11789	7.37969
25.22372	-11.11789	7.37969
25.22777	-11.09591	7.37969
25.23183	-11.09591	7.37969
25.23589	-11.09591	7.37969
25.23994	-11.09591	7.37969
25.24400	-11.09591	7.37969
25.24804	-11.09591	7.37969
25.25209	-11.09591	7.37969
25.25615	-11.07394	7.37969
25.26021	-11.07394	7.37969
25.26427	-11.09591	7.37969
25.26832	-11.07394	7.37969
25.27262	-11.07394	7.37969
25.27668	-11.07394	7.37969
25.28074	-11.07394	7.37969
25.28480	-11.07394	7.37969
25.28885	-11.07394	7.37969
25.29291	-11.05197	7.37969
25.29697	-11.05197	7.37969
25.30103	-11.05197	7.37969
25.30509	-11.05197	7.37969
25.30915	-11.05197	7.37969
25.31321	-11.05197	7.37969
25.31727	-11.05197	7.37969
25.32132	-11.03000	7.37969
25.32538	-11.03000	7.37969
25.32944	-11.03000	7.37969
25.33350	-11.03000	7.37969
25.33756	-11.00802	7.37969
25.34161	-11.00802	7.37969
25.34567	-11.00802	7.37969
25.34973	-11.00802	7.37969
25.35378	-11.00802	7.37969
25.35784	-11.00802	7.37969
25.36190	-11.00802	7.37969
25.36596	-10.98605	7.37969
25.37001	-10.98605	7.37969
25.37431	-10.98605	7.37969
25.37836	-10.96408	7.37969
25.38242	-10.98605	7.37969
25.38648	-10.98605	7.37969
25.39054	-10.96408	7.37969
25.39459	-10.96408	7.37969
25.39865	-10.96408	7.37969
25.40271	-10.94211	7.37969
25.40678	-10.94211	7.37969
25.41084	-10.94211	7.37969
25.41489	-10.94211	7.37969
25.41895	-10.94211	7.37969
25.42301	-10.92013	7.37969
25.42707	-10.92013	7.37969
25.43112	-10.92013	7.37969
25.43518	-10.92013	7.37969
25.43924	-10.92013	7.37969
25.44330	-10.89816	7.37969
25.44735	-10.89816	7.37969
25.45141	-10.89816	7.37969
25.45547	-10.89816	7.37969
25.45952	-10.89816	7.37969
25.46358	-10.87619	7.37969
25.46764	-10.87619	7.37969
25.47169	-10.87619	7.37969
25.47598	-10.85422	7.37969
25.48004	-10.85422	7.37969
25.48409	-10.85422	7.37969
25.48816	-10.85422	7.37969
25.49222	-10.85422	7.37969
25.49627	-10.85422	7.37969
25.50033	-10.83224	7.37969
25.50439	-10.83224	7.37969
25.50845	-10.83224	7.37969
25.51251	-10.81027	7.37969
25.51657	-10.81027	7.37969
25.52063	-10.81027	7.37969
25.52468	-10.81027	7.37969
25.52874	-10.81027	7.37969
25.53280	-10.81027	7.37969
25.53686	-10.81027	7.37969
25.54091	-10.78830	7.37969
25.54497	-10.78830	7.37969
25.54903	-10.78830	7.37969
25.55308	-10.76632	7.37969
25.55714	-10.76632	7.37969
25.56120	-10.76632	7.37969
25.56526	-10.76632	7.37969
25.56931	-10.74435	7.37969
25.57337	-10.74435	7.37969
25.57767	-10.74435	7.37969
25.58173	-10.76632	7.37969
25.58578	-10.74435	7.37969
25.58984	-10.74435	7.37969
25.59390	-10.72238	7.37969
25.59795	-10.72238	7.37969
25.60201	-10.72238	7.37969
25.60608	-10.72238	7.37969
25.61014	-10.72238	7.37969
25.61420	-10.70041	7.37969
25.61826	-10.70041	7.37969
25.62232	-10.70041	7.37969
25.62637	-10.70041	7.37969
25.63043	-10.70041	7.37969
25.63449	-10.67843	7.37969
25.63854	-10.67843	7.37969
25.64260	-10.67843	7.37969
25.64666	-10.67843	7.37969
25.65072	-10.67843	7.37969
25.65477	-10.67843	7.37969
25.65883	-10.65646	7.37969
25.66289	-10.65646	7.37969
25.66694	-10.65646	7.37969
25.67100	-10.65646	7.37969
25.67506	-10.65646	7.37969
25.67935	-10.65646	7.37969
25.68341	-10.63449	7.37969
25.68746	-10.63449	7.37969
25.69152	-10.63449	7.37969
25.69558	-10.63449	7.37969
25.69964	-10.63449	7.37969
25.70369	-10.61252	7.37969
25.70776	-10.61252	7.37969
25.71182	-10.61252	7.37969
25.71588	-10.63449	7.37969
25.71994	-10.61252	7.37969
25.72400	-10.61252	7.37969
25.72803	-10.61252	7.37969
25.73209	-10.61252	7.37969
25.73615	-10.61252	7.37969
25.74021	-10.61252	7.37969
25.74426	-10.59054	7.37969
25.74832	-10.59054	7.37969
25.75238	-10.59054	7.37969
25.75643	-10.59054	7.37969
25.76049	-10.59054	7.37969
25.76455	-10.59054	7.37969
25.76861	-10.59054	7.37969
25.77266	-10.59054	7.37969
25.77672	-10.59054	7.37969
25.78101	-10.56857	7.37969
25.78507	-10.59054	7.37969
25.78913	-10.56857	7.37969
25.79318	-10.56857	7.37969
25.79724	-10.56857	7.37969
25.80130	-10.56857	7.37969
25.80536	-10.56857	7.37969
25.80942	-10.56857	7.37969
25.81348	-10.56857	7.37969
25.81754	-10.56857	7.37969
25.82160	-10.56857	7.37969
25.82566	-10.56857	7.37969
25.82971	-10.54660	7.37969
25.83377	-10.54660	7.37969
25.83783	-10.54660	7.37969
25.84189	-10.54660	7.37969
25.84594	-10.54660	7.37969
25.85000	-10.54660	7.37969
25.85406	-10.54660	7.37969
25.85811	-10.54660	7.37969
25.86217	-10.54660	7.37969
25.86623	-10.54660	7.37969
25.87029	-10.54660	7.37969
25.87434	-10.54660	7.37969
25.87840	-10.54660	7.37969
25.88269	-10.54660	7.37969
25.88675	-10.54660	7.37969
25.89081	-10.54660	7.37969
25.89487	-10.52463	7.37969
25.89893	-10.52463	7.37969
25.90298	-10.54660	7.37969
25.90705	-10.54660	7.37969
25.91111	-10.54660	7.37969
25.91517	-10.52463	7.37969
25.91923	-10.52463	7.37969
25.92329	-10.52463	7.37969
25.92735	-10.52463	7.37969
25.93140	-10.52463	7.37969
25.93546	-10.52463	7.37969
25.93952	-10.52463	7.37969
25.94358	-10.52463	7.37969
25.94763	-10.52463	7.37969
25.95169	-10.52463	7.37969
25.95575	-10.52463	7.37969
25.95980	-10.52463	7.37969
25.96386	-10.52463	7.37969
25.96792	-10.52463	7.37969
25.97197	-10.52463	7.37969
25.97603	-10.52463	7.37969
25.98009	-10.52463	7.37969
25.98439	-10.52463	7.37969
25.98844	-10.52463	7.37969
25.99250	-10.52463	7.37969
25.99656	-10.52463	7.37969
26.00062	-10.52463	7.37969
26.00468	-10.52463	7.37969
26.00874	-10.52463	7.37969
26.01280	-10.52463	7.37969
26.01686	-10.52463	7.37969
26.02092	-10.52463	7.37969
26.02497	-10.52463	7.37969
26.02903	-10.52463	7.37969
26.03309	-10.52463	7.37969
26.03715	-10.52463	7.37969
26.04120	-10.52463	7.37969
26.04526	-10.52463	7.37969
26.04932	-10.52463	7.37969
26.05337	-10.52463	7.37969
26.05743	-10.52463	7.37969
26.06149	-10.52463	7.37969
26.06555	-10.52463	7.37969
26.06960	-10.52463	7.37969
26.07366	-10.52463	7.37969
26.07772	-10.52463	7.37969
26.08177	-10.54660	7.37969
26.08607	-10.52463	7.37969
26.09013	-10.52463	7.37969
26.09418	-10.54660	7.37969
26.09824	-10.54660	7.37969
26.10230	-10.54660	7.37969
26.10636	-10.54660	7.37969
26.11042	-10.54660	7.37969
26.11448	-10.54660	7.37969
26.11854	-10.54660	7.37969
26.12260	-10.54660	7.37969
26.12666	-10.54660	7.37969
26.13071	-10.54660	7.37969
26.13477	-10.54660	7.37969
26.13883	-10.54660	7.37969
26.14289	-10.54660	7.37969
26.14694	-10.56857	7.37969
26.15100	-10.54660	7.37969
26.15506	-10.54660	7.37969
26.15911	-10.54660	7.37969
26.16317	-10.56857	7.37969
26.16723	-10.56857	7.37969
26.17129	-10.56857	7.37969
26.17534	-10.56857	7.37969
26.17940	-10.56857	7.37969
26.18346	-10.56857	7.37969
26.18774	-10.56857	7.37969
26.19180	-10.56857	7.37969
26.19586	-10.56857	7.37969
26.19992	-10.56857	7.37969
26.20397	-10.59054	7.37969
26.20804	-10.56857	7.37969
26.21210	-10.59054	7.37969
26.21616	-10.59054	7.37969
26.22022	-10.59054	7.37969
26.22428	-10.59054	7.37969
26.22834	-10.59054	7.37969
26.23239	-10.59054	7.37969
26.23645	-10.59054	7.37969
26.24051	-10.61252	7.37969
26.24456	-10.61252	7.37969
26.24862	-10.61252	7.37969
26.25268	-10.61252	7.37969
26.25674	-10.61252	7.37969
26.26079	-10.61252	7.37969
26.26485	-10.61252	7.37969
26.26891	-10.61252	7.37969
26.27296	-10.61252	7.37969
26.27703	-10.61252	7.37969
26.28120	-10.63449	7.37969
26.28528	-10.63449	7.37969
26.28958	-10.63449	7.37969
26.29364	-10.63449	7.37969
26.29769	-10.63449	7.37969
26.30176	-10.63449	7.37969
26.30582	-10.63449	7.37969
26.30988	-10.63449	7.37969
26.31393	-10.65646	7.37969
26.31801	-10.65646	7.37969
26.32207	-10.65646	7.37969
26.32617	-10.65646	7.37969
26.33023	-10.65646	7.37969
26.33429	-10.65646	7.37969
26.33834	-10.67843	7.37969
26.34240	-10.65646	7.37969
26.34647	-10.65646	7.37969
26.35053	-10.67843	7.37969
26.35458	-10.67843	7.37969
26.35864	-10.67843	7.37969
26.36270	-10.67843	7.37969
26.36675	-10.67843	7.37969
26.37081	-10.67843	7.37969
26.37487	-10.70041	7.37969
26.37893	-10.67843	7.37969
26.38298	-10.70041	7.37969
26.38704	-10.70041	7.37969
26.39133	-10.70041	7.37969
26.39540	-10.70041	7.37969
26.39945	-10.70041	7.37969
26.40352	-10.70041	7.37969
26.40758	-10.72238	7.37969
26.41164	-10.72238	7.37969
26.41569	-10.72238	7.37969
26.41978	-10.72238	7.37969
26.42385	-10.72238	7.37969
26.42790	-10.72238	7.37969
26.43196	-10.72238	7.37969
26.43602	-10.72238	7.37969
26.44004	-10.74435	7.37969
26.44409	-10.74435	7.37969
26.44815	-10.74435	7.37969
26.45221	-10.74435	7.37969
26.45627	-10.74435	7.37969
26.46033	-10.74435	7.37969
26.46438	-10.76632	7.37969
26.46844	-10.74435	7.37969
26.47249	-10.76632	7.37969
26.47655	-10.76632	7.37969
26.48061	-10.76632	7.37969
26.48466	-10.76632	7.37969
26.48872	-10.76632	7.37969
26.49301	-10.76632	7.37969
26.49706	-10.78830	7.37969
26.50112	-10.78830	7.37969
26.50518	-10.78830	7.37969
26.50924	-10.78830	7.37969
26.51330	-10.78830	7.37969
26.51736	-10.81027	7.37969
26.52144	-10.81027	7.37969
26.52550	-10.81027	7.37969
26.52956	-10.81027	7.37969
26.53361	-10.81027	7.37969
26.53767	-10.81027	7.37969
26.54173	-10.81027	7.37969
26.54578	-10.81027	7.37969
26.54985	-10.83224	7.37969
26.55390	-10.83224	7.37969
26.55796	-10.83224	7.37969
26.56202	-10.83224	7.37969
26.56607	-10.83224	7.37969
26.57013	-10.83224	7.37969
26.57419	-10.83224	7.37969
26.57824	-10.85422	7.37969
26.58230	-10.85422	7.37969
26.58635	-10.85422	7.37969
26.59041	-10.85422	7.37969
26.59470	-10.85422	7.37969
26.59876	-10.87619	7.37969
26.60281	-10.85422	7.37969
26.60688	-10.85422	7.37969
26.61093	-10.87619	7.37969
26.61500	-10.87619	7.37969
26.61906	-10.87619	7.37969
26.62314	-10.87619	7.37969
26.62720	-10.87619	7.37969
26.63126	-10.87619	7.37969
26.63532	-10.89816	7.37969
26.63938	-10.89816	7.37969
26.64343	-10.92013	7.37969
26.64749	-10.92013	7.37969
26.65155	-10.89816	7.37969
26.65561	-10.92013	7.37969
26.65967	-10.92013	7.37969
26.66373	-10.92013	7.37969
26.66778	-10.92013	7.37969
26.67184	-10.92013	7.37969
26.67590	-10.92013	7.37969
26.67995	-10.94211	7.37969
26.68401	-10.92013	7.37969
26.68803	-10.94211	7.37969
26.69209	-10.94211	7.37969
26.69638	-10.94211	7.37969
26.70044	-10.94211	7.37969
26.70449	-10.96408	7.37969
26.70856	-10.96408	7.37969
26.71261	-10.96408	7.37969
26.71668	-10.96408	7.37969
26.72074	-10.96408	7.37969
26.72481	-10.96408	7.37969
26.72888	-10.96408	7.37969
26.73293	-10.98605	7.37969
26.73699	-10.98605	7.37969
26.74105	-10.98605	7.37969
26.74510	-10.98605	7.37969
26.74916	-10.98605	7.37969
26.75322	-11.00802	7.37969
26.75728	-11.00802	7.37969
26.76134	-11.00802	7.37969
26.76540	-11.00802	7.37969
26.76945	-11.00802	7.37969
26.77351	-11.03000	7.37969
26.77757	-11.03000	7.37969
26.78163	-11.00802	7.37969
26.78569	-11.03000	7.37969
26.78974	-11.03000	7.37969
26.79380	-11.03000	7.37969
26.79809	-11.03000	7.37969
26.80215	-11.03000	7.37969
26.80621	-11.05197	7.37969
26.81027	-11.05197	7.37969
26.81433	-11.05197	7.37969
26.81842	-11.05197	7.37969
26.82247	-11.05197	7.37969
26.82655	-11.05197	7.37969
26.83062	-11.07394	7.37969
26.83467	-11.07394	7.37969
26.83873	-11.07394	7.37969
26.84279	-11.07394	7.37969
26.84685	-11.07394	7.37969
26.85090	-11.07394	7.37969
26.85496	-11.07394	7.37969
26.85902	-11.09591	7.37969
26.86308	-11.09591	7.37969
26.86714	-11.09591	7.37969
26.87120	-11.09591	7.37969
26.87525	-11.09591	7.37969
26.87931	-11.09591	7.37969
26.88337	-11.11789	7.37969
26.88742	-11.11789	7.37969
26.89148	-11.11789	7.37969
26.89554	-11.11789	7.37969
26.89985	-11.11789	7.37969
26.90391	-11.11789	7.37969
26.90797	-11.13986	7.37969
26.91204	-11.13986	7.37969
26.91610	-11.13986	7.37969
26.92016	-11.13986	7.37969
26.92422	-11.13986	7.37969
26.92829	-11.13986	7.37969
26.93236	-11.13986	7.37969
26.93641	-11.13986	7.37969
26.94047	-11.16183	7.37969
26.94453	-11.16183	7.37969
26.94858	-11.16183	7.37969
26.95264	-11.16183	7.37969
26.95670	-11.16183	7.37969
26.96076	-11.16183	7.37969
26.96482	-11.16183	7.37969
26.96888	-11.18381	7.37969
26.97293	-11.18381	7.37969
26.97699	-11.18381	7.37969
26.98105	-11.18381	7.37969
26.98511	-11.18381	7.37969
26.98916	-11.18381	7.37969
26.99322	-11.20578	7.37969
26.99728	-11.20578	7.37969
27.00158	-11.18381	7.37969
27.00564	-11.20578	7.37969
27.00970	-11.20578	7.37969
27.01376	-11.20578	7.37969
27.01782	-11.20578	7.37969
27.02188	-11.20578	7.37969
27.02594	-11.20578	7.37969
27.03002	-11.20578	7.37969
27.03408	-11.20578	7.37969
27.03814	-11.20578	7.37969
27.04220	-11.20578	7.37969
27.04626	-11.20578	7.37969
27.05032	-11.22775	7.37969
27.05438	-11.20578	7.37969
27.05844	-11.22775	7.37969
27.06250	-11.22775	7.37969
27.06655	-11.22775	7.37969
27.07061	-11.22775	7.37969
27.07467	-11.22775	7.37969
27.07872	-11.22775	7.37969
27.08278	-11.22775	7.37969
27.08684	-11.22775	7.37969
27.09090	-11.22775	7.37969
27.09495	-11.22775	7.37969
27.09901	-11.22775	7.37969
27.10331	-11.22775	7.37969
27.10737	-11.22775	7.37969
27.11143	-11.22775	7.37969
27.11550	-11.22775	7.37969
27.11955	-11.22775	7.37969
27.12362	-11.22775	7.37969
27.12768	-11.22775	7.37969
27.13175	-11.22775	7.37969
27.13581	-11.22775	7.37969
27.13987	-11.22775	7.37969
27.14393	-11.22775	7.37969
27.14799	-11.22775	7.37969
27.15203	-11.22775	7.37969
27.15609	-11.24972	7.37969
27.16015	-11.24972	7.37969
27.16421	-11.22775	7.37969
27.16827	-11.22775	7.37969
27.17232	-11.24972	7.37969
27.17638	-11.22775	7.37969
27.18044	-11.22775	7.37969
27.18449	-11.22775	7.37969
27.18855	-11.22775	7.37969
27.19261	-11.22775	7.37969
27.19666	-11.22775	7.37969
27.20072	-11.22775	7.37969
27.20502	-11.22775	7.37969
27.20907	-11.22775	7.37969
27.21314	-11.22775	7.37969
27.21720	-11.22775	7.37969
27.22126	-11.22775	7.37969
27.22531	-11.22775	7.37969
27.22937	-11.22775	7.37969
27.23345	-11.22775	7.37969
27.23751	-11.22775	7.37969
27.24157	-11.22775	7.37969
27.24563	-11.22775	7.37969
27.24969	-11.22775	7.37969
27.25375	-11.22775	7.37969
27.25781	-11.22775	7.37969
27.26187	-11.20578	7.37969
27.26593	-11.22775	7.37969
27.26998	-11.20578	7.37969
27.27406	-11.20578	7.37969
27.27812	-11.20578	7.37969
27.28218	-11.22775	7.37969
27.28624	-11.20578	7.37969
27.29030	-11.20578	7.37969
27.29435	-11.20578	7.37969
27.29841	-11.20578	7.37969
27.30247	-11.20578	7.37969
27.30677	-11.20578	7.37969
27.31083	-11.20578	7.37969
27.31489	-11.20578	7.37969
27.31895	-11.20578	7.37969
27.32301	-11.20578	7.37969
27.32707	-11.20578	7.37969
27.33113	-11.20578	7.37969
27.33521	-11.20578	7.37969
27.33927	-11.20578	7.37969
27.34333	-11.18381	7.37969
27.34738	-11.18381	7.37969
27.35144	-11.20578	7.37969
27.35550	-11.18381	7.37969
27.35956	-11.18381	7.37969
27.36362	-11.18381	7.37969
27.36767	-11.18381	7.37969
27.37173	-11.18381	7.37969
27.37579	-11.18381	7.37969
27.37985	-11.18381	7.37969
27.38391	-11.18381	7.37969
27.38796	-11.18381	7.37969
27.39202	-11.18381	7.37969
27.39604	-11.18381	7.37969
27.40010	-11.18381	7.37969
27.40415	-11.18381	7.37969
27.40845	-11.16183	7.37969
27.41251	-11.16183	7.37969
27.41656	-11.18381	7.37969
27.42063	-11.16183	7.37969
27.42469	-11.16183	7.37969
27.42875	-11.16183	7.37969
27.43280	-11.16183	7.37969
27.43688	-11.16183	7.37969
27.44094	-11.16183	7.37969
27.44500	-11.16183	7.37969
27.44906	-11.16183	7.37969
27.45312	-11.16183	7.37969
27.45718	-11.16183	7.37969
27.46123	-11.16183	7.37969
27.46530	-11.16183	7.37969
27.46935	-11.16183	7.37969
27.47341	-11.16183	7.37969
27.47747	-11.13986	7.37969
27.48153	-11.13986	7.37969
27.48558	-11.16183	7.37969
27.48964	-11.16183	7.37969
27.49370	-11.13986	7.37969
27.49776	-11.16183	7.37969
27.50181	-11.13986	7.37969
27.50587	-11.13986	7.37969
27.51018	-11.13986	7.37969
27.51424	-11.13986	7.37969
27.51830	-11.13986	7.37969
27.52236	-11.13986	7.37969
27.52642	-11.13986	7.37969
27.53048	-11.13986	7.37969
27.53454	-11.13986	7.37969
27.53862	-11.13986	7.37969
27.54268	-11.13986	7.37969
27.54674	-11.11789	7.37969
27.55079	-11.13986	7.37969
27.55485	-11.13986	7.37969
27.55891	-11.11789	7.37969
27.56297	-11.11789	7.37969
27.56703	-11.11789	7.37969
27.57109	-11.11789	7.37969
27.57515	-11.11789	7.37969
27.57920	-11.11789	7.37969
27.58326	-11.11789	7.37969
27.58732	-11.11789	7.37969
27.59138	-11.11789	7.37969
27.59543	-11.11789	7.37969
27.59949	-11.11789	7.37969
27.60355	-11.09591	7.37969
27.60760	-11.11789	7.37969
27.61191	-11.11789	7.37969
27.61597	-11.11789	7.37969
27.62004	-11.09591	7.37969
27.62410	-11.11789	7.37969
27.62816	-11.09591	7.37969
27.63222	-11.11789	7.37969
27.63627	-11.11789	7.37969
27.64035	-11.11789	7.37969
27.64441	-11.11789	7.37969
27.64847	-11.11789	7.37969
27.65253	-11.09591	7.37969
27.65659	-11.11789	7.37969
27.66064	-11.11789	7.37969
27.66470	-11.09591	7.37969
27.66876	-11.09591	7.37969
27.67282	-11.09591	7.37969
27.67688	-11.09591	7.37969
27.68094	-11.11789	7.37969
27.68499	-11.11789	7.37969
27.68905	-11.09591	7.37969
27.69311	-11.09591	7.37969
27.69717	-11.09591	7.37969
27.70122	-11.09591	7.37969
27.70528	-11.09591	7.37969
27.70934	-11.09591	7.37969
27.71365	-11.09591	7.37969
27.71771	-11.09591	7.37969
27.72176	-11.11789	7.37969
27.72583	-11.11789	7.37969
27.72989	-11.09591	7.37969
27.73395	-11.09591	7.37969
27.73800	-11.09591	7.37969
27.74208	-11.09591	7.37969
27.74614	-11.09591	7.37969
27.75020	-11.09591	7.37969
27.75426	-11.09591	7.37969
27.75832	-11.09591	7.37969
27.76237	-11.09591	7.37969
27.76643	-11.09591	7.37969
27.77049	-11.09591	7.37969
27.77455	-11.09591	7.37969
27.77861	-11.09591	7.37969
27.78266	-11.09591	7.37969
27.78672	-11.09591	7.37969
27.79078	-11.09591	7.37969
27.79484	-11.09591	7.37969
27.79889	-11.09591	7.37969
27.80295	-11.09591	7.37969
27.80701	-11.09591	7.37969
27.81106	-11.09591	7.37969
27.81536	-11.09591	7.37969
27.81943	-11.09591	7.37969
27.82348	-11.09591	7.37969
27.82755	-11.09591	7.37969
27.83161	-11.09591	7.37969
27.83567	-11.09591	7.37969
27.83973	-11.09591	7.37969
27.84381	-11.09591	7.37969
27.84787	-11.09591	7.37969
27.85193	-11.09591	7.37969
27.85599	-11.09591	7.37969
27.86004	-11.09591	7.37969
27.86409	-11.09591	7.37969
27.86815	-11.11789	7.37969
27.87221	-11.11789	7.37969
27.87627	-11.09591	7.37969
27.88033	-11.11789	7.37969
27.88438	-11.11789	7.37969
27.88844	-11.09591	7.37969
27.89250	-11.11789	7.37969
27.89656	-11.11789	7.37969
27.90061	-11.09591	7.37969
27.90467	-11.11789	7.37969
27.90873	-11.11789	7.37969
27.91278	-11.11789	7.37969
27.91709	-11.11789	7.37969
27.92115	-11.11789	7.37969
27.92521	-11.11789	7.37969
27.92927	-11.11789	7.37969
27.93333	-11.11789	7.37969
27.93739	-11.11789	7.37969
27.94144	-11.11789	7.37969
27.94552	-11.11789	7.37969
27.94958	-11.11789	7.37969
27.95365	-11.11789	7.37969
27.95771	-11.11789	7.37969
27.96177	-11.11789	7.37969
27.96582	-11.11789	7.37969
27.96988	-11.11789	7.37969
27.97394	-11.11789	7.37969
27.97800	-11.11789	7.37969
27.98206	-11.11789	7.37969
27.98612	-11.11789	7.37969
27.99017	-11.13986	7.37969
27.99423	-11.11789	7.37969
27.99829	-11.13986	7.37969
28.00235	-11.13986	7.37969
28.00640	-11.11789	7.37969
28.01046	-11.13986	7.37969
28.01452	-11.13986	7.37969
28.01882	-11.13986	7.37969
28.02288	-11.13986	7.37969
28.02694	-11.13986	7.37969
28.03100	-11.13986	7.37969
28.03506	-11.13986	7.37969
28.03912	-11.13986	7.37969
28.04318	-11.13986	7.37969
28.04726	-11.13986	7.37969
28.05132	-11.13986	7.37969
28.05537	-11.13986	7.37969
28.05943	-11.13986	7.37969
28.06349	-11.13986	7.37969
28.06755	-11.13986	7.37969
28.07160	-11.13986	7.37969
28.07567	-11.13986	7.37969
28.07972	-11.13986	7.37969
28.08378	-11.16183	7.37969
28.08784	-11.13986	7.37969
28.09190	-11.13986	7.37969
28.09596	-11.13986	7.37969
28.10001	-11.16183	7.37969
28.10403	-11.13986	7.37969
28.10809	-11.16183	7.37969
28.11215	-11.16183	7.37969
28.11620	-11.16183	7.37969
28.12050	-11.13986	7.37969
28.12457	-11.16183	7.37969
28.12862	-11.13986	7.37969
28.13269	-11.13986	7.37969
28.13674	-11.13986	7.37969
28.14080	-11.16183	7.37969
28.14486	-11.16183	7.37969
28.14893	-11.13986	7.37969
28.15300	-11.16183	7.37969
28.15705	-11.16183	7.37969
28.16111	-11.16183	7.37969
28.16517	-11.13986	7.37969
28.16923	-11.16183	7.37969
28.17329	-11.16183	7.37969
28.17735	-11.16183	7.37969
28.18141	-11.16183	7.37969
28.18547	-11.16183	7.37969
28.18952	-11.16183	7.37969
28.19358	-11.16183	7.37969
28.19764	-11.16183	7.37969
28.20170	-11.16183	7.37969
28.20575	-11.16183	7.37969
28.20981	-11.16183	7.37969
28.21387	-11.16183	7.37969
28.21792	-11.16183	7.37969
28.22222	-11.16183	7.37969
28.22628	-11.16183	7.37969
28.23034	-11.16183	7.37969
28.23441	-11.16183	7.37969
28.23846	-11.16183	7.37969
28.24252	-11.16183	7.37969
28.24658	-11.16183	7.37969
28.25065	-11.16183	7.37969
28.25472	-11.16183	7.37969
28.25877	-11.16183	7.37969
28.26283	-11.16183	7.37969
28.26689	-11.16183	7.37969
28.27094	-11.13986	7.37969
28.27500	-11.16183	7.37969
28.27906	-11.16183	7.37969
28.28313	-11.13986	7.37969
28.28719	-11.13986	7.37969
28.29125	-11.16183	7.37969
28.29530	-11.13986	7.37969
28.29936	-11.13986	7.37969
28.30342	-11.13986	7.37969
28.30748	-11.16183	7.37969
28.31153	-11.13986	7.37969
28.31559	-11.13986	7.37969
28.31965	-11.13986	7.37969
28.32395	-11.13986	7.37969
28.32801	-11.13986	7.37969
28.33203	-11.13986	7.37969
28.33610	-11.13986	7.37969
28.34015	-11.13986	7.37969
28.34421	-11.13986	7.37969
28.34827	-11.13986	7.37969
28.35233	-11.13986	7.37969
28.35639	-11.13986	7.37969
28.36045	-11.13986	7.37969
28.36451	-11.11789	7.37969
28.36857	-11.11789	7.37969
28.37262	-11.11789	7.37969
28.37668	-11.11789	7.37969
28.38074	-11.11789	7.37969
28.38479	-11.11789	7.37969
28.38885	-11.11789	7.37969
28.39291	-11.11789	7.37969
28.39697	-11.09591	7.37969
28.40102	-11.11789	7.37969
28.40508	-11.09591	7.37969
28.40914	-11.11789	7.37969
28.41319	-11.11789	7.37969
28.41725	-11.09591	7.37969
28.42131	-11.09591	7.37969
28.42561	-11.09591	7.37969
28.42967	-11.09591	7.37969
28.43373	-11.09591	7.37969
28.43780	-11.09591	7.37969
28.44185	-11.09591	7.37969
28.44591	-11.07394	7.37969
28.44997	-11.09591	7.37969
28.45403	-11.07394	7.37969
28.45809	-11.07394	7.37969
28.46215	-11.07394	7.37969
28.46621	-11.07394	7.37969
28.47026	-11.07394	7.37969
28.47432	-11.07394	7.37969
28.47838	-11.07394	7.37969
28.48243	-11.05197	7.37969
28.48649	-11.05197	7.37969
28.49055	-11.05197	7.37969
28.49461	-11.05197	7.37969
28.49866	-11.05197	7.37969
28.50272	-11.03000	7.37969
28.50678	-11.05197	7.37969
28.51084	-11.05197	7.37969
28.51489	-11.03000	7.37969
28.51895	-11.03000	7.37969
28.52301	-11.03000	7.37969
28.52732	-11.00802	7.37969
28.53137	-11.03000	7.37969
28.53543	-11.03000	7.37969
28.53949	-11.00802	7.37969
28.54355	-11.00802	7.37969
28.54761	-11.00802	7.37969
28.55167	-11.00802	7.37969
28.55573	-11.00802	7.37969
28.55979	-10.98605	7.37969
28.56385	-10.98605	7.37969
28.56790	-10.98605	7.37969
28.57196	-10.98605	7.37969
28.57602	-10.98605	7.37969
28.58003	-10.98605	7.37969
28.58409	-10.98605	7.37969
28.58815	-10.98605	7.37969
28.59221	-10.96408	7.37969
28.59626	-10.96408	7.37969
28.60032	-10.96408	7.37969
28.60438	-10.96408	7.37969
28.60844	-10.94211	7.37969
28.61249	-10.94211	7.37969
28.61655	-10.94211	7.37969
28.62061	-10.94211	7.37969
28.62467	-10.94211	7.37969
28.62896	-10.94211	7.37969
28.63302	-10.92013	7.37969
28.63708	-10.92013	7.37969
28.64114	-10.92013	7.37969
28.64520	-10.92013	7.37969
28.64925	-10.92013	7.37969
28.65331	-10.89816	7.37969
28.65737	-10.89816	7.37969
28.66143	-10.89816	7.37969
28.66549	-10.87619	7.37969
28.66955	-10.87619	7.37969
28.67361	-10.87619	7.37969
28.67767	-10.87619	7.37969
28.68172	-10.87619	7.37969
28.68578	-10.87619	7.37969
28.68984	-10.87619	7.37969
28.69389	-10.87619	7.37969
28.69795	-10.85422	7.37969
28.70201	-10.85422	7.37969
28.70607	-10.85422	7.37969
28.71012	-10.85422	7.37969
28.71418	-10.85422	7.37969
28.71824	-10.83224	7.37969
28.72229	-10.83224	7.37969
28.72635	-10.83224	7.37969
28.73065	-10.83224	7.37969
28.73471	-10.83224	7.37969
28.73877	-10.83224	7.37969
28.74283	-10.81027	7.37969
28.74688	-10.81027	7.37969
28.75094	-10.81027	7.37969
28.75500	-10.81027	7.37969
28.75906	-10.81027	7.37969
28.76312	-10.78830	7.37969
28.76718	-10.78830	7.37969
28.77124	-10.78830	7.37969
28.77529	-10.78830	7.37969
28.77935	-10.78830	7.37969
28.78341	-10.76632	7.37969
28.78747	-10.76632	7.37969
28.79152	-10.76632	7.37969
28.79558	-10.76632	7.37969
28.79964	-10.76632	7.37969
28.80369	-10.74435	7.37969
28.80775	-10.74435	7.37969
28.81181	-10.74435	7.37969
28.81587	-10.72238	7.37969
28.81992	-10.72238	7.37969
28.82398	-10.72238	7.37969
28.82804	-10.72238	7.37969
28.83233	-10.70041	7.37969
28.83639	-10.70041	7.37969
28.84045	-10.70041	7.37969
28.84451	-10.70041	7.37969
28.84857	-10.70041	7.37969
28.85262	-10.70041	7.37969
28.85668	-10.67843	7.37969
28.86074	-10.67843	7.37969
28.86480	-10.67843	7.37969
28.86886	-10.67843	7.37969
28.87292	-10.65646	7.37969
28.87698	-10.65646	7.37969
28.88104	-10.65646	7.37969
28.88510	-10.65646	7.37969
28.88916	-10.65646	7.37969
28.89322	-10.63449	7.37969
28.89727	-10.61252	7.37969
28.90133	-10.61252	7.37969
28.90539	-10.63449	7.37969
28.90945	-10.59054	7.37969
28.91350	-10.61252	7.37969
28.91756	-10.61252	7.37969
28.92162	-10.59054	7.37969
28.92568	-10.59054	7.37969
28.92973	-10.59054	7.37969
28.93403	-10.59054	7.37969
28.93809	-10.56857	7.37969
28.94215	-10.56857	7.37969
28.94621	-10.56857	7.37969
28.95026	-10.56857	7.37969
28.95432	-10.56857	7.37969
28.95838	-10.54660	7.37969
28.96244	-10.54660	7.37969
28.96650	-10.52463	7.37969
28.97056	-10.52463	7.37969
28.97461	-10.52463	7.37969
28.97867	-10.52463	7.37969
28.98273	-10.52463	7.37969
28.98679	-10.50265	7.37969
28.99085	-10.50265	7.37969
28.99491	-10.50265	7.37969
28.99896	-10.50265	7.37969
29.00302	-10.48068	7.37969
29.00708	-10.48068	7.37969
29.01114	-10.48068	7.37969
29.01519	-10.48068	7.37969
29.01925	-10.45871	7.37969
29.02331	-10.45871	7.37969
29.02736	-10.45871	7.37969
29.03142	-10.45871	7.37969
29.03571	-10.43673	7.37969
29.03977	-10.43673	7.37969
29.04384	-10.43673	7.37969
29.04790	-10.43673	7.37969
29.05195	-10.41476	7.37969
29.05601	-10.41476	7.37969
29.06004	-10.43673	7.37969
29.06410	-10.41476	7.37969
29.06816	-10.41476	7.37969
29.07222	-10.41476	7.37969
29.07628	-10.41476	7.37969
29.08033	-10.39279	7.37969
29.08439	-10.39279	7.37969
29.08845	-10.39279	7.37969
29.09250	-10.37082	7.37969
29.09656	-10.37082	7.37969
29.10062	-10.37082	7.37969
29.10468	-10.37082	7.37969
29.10873	-10.37082	7.37969
29.11279	-10.34884	7.37969
29.11685	-10.34884	7.37969
29.12091	-10.34884	7.37969
29.12496	-10.34884	7.37969
29.12902	-10.34884	7.37969
29.13308	-10.34884	7.37969
29.13737	-10.32687	7.37969
29.14142	-10.32687	7.37969
29.14549	-10.32687	7.37969
29.14955	-10.32687	7.37969
29.15361	-10.32687	7.37969
29.15766	-10.32687	7.37969
29.16172	-10.32687	7.37969
29.16578	-10.30490	7.37969
29.16984	-10.30490	7.37969
29.17390	-10.30490	7.37969
29.17796	-10.30490	7.37969
29.18202	-10.30490	7.37969
29.18607	-10.28293	7.37969
29.19013	-10.28293	7.37969
29.19419	-10.28293	7.37969
29.19825	-10.28293	7.37969
29.20230	-10.28293	7.37969
29.20636	-10.28293	7.37969
29.21042	-10.28293	7.37969
29.21447	-10.26095	7.37969
29.21853	-10.26095	7.37969
29.22259	-10.26095	7.37969
29.22665	-10.26095	7.37969
29.23070	-10.26095	7.37969
29.23476	-10.26095	7.37969
29.23905	-10.23898	7.37969
29.24311	-10.23898	7.37969
29.24717	-10.23898	7.37969
29.25123	-10.23898	7.37969
29.25529	-10.23898	7.37969
29.25935	-10.23898	7.37969
29.26340	-10.23898	7.37969
29.26747	-10.21701	7.37969
29.27153	-10.21701	7.37969
29.27559	-10.21701	7.37969
29.27964	-10.23898	7.37969
29.28371	-10.21701	7.37969
29.28777	-10.21701	7.37969
29.29183	-10.21701	7.37969
29.29588	-10.21701	7.37969
29.29994	-10.21701	7.37969
29.30400	-10.19504	7.37969
29.30804	-10.19504	7.37969
29.31210	-10.19504	7.37969
29.31615	-10.21701	7.37969
29.32021	-10.19504	7.37969
29.32427	-10.19504	7.37969
29.32833	-10.19504	7.37969
29.33238	-10.19504	7.37969
29.33644	-10.19504	7.37969
29.34074	-10.19504	7.37969
29.34479	-10.19504	7.37969
29.34886	-10.19504	7.37969
29.35292	-10.19504	7.37969
29.35697	-10.19504	7.37969
29.36103	-10.19504	7.37969
29.36509	-10.19504	7.37969
29.36911	-10.17306	7.37969
29.37317	-10.17306	7.37969
29.37722	-10.17306	7.37969
29.38128	-10.17306	7.37969
29.38534	-10.17306	7.37969
29.38940	-10.19504	7.37969
29.39346	-10.17306	7.37969
29.39752	-10.17306	7.37969
29.40157	-10.17306	7.37969
29.40563	-10.17306	7.37969
29.40969	-10.17306	7.37969
29.41374	-10.17306	7.37969
29.41780	-10.17306	7.37969
29.42186	-10.17306	7.37969
29.42592	-10.17306	7.37969
29.42997	-10.17306	7.37969
29.43403	-10.17306	7.37969
29.43809	-10.17306	7.37969
29.44237	-10.17306	7.37969
29.44643	-10.17306	7.37969
29.45049	-10.19504	7.37969
29.45455	-10.17306	7.37969
29.45860	-10.17306	7.37969
29.46266	-10.17306	7.37969
29.46672	-10.17306	7.37969
29.47078	-10.17306	7.37969
29.47484	-10.19504	7.37969
29.47890	-10.17306	7.37969
29.48295	-10.17306	7.37969
29.48701	-10.17306	7.37969
29.49107	-10.17306	7.37969
29.49513	-10.17306	7.37969
29.49918	-10.19504	7.37969
29.50324	-10.19504	7.37969
29.50730	-10.17306	7.37969
29.51136	-10.19504	7.37969
29.51541	-10.19504	7.37969
29.51947	-10.19504	7.37969
29.52353	-10.19504	7.37969
29.52758	-10.19504	7.37969
29.53164	-10.19504	7.37969
29.53570	-10.19504	7.37969
29.53976	-10.19504	7.37969
29.54406	-10.19504	7.37969
29.54811	-10.19504	7.37969
29.55217	-10.19504	7.37969
29.55623	-10.19504	7.37969
29.56029	-10.19504	7.37969
29.56435	-10.19504	7.37969
29.56840	-10.19504	7.37969
29.57247	-10.19504	7.37969
29.57653	-10.21701	7.37969
29.58058	-10.19504	7.37969
29.58464	-10.21701	7.37969
29.58870	-10.19504	7.37969
29.59276	-10.19504	7.37969
29.59681	-10.21701	7.37969
29.60087	-10.21701	7.37969
29.60493	-10.21701	7.37969
29.60898	-10.21701	7.37969
29.61304	-10.21701	7.37969
29.61710	-10.21701	7.37969
29.62116	-10.21701	7.37969
29.62521	-10.23898	7.37969
29.62927	-10.23898	7.37969
29.63333	-10.23898	7.37969
29.63738	-10.23898	7.37969
29.64144	-10.23898	7.37969
29.64572	-10.26095	7.37969
29.64978	-10.26095	7.37969
29.65385	-10.26095	7.37969
29.65791	-10.26095	7.37969
29.66196	-10.26095	7.37969
29.66602	-10.26095	7.37969
29.67008	-10.26095	7.37969
29.67414	-10.26095	7.37969
29.67820	-10.28293	7.37969
29.68226	-10.28293	7.37969
29.68632	-10.28293	7.37969
29.69037	-10.28293	7.37969
29.69443	-10.30490	7.37969
29.69849	-10.30490	7.37969
29.70254	-10.30490	7.37969
29.70660	-10.30490	7.37969
29.71066	-10.30490	7.37969
29.71472	-10.32687	7.37969
29.71877	-10.32687	7.37969
29.72283	-10.32687	7.37969
29.72689	-10.32687	7.37969
29.73095	-10.32687	7.37969
29.73500	-10.34884	7.37969
29.73906	-10.34884	7.37969
29.74312	-10.34884	7.37969
29.74739	-10.34884	7.37969
29.75145	-10.37082	7.37969
29.75551	-10.37082	7.37969
29.75957	-10.37082	7.37969
29.76363	-10.37082	7.37969
29.76768	-10.39279	7.37969
29.77174	-10.39279	7.37969
29.77580	-10.39279	7.37969
29.77986	-10.39279	7.37969
29.78392	-10.39279	7.37969
29.78798	-10.41476	7.37969
29.79204	-10.41476	7.37969
29.79609	-10.41476	7.37969
29.80015	-10.43673	7.37969
29.80421	-10.43673	7.37969
29.80826	-10.43673	7.37969
29.81232	-10.43673	7.37969
29.81638	-10.45871	7.37969
29.82043	-10.45871	7.37969
29.82449	-10.45871	7.37969
29.82855	-10.45871	7.37969
29.83260	-10.48068	7.37969
29.83666	-10.48068	7.37969
29.84072	-10.50265	7.37969
29.84477	-10.50265	7.37969
29.84905	-10.50265	7.37969
29.85311	-10.50265	7.37969
29.85717	-10.50265	7.37969
29.86122	-10.52463	7.37969
29.86528	-10.52463	7.37969
29.86934	-10.52463	7.37969
29.87340	-10.52463	7.37969
29.87746	-10.54660	7.37969
29.88152	-10.54660	7.37969
29.88558	-10.56857	7.37969
29.88963	-10.56857	7.37969
29.89369	-10.56857	7.37969
29.89775	-10.56857	7.37969
29.90180	-10.59054	7.37969
29.90586	-10.59054	7.37969
29.90992	-10.59054	7.37969
29.91398	-10.59054	7.37969
29.91803	-10.61252	7.37969
29.92209	-10.61252	7.37969
29.92615	-10.63449	7.37969
29.93020	-10.63449	7.37969
29.93426	-10.63449	7.37969
29.93832	-10.63449	7.37969
29.94237	-10.65646	7.37969
29.94643	-10.65646	7.37969
29.95071	-10.65646	7.37969
29.95477	-10.65646	7.37969
29.95883	-10.67843	7.37969
29.96289	-10.67843	7.37969
29.96694	-10.67843	7.37969
29.97100	-10.70041	7.37969
29.97506	-10.70041	7.37969
29.97912	-10.70041	7.37969
29.98318	-10.70041	7.37969
29.98724	-10.72238	7.37969
29.99130	-10.72238	7.37969
29.99535	-10.74435	7.37969
29.99941	-10.74435	7.37969
