Time (s)   roll (deg)   Delta
0.00041	-10.78830	11.27051
0.00463	-10.78830	11.27051
0.00884	-10.78830	11.27051
0.01314	-10.81027	11.27051
0.01736	-10.81027	11.27051
0.02155	-10.81027	11.27051
0.02575	-10.83224	11.27051
0.02997	-10.83224	11.27051
0.03414	-10.83224	11.27051
0.03831	-10.85422	11.27051
0.04258	-10.85422	11.27051
0.04679	-10.85422	11.27051
0.05096	-10.85422	11.27051
0.05513	-10.87619	11.27051
0.05930	-10.87619	11.27051
0.06347	-10.87619	11.27051
0.06764	-10.89816	11.27051
0.07192	-10.89816	11.27051
0.07614	-10.89816	11.27051
0.08032	-10.92013	11.27051
0.08450	-10.92013	11.27051
0.08867	-10.94211	11.27051
0.09285	-10.94211	11.27051
0.09702	-10.96408	11.27051
0.10136	-10.96408	11.27051
0.10560	-10.98605	11.27051
0.10979	-10.98605	11.27051
0.11397	-10.98605	11.27051
0.11814	-11.00802	11.27051
0.12231	-11.00802	11.27051
0.12648	-11.00802	11.27051
0.13067	-11.03000	11.27051
0.13495	-11.05197	11.27051
0.13917	-11.07394	11.27051
0.14336	-11.07394	11.27051
0.14754	-11.07394	11.27051
0.15172	-11.09591	11.27051
0.15590	-11.11789	11.27051
0.16008	-11.11789	11.27051
0.16438	-11.13986	11.27051
0.16859	-11.16183	11.27051
0.17278	-11.16183	11.27051
0.17697	-11.16183	11.27051
0.18116	-11.18381	11.27051
0.18534	-11.20578	11.27051
0.18952	-11.22775	11.27051
0.19387	-11.24972	11.27051
0.19811	-11.24972	11.27051
0.20241	-11.27170	11.27051
0.20660	-11.27170	11.27051
0.21078	-11.29367	11.27051
0.21497	-11.31564	11.27051
0.21915	-11.33761	11.27051
0.22339	-11.35959	11.27051
0.22765	-11.35959	11.27051
0.23187	-11.38156	11.27051
0.23606	-11.40353	11.27051
0.24024	-11.42550	11.27051
0.24443	-11.44748	11.27051
0.24861	-11.49142	11.27051
0.25279	-11.49142	11.27051
0.25711	-11.49142	11.27051
0.26133	-11.53537	11.27051
0.26551	-11.55734	11.27051
0.26970	-11.55734	11.27051
0.27389	-11.60129	11.27051
0.27807	-11.60129	11.27051
0.28225	-11.62326	11.27051
0.28656	-11.64523	11.27051
0.29078	-11.66720	11.27051
0.29498	-11.71115	11.27051
0.29916	-11.73312	11.27051
0.30345	-11.75509	11.27051
0.30763	-11.75509	11.27051
0.31186	-11.77707	11.27051
0.31620	-11.79904	11.27051
0.32045	-11.82101	11.27051
0.32465	-11.86496	11.27051
0.32884	-11.88693	11.27051
0.33302	-11.88693	11.27051
0.33721	-11.90890	11.27051
0.34139	-11.95285	11.27051
0.34563	-11.97482	11.27051
0.34989	-11.99679	11.27051
0.35409	-12.01877	11.27051
0.35827	-12.06271	11.27051
0.36246	-12.06271	11.27051
0.36664	-12.08468	11.27051
0.37083	-12.12863	11.27051
0.37501	-12.15060	11.27051
0.37929	-12.19455	11.27051
0.38351	-12.19455	11.27051
0.38769	-12.21652	11.27051
0.39189	-12.26047	11.27051
0.39608	-12.28244	11.27051
0.40026	-12.30441	11.27051
0.40455	-12.34836	11.27051
0.40883	-12.34836	11.27051
0.41308	-12.37033	11.27051
0.41727	-12.41427	11.27051
0.42145	-12.43625	11.27051
0.42564	-12.45822	11.27051
0.42982	-12.50216	11.27051
0.43401	-12.54611	11.27051
0.43902	-12.56808	11.27051
0.44329	-12.56808	11.27051
0.44749	-12.61203	11.27051
0.45167	-12.63400	11.27051
0.45587	-12.67795	11.27051
0.46006	-12.72189	11.27051
0.46425	-12.74386	11.27051
0.46851	-12.74386	11.27051
0.47285	-12.76584	11.27051
0.47708	-12.80978	11.27051
0.48128	-12.83175	11.27051
0.48547	-12.87570	11.27051
0.48966	-12.91964	11.27051
0.49384	-12.91964	11.27051
0.49803	-12.94162	11.27051
0.50239	-12.98556	11.27051
0.50671	-13.00754	11.27051
0.51092	-13.02951	11.27051
0.51511	-13.07345	11.27051
0.51929	-13.11740	11.27051
0.52347	-13.11740	11.27051
0.52766	-13.13937	11.27051
0.53214	-13.18332	11.27051
0.53636	-13.22726	11.27051
0.54055	-13.24923	11.27051
0.54475	-13.29318	11.27051
0.54894	-13.31515	11.27051
0.55312	-13.31515	11.27051
0.55731	-13.35910	11.27051
0.56236	-13.38107	11.27051
0.56662	-13.42502	11.27051
0.57082	-13.44699	11.27051
0.57501	-13.49093	11.27051
0.57921	-13.49093	11.27051
0.58340	-13.53488	11.27051
0.58759	-13.55685	11.27051
0.59187	-13.60080	11.27051
0.59616	-13.62277	11.27051
0.60036	-13.66672	11.27051
0.60455	-13.71066	11.27051
0.60885	-13.71066	11.27051
0.61304	-13.73263	11.27051
0.61722	-13.77658	11.27051
0.62141	-13.82052	11.27051
0.62571	-13.84250	11.27051
0.62992	-13.86447	11.27051
0.63410	-13.86447	11.27051
0.63830	-13.90841	11.27051
0.64249	-13.93039	11.27051
0.64668	-13.97433	11.27051
0.65087	-13.99631	11.27051
0.65522	-14.04025	11.27051
0.65943	-14.04025	11.27051
0.66362	-14.08420	11.27051
0.66782	-14.10617	11.27051
0.67201	-14.15011	11.27051
0.67619	-14.17209	11.27051
0.68038	-14.21603	11.27051
0.68471	-14.21603	11.27051
0.68900	-14.23800	11.27051
0.69321	-14.28195	11.27051
0.69742	-14.30392	11.27051
0.70163	-14.34787	11.27051
0.70583	-14.36984	11.27051
0.71014	-14.36984	11.27051
0.71565	-14.43576	11.27051
0.71996	-14.45773	11.27051
0.72417	-14.45773	11.27051
0.72838	-14.50168	11.27051
0.73259	-14.52365	11.27051
0.73679	-14.54562	11.27051
0.74099	-14.58957	11.27051
0.74647	-14.61154	11.27051
0.75079	-14.65548	11.27051
0.75500	-14.65548	11.27051
0.75920	-14.67746	11.27051
0.76341	-14.72140	11.27051
0.76761	-14.74338	11.27051
0.77183	-14.76535	11.27051
0.77731	-14.80929	11.27051
0.78162	-14.83127	11.27051
0.78583	-14.87521	11.27051
0.79004	-14.87521	11.27051
0.79424	-14.89718	11.27051
0.79845	-14.94113	11.27051
0.80266	-14.96310	11.27051
0.80813	-14.98507	11.27051
0.81243	-15.02902	11.27051
0.81678	-15.05099	11.27051
0.82101	-15.07297	11.27051
0.82524	-15.09494	11.27051
0.82947	-15.09494	11.27051
0.83370	-15.13888	11.27051
0.83904	-15.16086	11.27051
0.84333	-15.18283	11.27051
0.84753	-15.22677	11.27051
0.85173	-15.22677	11.27051
0.85590	-15.27072	11.27051
0.86008	-15.31466	11.27051
0.86426	-15.31466	11.27051
0.86850	-15.31466	11.27051
0.87277	-15.35861	11.27051
0.87697	-15.38058	11.27051
0.88115	-15.40256	11.27051
0.88533	-15.40256	11.27051
0.88952	-15.44650	11.27051
0.89370	-15.46847	11.27051
0.89788	-15.49045	11.27051
0.90215	-15.51242	11.27051
0.90634	-15.53439	11.27051
0.91053	-15.53439	11.27051
0.91472	-15.55636	11.27051
0.91900	-15.57834	11.27051
0.92319	-15.62228	11.27051
0.92737	-15.64425	11.27051
0.93170	-15.66623	11.27051
0.93591	-15.68820	11.27051
0.94012	-15.68820	11.27051
0.94432	-15.71017	11.27051
0.94851	-15.73214	11.27051
0.95270	-15.75412	11.27051
0.95689	-15.77609	11.27051
0.96112	-15.77609	11.27051
0.96537	-15.79806	11.27051
0.96956	-15.84201	11.27051
0.97375	-15.84201	11.27051
0.97793	-15.86398	11.27051
0.98212	-15.88595	11.27051
0.98630	-15.90793	11.27051
0.99055	-15.90793	11.27051
0.99482	-15.92990	11.27051
0.99901	-15.95187	11.27051
1.00320	-15.99582	11.27051
1.00738	-15.99582	11.27051
1.01163	-16.01779	11.27051
1.01585	-16.01779	11.27051
1.02042	-16.03976	11.27051
1.02479	-16.06173	11.27051
1.02903	-16.08371	11.27051
1.03325	-16.10568	11.27051
1.03745	-16.12765	11.27051
1.04166	-16.14963	11.27051
1.04585	-16.14963	11.27051
1.05003	-16.17160	11.27051
1.05445	-16.17160	11.27051
1.05870	-16.19357	11.27051
1.06290	-16.21554	11.27051
1.06709	-16.23752	11.27051
1.07127	-16.25949	11.27051
1.07546	-16.25949	11.27051
1.07965	-16.25949	11.27051
1.08407	-16.28146	11.27051
1.08834	-16.30343	11.27051
1.09254	-16.30343	11.27051
1.09673	-16.34738	11.27051
1.10093	-16.34738	11.27051
1.10512	-16.34738	11.27051
1.10930	-16.36935	11.27051
1.11470	-16.39132	11.27051
1.11897	-16.39132	11.27051
1.12330	-16.41330	11.27051
1.12748	-16.43527	11.27051
1.13167	-16.43527	11.27051
1.13586	-16.43527	11.27051
1.14004	-16.45724	11.27051
1.14429	-16.45724	11.27051
1.14856	-16.47922	11.27051
1.15277	-16.50119	11.27051
1.15695	-16.52316	11.27051
1.16114	-16.52316	11.27051
1.16533	-16.52316	11.27051
1.16951	-16.54513	11.27051
1.17370	-16.54513	11.27051
1.17799	-16.56711	11.27051
1.18220	-16.56711	11.27051
1.18639	-16.56711	11.27051
1.19061	-16.58908	11.27051
1.19481	-16.58908	11.27051
1.19900	-16.61105	11.27051
1.20318	-16.61105	11.27051
1.20753	-16.63302	11.27051
1.21177	-16.63302	11.27051
1.21596	-16.63302	11.27051
1.22015	-16.65500	11.27051
1.22444	-16.65500	11.27051
1.22862	-16.65500	11.27051
1.23281	-16.65500	11.27051
1.23713	-16.67697	11.27051
1.24137	-16.67697	11.27051
1.24557	-16.67697	11.27051
1.24976	-16.67697	11.27051
1.25394	-16.69894	11.27051
1.25813	-16.69894	11.27051
1.26232	-16.69894	11.27051
1.26658	-16.72091	11.27051
1.27084	-16.72091	11.27051
1.27505	-16.72091	11.27051
1.27924	-16.74289	11.27051
1.28342	-16.72091	11.27051
1.28761	-16.74289	11.27051
1.29180	-16.74289	11.27051
1.29599	-16.74289	11.27051
1.30028	-16.74289	11.27051
1.30449	-16.76486	11.27051
1.30869	-16.74289	11.27051
1.31287	-16.76486	11.27051
1.31706	-16.76486	11.27051
1.32124	-16.76486	11.27051
1.32554	-16.76486	11.27051
1.32986	-16.76486	11.27051
1.33408	-16.76486	11.27051
1.33827	-16.78683	11.27051
1.34246	-16.76486	11.27051
1.34665	-16.76486	11.27051
1.35083	-16.78683	11.27051
1.35507	-16.76486	11.27051
1.35942	-16.78683	11.27051
1.36367	-16.76486	11.27051
1.36787	-16.76486	11.27051
1.37206	-16.78683	11.27051
1.37625	-16.78683	11.27051
1.38044	-16.78683	11.27051
1.38462	-16.78683	11.27051
1.38887	-16.76486	11.27051
1.39314	-16.76486	11.27051
1.39734	-16.76486	11.27051
1.40153	-16.76486	11.27051
1.40572	-16.76486	11.27051
1.40990	-16.76486	11.27051
1.41409	-16.76486	11.27051
1.41828	-16.76486	11.27051
1.42256	-16.76486	11.27051
1.42689	-16.76486	11.27051
1.43108	-16.76486	11.27051
1.43527	-16.76486	11.27051
1.43945	-16.74289	11.27051
1.44365	-16.76486	11.27051
1.44784	-16.74289	11.27051
1.45213	-16.74289	11.27051
1.45635	-16.74289	11.27051
1.46054	-16.74289	11.27051
1.46473	-16.72091	11.27051
1.46892	-16.72091	11.27051
1.47310	-16.72091	11.27051
1.47729	-16.72091	11.27051
1.48165	-16.72091	11.27051
1.48590	-16.69894	11.27051
1.49011	-16.69894	11.27051
1.49430	-16.69894	11.27051
1.49849	-16.67697	11.27051
1.50267	-16.67697	11.27051
1.50686	-16.67697	11.27051
1.51110	-16.65500	11.27051
1.51536	-16.67697	11.27051
1.51956	-16.65500	11.27051
1.52375	-16.65500	11.27051
1.52800	-16.65500	11.27051
1.53219	-16.63302	11.27051
1.53637	-16.63302	11.27051
1.54056	-16.63302	11.27051
1.54485	-16.61105	11.27051
1.54906	-16.61105	11.27051
1.55325	-16.58908	11.27051
1.55744	-16.58908	11.27051
1.56163	-16.56711	11.27051
1.56582	-16.56711	11.27051
1.57000	-16.56711	11.27051
1.57430	-16.54513	11.27051
1.57853	-16.54513	11.27051
1.58272	-16.54513	11.27051
1.58690	-16.52316	11.27051
1.59109	-16.52316	11.27051
1.59527	-16.50119	11.27051
1.59946	-16.50119	11.27051
1.60379	-16.47922	11.27051
1.60804	-16.47922	11.27051
1.61223	-16.47922	11.27051
1.61642	-16.45724	11.27051
1.62060	-16.45724	11.27051
1.62479	-16.43527	11.27051
1.62907	-16.41330	11.27051
1.63331	-16.41330	11.27051
1.63756	-16.41330	11.27051
1.64177	-16.39132	11.27051
1.64596	-16.39132	11.27051
1.65014	-16.36935	11.27051
1.65433	-16.36935	11.27051
1.65851	-16.36935	11.27051
1.66269	-16.34738	11.27051
1.66697	-16.32541	11.27051
1.67118	-16.32541	11.27051
1.67538	-16.30343	11.27051
1.67956	-16.30343	11.27051
1.68375	-16.30343	11.27051
1.68789	-16.28146	11.27051
1.69208	-16.25949	11.27051
1.69642	-16.25949	11.27051
1.70063	-16.23752	11.27051
1.70482	-16.23752	11.27051
1.70901	-16.21554	11.27051
1.71319	-16.21554	11.27051
1.71737	-16.19357	11.27051
1.72156	-16.19357	11.27051
1.72587	-16.17160	11.27051
1.73023	-16.17160	11.27051
1.73442	-16.17160	11.27051
1.73860	-16.14963	11.27051
1.74279	-16.12765	11.27051
1.74697	-16.12765	11.27051
1.75116	-16.10568	11.27051
1.75539	-16.08371	11.27051
1.75964	-16.08371	11.27051
1.76386	-16.08371	11.27051
1.76806	-16.06173	11.27051
1.77225	-16.03976	11.27051
1.77644	-16.03976	11.27051
1.78062	-16.01779	11.27051
1.78481	-15.99582	11.27051
1.78909	-15.99582	11.27051
1.79330	-15.99582	11.27051
1.79749	-15.97384	11.27051
1.80167	-15.97384	11.27051
1.80586	-15.95187	11.27051
1.81004	-15.92990	11.27051
1.81422	-15.92990	11.27051
1.81851	-15.92990	11.27051
1.82273	-15.90793	11.27051
1.82692	-15.88595	11.27051
1.83121	-15.88595	11.27051
1.83539	-15.88595	11.27051
1.83957	-15.86398	11.27051
1.84377	-15.86398	11.27051
1.84810	-15.84201	11.27051
1.85233	-15.84201	11.27051
1.85654	-15.82004	11.27051
1.86074	-15.79806	11.27051
1.86493	-15.79806	11.27051
1.86911	-15.79806	11.27051
1.87330	-15.77609	11.27051
1.87754	-15.77609	11.27051
1.88179	-15.75412	11.27051
1.88599	-15.75412	11.27051
1.89018	-15.73214	11.27051
1.89436	-15.73214	11.27051
1.89855	-15.73214	11.27051
1.90273	-15.71017	11.27051
1.90692	-15.71017	11.27051
1.91121	-15.68820	11.27051
1.91543	-15.68820	11.27051
1.91962	-15.68820	11.27051
1.92381	-15.66623	11.27051
1.92801	-15.64425	11.27051
1.93230	-15.64425	11.27051
1.93648	-15.62228	11.27051
1.94079	-15.62228	11.27051
1.94502	-15.62228	11.27051
1.94920	-15.60031	11.27051
1.95341	-15.60031	11.27051
1.95760	-15.57834	11.27051
1.96178	-15.57834	11.27051
1.96597	-15.57834	11.27051
1.97029	-15.55636	11.27051
1.97453	-15.55636	11.27051
1.97872	-15.55636	11.27051
1.98291	-15.53439	11.27051
1.98709	-15.53439	11.27051
1.99128	-15.51242	11.27051
1.99547	-15.51242	11.27051
1.99970	-15.51242	11.27051
2.00397	-15.51242	11.27051
2.00817	-15.49045	11.27051
2.01236	-15.49045	11.27051
2.01654	-15.49045	11.27051
2.02073	-15.46847	11.27051
2.02491	-15.46847	11.27051
2.02909	-15.46847	11.27051
2.03348	-15.46847	11.27051
2.03768	-15.44650	11.27051
2.04188	-15.44650	11.27051
2.04608	-15.42453	11.27051
2.05026	-15.44650	11.27051
2.05445	-15.44650	11.27051
2.05863	-15.42453	11.27051
2.06292	-15.42453	11.27051
2.06714	-15.40256	11.27051
2.07133	-15.40256	11.27051
2.07552	-15.40256	11.27051
2.07971	-15.40256	11.27051
2.08390	-15.38058	11.27051
2.08808	-15.40256	11.27051
2.09242	-15.38058	11.27051
2.09666	-15.38058	11.27051
2.10086	-15.38058	11.27051
2.10506	-15.38058	11.27051
2.10925	-15.35861	11.27051
2.11344	-15.38058	11.27051
2.11763	-15.35861	11.27051
2.12189	-15.35861	11.27051
2.12615	-15.35861	11.27051
2.13035	-15.35861	11.27051
2.13464	-15.35861	11.27051
2.13883	-15.35861	11.27051
2.14302	-15.35861	11.27051
2.14721	-15.35861	11.27051
2.15139	-15.35861	11.27051
2.15568	-15.35861	11.27051
2.15991	-15.35861	11.27051
2.16410	-15.35861	11.27051
2.16829	-15.35861	11.27051
2.17247	-15.35861	11.27051
2.17666	-15.35861	11.27051
2.18084	-15.35861	11.27051
2.18514	-15.35861	11.27051
2.18936	-15.35861	11.27051
2.19358	-15.35861	11.27051
2.19777	-15.35861	11.27051
2.20196	-15.35861	11.27051
2.20615	-15.35861	11.27051
2.21033	-15.35861	11.27051
2.21467	-15.35861	11.27051
2.21891	-15.35861	11.27051
2.22310	-15.35861	11.27051
2.22729	-15.35861	11.27051
2.23148	-15.35861	11.27051
2.23578	-15.35861	11.27051
2.23996	-15.35861	11.27051
2.24421	-15.38058	11.27051
2.24846	-15.38058	11.27051
2.25267	-15.38058	11.27051
2.25707	-15.38058	11.27051
2.26130	-15.38058	11.27051
2.26549	-15.38058	11.27051
2.26968	-15.40256	11.27051
2.27387	-15.38058	11.27051
2.27817	-15.40256	11.27051
2.28239	-15.40256	11.27051
2.28658	-15.40256	11.27051
2.29077	-15.40256	11.27051
2.29497	-15.40256	11.27051
2.29916	-15.42453	11.27051
2.30335	-15.42453	11.27051
2.30769	-15.42453	11.27051
2.31192	-15.44650	11.27051
2.31612	-15.44650	11.27051
2.32030	-15.44650	11.27051
2.32449	-15.44650	11.27051
2.32868	-15.46847	11.27051
2.33286	-15.46847	11.27051
2.33731	-15.46847	11.27051
2.34155	-15.46847	11.27051
2.34575	-15.46847	11.27051
2.34995	-15.46847	11.27051
2.35413	-15.49045	11.27051
2.35834	-15.49045	11.27051
2.36253	-15.51242	11.27051
2.36678	-15.51242	11.27051
2.37104	-15.51242	11.27051
2.37525	-15.51242	11.27051
2.37944	-15.53439	11.27051
2.38363	-15.53439	11.27051
2.38783	-15.53439	11.27051
2.39202	-15.53439	11.27051
2.39620	-15.55636	11.27051
2.40049	-15.55636	11.27051
2.40471	-15.55636	11.27051
2.40890	-15.57834	11.27051
2.41309	-15.57834	11.27051
2.41727	-15.57834	11.27051
2.42145	-15.57834	11.27051
2.42564	-15.60031	11.27051
2.42994	-15.60031	11.27051
2.43416	-15.62228	11.27051
2.43845	-15.62228	11.27051
2.44264	-15.64425	11.27051
2.44683	-15.64425	11.27051
2.45101	-15.64425	11.27051
2.45520	-15.64425	11.27051
2.45958	-15.66623	11.27051
2.46383	-15.66623	11.27051
2.46802	-15.68820	11.27051
2.47221	-15.68820	11.27051
2.47640	-15.68820	11.27051
2.48059	-15.68820	11.27051
2.48478	-15.71017	11.27051
2.48902	-15.71017	11.27051
2.49328	-15.73214	11.27051
2.49748	-15.73214	11.27051
2.50167	-15.73214	11.27051
2.50585	-15.75412	11.27051
2.51004	-15.75412	11.27051
2.51422	-15.77609	11.27051
2.51841	-15.77609	11.27051
2.52269	-15.77609	11.27051
2.52691	-15.77609	11.27051
2.53110	-15.79806	11.27051
2.53529	-15.79806	11.27051
2.53957	-15.84201	11.27051
2.54377	-15.84201	11.27051
2.54795	-15.84201	11.27051
2.55225	-15.84201	11.27051
2.55646	-15.86398	11.27051
2.56066	-15.84201	11.27051
2.56484	-15.86398	11.27051
2.56903	-15.88595	11.27051
2.57321	-15.88595	11.27051
2.57740	-15.90793	11.27051
2.58172	-15.90793	11.27051
2.58596	-15.90793	11.27051
2.59015	-15.92990	11.27051
2.59434	-15.92990	11.27051
2.59853	-15.95187	11.27051
2.60271	-15.95187	11.27051
2.60690	-15.95187	11.27051
2.61113	-15.97384	11.27051
2.61539	-15.97384	11.27051
2.61959	-15.99582	11.27051
2.62379	-15.99582	11.27051
2.62797	-15.99582	11.27051
2.63216	-15.99582	11.27051
2.63634	-16.01779	11.27051
2.64064	-16.03976	11.27051
2.64492	-16.03976	11.27051
2.64913	-16.06173	11.27051
2.65331	-16.06173	11.27051
2.65750	-16.08371	11.27051
2.66168	-16.08371	11.27051
2.66587	-16.08371	11.27051
2.67005	-16.08371	11.27051
2.67434	-16.10568	11.27051
2.67857	-16.10568	11.27051
2.68276	-16.12765	11.27051
2.68694	-16.12765	11.27051
2.69113	-16.14963	11.27051
2.69531	-16.14963	11.27051
2.69950	-16.17160	11.27051
2.70383	-16.17160	11.27051
2.70808	-16.17160	11.27051
2.71231	-16.19357	11.27051
2.71650	-16.19357	11.27051
2.72069	-16.21554	11.27051
2.72487	-16.21554	11.27051
2.72907	-16.21554	11.27051
2.73332	-16.23752	11.27051
2.73764	-16.23752	11.27051
2.74197	-16.23752	11.27051
2.74616	-16.25949	11.27051
2.75034	-16.25949	11.27051
2.75453	-16.28146	11.27051
2.75872	-16.28146	11.27051
2.76290	-16.28146	11.27051
2.76720	-16.30343	11.27051
2.77141	-16.30343	11.27051
2.77560	-16.30343	11.27051
2.77980	-16.32541	11.27051
2.78399	-16.32541	11.27051
2.78817	-16.32541	11.27051
2.79236	-16.34738	11.27051
2.79673	-16.34738	11.27051
2.80094	-16.34738	11.27051
2.80513	-16.36935	11.27051
2.80931	-16.36935	11.27051
2.81350	-16.39132	11.27051
2.81768	-16.39132	11.27051
2.82187	-16.39132	11.27051
2.82620	-16.39132	11.27051
2.83045	-16.41330	11.27051
2.83464	-16.41330	11.27051
2.83882	-16.43527	11.27051
2.84311	-16.43527	11.27051
2.84730	-16.43527	11.27051
2.85148	-16.43527	11.27051
2.85572	-16.45724	11.27051
2.85999	-16.45724	11.27051
2.86419	-16.45724	11.27051
2.86837	-16.45724	11.27051
2.87256	-16.45724	11.27051
2.87674	-16.47922	11.27051
2.88092	-16.47922	11.27051
2.88511	-16.47922	11.27051
2.88940	-16.50119	11.27051
2.89361	-16.50119	11.27051
2.89779	-16.52316	11.27051
2.90198	-16.52316	11.27051
2.90616	-16.52316	11.27051
2.91034	-16.52316	11.27051
2.91452	-16.52316	11.27051
2.91885	-16.52316	11.27051
2.92306	-16.52316	11.27051
2.92725	-16.54513	11.27051
2.93143	-16.54513	11.27051
2.93562	-16.54513	11.27051
2.93981	-16.54513	11.27051
2.94410	-16.56711	11.27051
2.94842	-16.56711	11.27051
2.95269	-16.56711	11.27051
2.95689	-16.56711	11.27051
2.96108	-16.58908	11.27051
2.96526	-16.56711	11.27051
2.96945	-16.56711	11.27051
2.97363	-16.58908	11.27051
2.97787	-16.58908	11.27051
2.98214	-16.58908	11.27051
2.98634	-16.61105	11.27051
2.99052	-16.61105	11.27051
2.99471	-16.61105	11.27051
2.99889	-16.61105	11.27051
3.00307	-16.61105	11.27051
3.00726	-16.63302	11.27051
3.01155	-16.63302	11.27051
3.01575	-16.63302	11.27051
3.01990	-16.63302	11.27051
3.02408	-16.63302	11.27051
3.02826	-16.63302	11.27051
3.03245	-16.65500	11.27051
3.03663	-16.63302	11.27051
3.04096	-16.65500	11.27051
3.04527	-16.65500	11.27051
3.04946	-16.63302	11.27051
3.05364	-16.63302	11.27051
3.05783	-16.65500	11.27051
3.06201	-16.65500	11.27051
3.06620	-16.65500	11.27051
3.07051	-16.65500	11.27051
3.07478	-16.65500	11.27051
3.07899	-16.65500	11.27051
3.08318	-16.67697	11.27051
3.08736	-16.65500	11.27051
3.09155	-16.67697	11.27051
3.09574	-16.67697	11.27051
3.09996	-16.67697	11.27051
3.10423	-16.67697	11.27051
3.10843	-16.67697	11.27051
3.11262	-16.67697	11.27051
3.11680	-16.67697	11.27051
3.12099	-16.67697	11.27051
3.12518	-16.69894	11.27051
3.12937	-16.69894	11.27051
3.13366	-16.69894	11.27051
3.13787	-16.67697	11.27051
3.14206	-16.69894	11.27051
3.14635	-16.69894	11.27051
3.15053	-16.69894	11.27051
3.15471	-16.67697	11.27051
3.15890	-16.67697	11.27051
3.16319	-16.69894	11.27051
3.16740	-16.69894	11.27051
3.17158	-16.69894	11.27051
3.17579	-16.69894	11.27051
3.17998	-16.69894	11.27051
3.18417	-16.69894	11.27051
3.18835	-16.72091	11.27051
3.19268	-16.69894	11.27051
3.19694	-16.69894	11.27051
3.20113	-16.69894	11.27051
3.20532	-16.69894	11.27051
3.20951	-16.69894	11.27051
3.21369	-16.69894	11.27051
3.21788	-16.69894	11.27051
3.22210	-16.69894	11.27051
3.22636	-16.69894	11.27051
3.23055	-16.69894	11.27051
3.23474	-16.69894	11.27051
3.23892	-16.69894	11.27051
3.24311	-16.69894	11.27051
3.24739	-16.69894	11.27051
3.25158	-16.69894	11.27051
3.25587	-16.69894	11.27051
3.26012	-16.69894	11.27051
3.26432	-16.67697	11.27051
3.26851	-16.69894	11.27051
3.27271	-16.69894	11.27051
3.27690	-16.67697	11.27051
3.28109	-16.67697	11.27051
3.28538	-16.67697	11.27051
3.28960	-16.67697	11.27051
3.29379	-16.67697	11.27051
3.29798	-16.67697	11.27051
3.30217	-16.67697	11.27051
3.30636	-16.67697	11.27051
3.31055	-16.65500	11.27051
3.31485	-16.65500	11.27051
3.31908	-16.65500	11.27051
3.32328	-16.65500	11.27051
3.32747	-16.65500	11.27051
3.33166	-16.65500	11.27051
3.33586	-16.65500	11.27051
3.34005	-16.65500	11.27051
3.34429	-16.65500	11.27051
3.34867	-16.63302	11.27051
3.35287	-16.63302	11.27051
3.35706	-16.63302	11.27051
3.36125	-16.63302	11.27051
3.36544	-16.63302	11.27051
3.36963	-16.63302	11.27051
3.37381	-16.61105	11.27051
3.37809	-16.63302	11.27051
3.38230	-16.61105	11.27051
3.38649	-16.61105	11.27051
3.39067	-16.61105	11.27051
3.39486	-16.61105	11.27051
3.39904	-16.58908	11.27051
3.40322	-16.61105	11.27051
3.40753	-16.58908	11.27051
3.41177	-16.58908	11.27051
3.41595	-16.56711	11.27051
3.42014	-16.56711	11.27051
3.42432	-16.56711	11.27051
3.42851	-16.56711	11.27051
3.43269	-16.54513	11.27051
3.43702	-16.56711	11.27051
3.44127	-16.54513	11.27051
3.44546	-16.54513	11.27051
3.44974	-16.54513	11.27051
3.45393	-16.52316	11.27051
3.45811	-16.52316	11.27051
3.46230	-16.52316	11.27051
3.46655	-16.52316	11.27051
3.47080	-16.52316	11.27051
3.47501	-16.50119	11.27051
3.47920	-16.50119	11.27051
3.48338	-16.47922	11.27051
3.48757	-16.47922	11.27051
3.49175	-16.47922	11.27051
3.49590	-16.47922	11.27051
3.50017	-16.47922	11.27051
3.50438	-16.45724	11.27051
3.50857	-16.45724	11.27051
3.51276	-16.45724	11.27051
3.51694	-16.43527	11.27051
3.52112	-16.43527	11.27051
3.52531	-16.43527	11.27051
3.52961	-16.41330	11.27051
3.53383	-16.41330	11.27051
3.53801	-16.41330	11.27051
3.54220	-16.39132	11.27051
3.54639	-16.39132	11.27051
3.55068	-16.39132	11.27051
3.55486	-16.36935	11.27051
3.55918	-16.36935	11.27051
3.56342	-16.34738	11.27051
3.56761	-16.34738	11.27051
3.57180	-16.34738	11.27051
3.57599	-16.34738	11.27051
3.58017	-16.34738	11.27051
3.58436	-16.32541	11.27051
3.58859	-16.30343	11.27051
3.59285	-16.32541	11.27051
3.59705	-16.30343	11.27051
3.60124	-16.30343	11.27051
3.60542	-16.30343	11.27051
3.60960	-16.28146	11.27051
3.61379	-16.25949	11.27051
3.61797	-16.25949	11.27051
3.62225	-16.23752	11.27051
3.62646	-16.25949	11.27051
3.63064	-16.25949	11.27051
3.63483	-16.23752	11.27051
3.63901	-16.23752	11.27051
3.64319	-16.21554	11.27051
3.64738	-16.19357	11.27051
3.65179	-16.19357	11.27051
3.65601	-16.19357	11.27051
3.66020	-16.19357	11.27051
3.66439	-16.17160	11.27051
3.66857	-16.17160	11.27051
3.67276	-16.14963	11.27051
3.67694	-16.14963	11.27051
3.68126	-16.12765	11.27051
3.68549	-16.12765	11.27051
3.68969	-16.12765	11.27051
3.69387	-16.12765	11.27051
3.69805	-16.10568	11.27051
3.70224	-16.10568	11.27051
3.70642	-16.10568	11.27051
3.71065	-16.08371	11.27051
3.71491	-16.08371	11.27051
3.71911	-16.06173	11.27051
3.72329	-16.06173	11.27051
3.72748	-16.03976	11.27051
3.73166	-16.03976	11.27051
3.73585	-16.03976	11.27051
3.74004	-16.01779	11.27051
3.74431	-16.01779	11.27051
3.74852	-16.01779	11.27051
3.75281	-15.99582	11.27051
3.75699	-15.99582	11.27051
3.76119	-15.99582	11.27051
3.76537	-15.97384	11.27051
3.76955	-15.95187	11.27051
3.77385	-15.95187	11.27051
3.77807	-15.95187	11.27051
3.78225	-15.95187	11.27051
3.78644	-15.92990	11.27051
3.79062	-15.90793	11.27051
3.79480	-15.90793	11.27051
3.79899	-15.90793	11.27051
3.80330	-15.88595	11.27051
3.80754	-15.88595	11.27051
3.81174	-15.88595	11.27051
3.81590	-15.86398	11.27051
3.82008	-15.86398	11.27051
3.82426	-15.84201	11.27051
3.82845	-15.82004	11.27051
3.83268	-15.82004	11.27051
3.83694	-15.82004	11.27051
3.84114	-15.82004	11.27051
3.84532	-15.79806	11.27051
3.84951	-15.79806	11.27051
3.85379	-15.77609	11.27051
3.85798	-15.77609	11.27051
3.86217	-15.77609	11.27051
3.86645	-15.75412	11.27051
3.87066	-15.75412	11.27051
3.87485	-15.73214	11.27051
3.87903	-15.73214	11.27051
3.88322	-15.71017	11.27051
3.88740	-15.71017	11.27051
3.89158	-15.71017	11.27051
3.89589	-15.68820	11.27051
3.90010	-15.66623	11.27051
3.90429	-15.66623	11.27051
3.90847	-15.66623	11.27051
3.91266	-15.64425	11.27051
3.91684	-15.64425	11.27051
3.92102	-15.62228	11.27051
3.92533	-15.62228	11.27051
3.92957	-15.62228	11.27051
3.93376	-15.60031	11.27051
3.93794	-15.60031	11.27051
3.94213	-15.60031	11.27051
3.94631	-15.57834	11.27051
3.95049	-15.55636	11.27051
3.95482	-15.55636	11.27051
3.95907	-15.53439	11.27051
3.96328	-15.53439	11.27051
3.96746	-15.53439	11.27051
3.97165	-15.51242	11.27051
3.97584	-15.51242	11.27051
3.98002	-15.49045	11.27051
3.98421	-15.49045	11.27051
3.98849	-15.46847	11.27051
3.99270	-15.46847	11.27051
3.99689	-15.44650	11.27051
4.00107	-15.44650	11.27051
4.00525	-15.44650	11.27051
4.00944	-15.42453	11.27051
4.01362	-15.42453	11.27051
4.01791	-15.42453	11.27051
4.02213	-15.42453	11.27051
4.02632	-15.40256	11.27051
4.03050	-15.38058	11.27051
4.03468	-15.38058	11.27051
4.03887	-15.35861	11.27051
4.04305	-15.35861	11.27051
4.04736	-15.35861	11.27051
4.05160	-15.33664	11.27051
4.05590	-15.31466	11.27051
4.06008	-15.31466	11.27051
4.06426	-15.29269	11.27051
4.06845	-15.29269	11.27051
4.07263	-15.29269	11.27051
4.07687	-15.27072	11.27051
4.08112	-15.24875	11.27051
4.08532	-15.24875	11.27051
4.08951	-15.24875	11.27051
4.09369	-15.24875	11.27051
4.09787	-15.24875	11.27051
4.10206	-15.22677	11.27051
4.10624	-15.20480	11.27051
4.11052	-15.20480	11.27051
4.11474	-15.18283	11.27051
4.11892	-15.18283	11.27051
4.12311	-15.18283	11.27051
4.12729	-15.16086	11.27051
4.13148	-15.16086	11.27051
4.13566	-15.13888	11.27051
4.13997	-15.13888	11.27051
4.14419	-15.11691	11.27051
4.14837	-15.09494	11.27051
4.15256	-15.09494	11.27051
4.15684	-15.11691	11.27051
4.16103	-15.07297	11.27051
4.16522	-15.07297	11.27051
4.16953	-15.07297	11.27051
4.17377	-15.05099	11.27051
4.17796	-15.05099	11.27051
4.18215	-15.05099	11.27051
4.18633	-15.02902	11.27051
4.19052	-15.02902	11.27051
4.19470	-15.00705	11.27051
4.19894	-15.00705	11.27051
4.20319	-15.00705	11.27051
4.20739	-15.00705	11.27051
4.21158	-14.98507	11.27051
4.21577	-14.98507	11.27051
4.21996	-14.96310	11.27051
4.22414	-14.96310	11.27051
4.22832	-14.96310	11.27051
4.23260	-14.96310	11.27051
4.23681	-14.94113	11.27051
4.24099	-14.94113	11.27051
4.24518	-14.91916	11.27051
4.24937	-14.91916	11.27051
4.25355	-14.91916	11.27051
4.25787	-14.89718	11.27051
4.26222	-14.89718	11.27051
4.26645	-14.89718	11.27051
4.27064	-14.89718	11.27051
4.27483	-14.89718	11.27051
4.27901	-14.89718	11.27051
4.28320	-14.87521	11.27051
4.28738	-14.87521	11.27051
4.29169	-14.85324	11.27051
4.29594	-14.85324	11.27051
4.30013	-14.85324	11.27051
4.30432	-14.83127	11.27051
4.30850	-14.83127	11.27051
4.31268	-14.85324	11.27051
4.31687	-14.83127	11.27051
4.32110	-14.83127	11.27051
4.32535	-14.80929	11.27051
4.32955	-14.80929	11.27051
4.33374	-14.80929	11.27051
4.33792	-14.80929	11.27051
4.34211	-14.78732	11.27051
4.34629	-14.78732	11.27051
4.35047	-14.78732	11.27051
4.35475	-14.78732	11.27051
4.35907	-14.78732	11.27051
4.36326	-14.78732	11.27051
4.36745	-14.76535	11.27051
4.37164	-14.76535	11.27051
4.37583	-14.74338	11.27051
4.38002	-14.76535	11.27051
4.38434	-14.76535	11.27051
4.38855	-14.74338	11.27051
4.39274	-14.74338	11.27051
4.39693	-14.74338	11.27051
4.40111	-14.74338	11.27051
4.40529	-14.74338	11.27051
4.40948	-14.72140	11.27051
4.41379	-14.72140	11.27051
4.41804	-14.72140	11.27051
4.42223	-14.72140	11.27051
4.42642	-14.72140	11.27051
4.43061	-14.72140	11.27051
4.43479	-14.72140	11.27051
4.43898	-14.72140	11.27051
4.44321	-14.72140	11.27051
4.44747	-14.72140	11.27051
4.45167	-14.72140	11.27051
4.45586	-14.72140	11.27051
4.46015	-14.69943	11.27051
4.46434	-14.69943	11.27051
4.46853	-14.69943	11.27051
4.47271	-14.69943	11.27051
4.47699	-14.69943	11.27051
4.48119	-14.69943	11.27051
4.48538	-14.69943	11.27051
4.48956	-14.69943	11.27051
4.49375	-14.69943	11.27051
4.49793	-14.69943	11.27051
4.50212	-14.69943	11.27051
4.50642	-14.69943	11.27051
4.51064	-14.69943	11.27051
4.51483	-14.69943	11.27051
4.51901	-14.69943	11.27051
4.52320	-14.69943	11.27051
4.52738	-14.69943	11.27051
4.53156	-14.69943	11.27051
4.53588	-14.69943	11.27051
4.54012	-14.69943	11.27051
4.54431	-14.69943	11.27051
4.54850	-14.69943	11.27051
4.55268	-14.69943	11.27051
4.55686	-14.69943	11.27051
4.56115	-14.69943	11.27051
4.56538	-14.69943	11.27051
4.56964	-14.69943	11.27051
4.57383	-14.69943	11.27051
4.57802	-14.69943	11.27051
4.58221	-14.69943	11.27051
4.58639	-14.69943	11.27051
4.59057	-14.69943	11.27051
4.59476	-14.69943	11.27051
4.59904	-14.72140	11.27051
4.60325	-14.69943	11.27051
4.60744	-14.72140	11.27051
4.61162	-14.72140	11.27051
4.61582	-14.72140	11.27051
4.62000	-14.72140	11.27051
4.62419	-14.72140	11.27051
4.62848	-14.72140	11.27051
4.63269	-14.72140	11.27051
4.63688	-14.72140	11.27051
4.64106	-14.72140	11.27051
4.64525	-14.72140	11.27051
4.64943	-14.72140	11.27051
4.65361	-14.72140	11.27051
4.65792	-14.74338	11.27051
4.66226	-14.72140	11.27051
4.66645	-14.74338	11.27051
4.67064	-14.74338	11.27051
4.67483	-14.74338	11.27051
4.67901	-14.74338	11.27051
4.68320	-14.74338	11.27051
4.68743	-14.74338	11.27051
4.69170	-14.74338	11.27051
4.69593	-14.74338	11.27051
4.70011	-14.74338	11.27051
4.70430	-14.74338	11.27051
4.70848	-14.76535	11.27051
4.71267	-14.76535	11.27051
4.71685	-14.76535	11.27051
4.72113	-14.78732	11.27051
4.72534	-14.78732	11.27051
4.72953	-14.78732	11.27051
4.73372	-14.76535	11.27051
4.73790	-14.78732	11.27051
4.74208	-14.78732	11.27051
4.74627	-14.78732	11.27051
4.75056	-14.78732	11.27051
4.75478	-14.80929	11.27051
4.75897	-14.78732	11.27051
4.76326	-14.80929	11.27051
4.76744	-14.80929	11.27051
4.77163	-14.80929	11.27051
4.77582	-14.80929	11.27051
4.78014	-14.80929	11.27051
4.78439	-14.80929	11.27051
4.78860	-14.83127	11.27051
4.79278	-14.83127	11.27051
4.79697	-14.83127	11.27051
4.80117	-14.83127	11.27051
4.80536	-14.83127	11.27051
4.80960	-14.83127	11.27051
4.81386	-14.85324	11.27051
4.81806	-14.85324	11.27051
4.82225	-14.85324	11.27051
4.82643	-14.85324	11.27051
4.83063	-14.85324	11.27051
4.83482	-14.85324	11.27051
4.83900	-14.87521	11.27051
4.84329	-14.85324	11.27051
4.84750	-14.87521	11.27051
4.85169	-14.87521	11.27051
4.85588	-14.87521	11.27051
4.86007	-14.87521	11.27051
4.86436	-14.89718	11.27051
4.86854	-14.87521	11.27051
4.87287	-14.89718	11.27051
4.87709	-14.89718	11.27051
4.88127	-14.89718	11.27051
4.88546	-14.91916	11.27051
4.88966	-14.91916	11.27051
4.89385	-14.91916	11.27051
4.89804	-14.91916	11.27051
4.90237	-14.91916	11.27051
4.90662	-14.94113	11.27051
4.91081	-14.94113	11.27051
4.91500	-14.91916	11.27051
4.91918	-14.94113	11.27051
4.92337	-14.94113	11.27051
4.92755	-14.94113	11.27051
4.93180	-14.94113	11.27051
4.93605	-14.94113	11.27051
4.94025	-14.94113	11.27051
4.94444	-14.94113	11.27051
4.94863	-14.96310	11.27051
4.95281	-14.96310	11.27051
4.95700	-14.96310	11.27051
4.96118	-14.96310	11.27051
4.96557	-14.96310	11.27051
4.96977	-14.96310	11.27051
4.97397	-14.98507	11.27051
4.97815	-14.98507	11.27051
4.98234	-14.98507	11.27051
4.98652	-14.98507	11.27051
4.99072	-14.98507	11.27051
4.99504	-14.98507	11.27051
4.99927	-14.98507	11.27051
5.00346	-15.00705	11.27051
5.00765	-15.00705	11.27051
5.01196	-15.00705	11.27051
5.01618	-15.00705	11.27051
5.02039	-15.00705	11.27051
5.02489	-15.00705	11.27051
5.02919	-15.02902	11.27051
5.03341	-15.02902	11.27051
5.03763	-15.02902	11.27051
5.04184	-15.02902	11.27051
5.04605	-15.02902	11.27051
5.05026	-15.02902	11.27051
5.05572	-15.02902	11.27051
5.06000	-15.05099	11.27051
5.06422	-15.05099	11.27051
5.06858	-15.02902	11.27051
5.07281	-15.05099	11.27051
5.07704	-15.05099	11.27051
5.08127	-15.05099	11.27051
5.08660	-15.05099	11.27051
5.09088	-15.05099	11.27051
5.09510	-15.07297	11.27051
5.09932	-15.07297	11.27051
5.10353	-15.07297	11.27051
5.10773	-15.07297	11.27051
5.11191	-15.07297	11.27051
5.11616	-15.07297	11.27051
5.12042	-15.07297	11.27051
5.12463	-15.07297	11.27051
5.12883	-15.07297	11.27051
5.13302	-15.07297	11.27051
5.13721	-15.07297	11.27051
5.14140	-15.07297	11.27051
5.14559	-15.09494	11.27051
5.14987	-15.07297	11.27051
5.15408	-15.09494	11.27051
5.15828	-15.09494	11.27051
5.16247	-15.09494	11.27051
5.16666	-15.09494	11.27051
5.17097	-15.09494	11.27051
5.17517	-15.09494	11.27051
5.17946	-15.09494	11.27051
5.18368	-15.09494	11.27051
5.18788	-15.09494	11.27051
5.19212	-15.09494	11.27051
5.19632	-15.09494	11.27051
5.20051	-15.09494	11.27051
5.20470	-15.09494	11.27051
5.20904	-15.09494	11.27051
5.21329	-15.11691	11.27051
5.21749	-15.11691	11.27051
5.22168	-15.11691	11.27051
5.22586	-15.11691	11.27051
5.23005	-15.11691	11.27051
5.23424	-15.11691	11.27051
5.23848	-15.11691	11.27051
5.24274	-15.11691	11.27051
5.24695	-15.11691	11.27051
5.25113	-15.11691	11.27051
5.25532	-15.11691	11.27051
5.25951	-15.11691	11.27051
5.26370	-15.13888	11.27051
5.26789	-15.13888	11.27051
5.27228	-15.11691	11.27051
5.27649	-15.11691	11.27051
5.28068	-15.11691	11.27051
5.28486	-15.13888	11.27051
5.28905	-15.13888	11.27051
5.29323	-15.13888	11.27051
5.29742	-15.13888	11.27051
5.30174	-15.13888	11.27051
5.30596	-15.13888	11.27051
5.31015	-15.13888	11.27051
5.31433	-15.13888	11.27051
5.31852	-15.13888	11.27051
5.32270	-15.13888	11.27051
5.32688	-15.13888	11.27051
5.33120	-15.13888	11.27051
5.33545	-15.13888	11.27051
5.33965	-15.13888	11.27051
5.34384	-15.13888	11.27051
5.34803	-15.13888	11.27051
5.35222	-15.13888	11.27051
5.35640	-15.13888	11.27051
5.36066	-15.13888	11.27051
5.36492	-15.13888	11.27051
5.36912	-15.13888	11.27051
5.37342	-15.13888	11.27051
5.37761	-15.13888	11.27051
5.38180	-15.13888	11.27051
5.38598	-15.13888	11.27051
5.39017	-15.13888	11.27051
5.39446	-15.13888	11.27051
5.39867	-15.13888	11.27051
5.40286	-15.13888	11.27051
5.40704	-15.13888	11.27051
5.41123	-15.13888	11.27051
5.41541	-15.13888	11.27051
5.41959	-15.13888	11.27051
5.42390	-15.13888	11.27051
5.42812	-15.13888	11.27051
5.43231	-15.13888	11.27051
5.43649	-15.13888	11.27051
5.44068	-15.13888	11.27051
5.44486	-15.13888	11.27051
5.44904	-15.16086	11.27051
5.45336	-15.16086	11.27051
5.45760	-15.13888	11.27051
5.46184	-15.13888	11.27051
5.46603	-15.13888	11.27051
5.47022	-15.13888	11.27051
5.47451	-15.13888	11.27051
5.47870	-15.13888	11.27051
5.48295	-15.13888	11.27051
5.48721	-15.16086	11.27051
5.49142	-15.16086	11.27051
5.49561	-15.16086	11.27051
5.49981	-15.16086	11.27051
5.50400	-15.16086	11.27051
5.50818	-15.16086	11.27051
5.51236	-15.13888	11.27051
5.51664	-15.13888	11.27051
5.52085	-15.16086	11.27051
5.52504	-15.16086	11.27051
5.52922	-15.16086	11.27051
5.53341	-15.16086	11.27051
5.53759	-15.16086	11.27051
5.54177	-15.13888	11.27051
5.54606	-15.16086	11.27051
5.55027	-15.16086	11.27051
5.55446	-15.16086	11.27051
5.55864	-15.16086	11.27051
5.56283	-15.16086	11.27051
5.56701	-15.16086	11.27051
5.57120	-15.16086	11.27051
5.57562	-15.16086	11.27051
5.57989	-15.16086	11.27051
5.58408	-15.16086	11.27051
5.58828	-15.16086	11.27051
5.59247	-15.16086	11.27051
5.59666	-15.16086	11.27051
5.60085	-15.16086	11.27051
5.60510	-15.16086	11.27051
5.60937	-15.16086	11.27051
5.61357	-15.16086	11.27051
5.61776	-15.16086	11.27051
5.62195	-15.16086	11.27051
5.62615	-15.16086	11.27051
5.63034	-15.16086	11.27051
5.63452	-15.16086	11.27051
5.63881	-15.16086	11.27051
5.64303	-15.16086	11.27051
5.64722	-15.16086	11.27051
5.65141	-15.16086	11.27051
5.65560	-15.16086	11.27051
5.65981	-15.16086	11.27051
5.66400	-15.16086	11.27051
5.66829	-15.18283	11.27051
5.67250	-15.16086	11.27051
5.67681	-15.18283	11.27051
5.68100	-15.16086	11.27051
5.68519	-15.18283	11.27051
5.68938	-15.18283	11.27051
5.69357	-15.18283	11.27051
5.69789	-15.16086	11.27051
5.70213	-15.18283	11.27051
5.70632	-15.18283	11.27051
5.71051	-15.18283	11.27051
5.71469	-15.18283	11.27051
5.71888	-15.18283	11.27051
5.72306	-15.18283	11.27051
5.72730	-15.18283	11.27051
5.73156	-15.18283	11.27051
5.73577	-15.18283	11.27051
5.73996	-15.18283	11.27051
5.74415	-15.18283	11.27051
5.74833	-15.18283	11.27051
5.75252	-15.18283	11.27051
5.75670	-15.18283	11.27051
5.76098	-15.20480	11.27051
5.76519	-15.18283	11.27051
5.76938	-15.18283	11.27051
5.77356	-15.20480	11.27051
5.77785	-15.20480	11.27051
5.78204	-15.20480	11.27051
5.78622	-15.20480	11.27051
5.79051	-15.20480	11.27051
5.79473	-15.20480	11.27051
5.79892	-15.20480	11.27051
5.80310	-15.20480	11.27051
5.80729	-15.20480	11.27051
5.81147	-15.20480	11.27051
5.81565	-15.20480	11.27051
5.81998	-15.20480	11.27051
5.82422	-15.22677	11.27051
5.82841	-15.20480	11.27051
5.83260	-15.22677	11.27051
5.83678	-15.22677	11.27051
5.84096	-15.22677	11.27051
5.84515	-15.22677	11.27051
5.84937	-15.22677	11.27051
5.85363	-15.22677	11.27051
5.85785	-15.22677	11.27051
5.86205	-15.22677	11.27051
5.86623	-15.22677	11.27051
5.87042	-15.22677	11.27051
5.87460	-15.22677	11.27051
5.87889	-15.22677	11.27051
5.88317	-15.22677	11.27051
5.88739	-15.24875	11.27051
5.89158	-15.24875	11.27051
5.89577	-15.24875	11.27051
5.89996	-15.24875	11.27051
5.90414	-15.24875	11.27051
5.90832	-15.24875	11.27051
5.91261	-15.24875	11.27051
5.91683	-15.24875	11.27051
5.92102	-15.24875	11.27051
5.92520	-15.27072	11.27051
5.92939	-15.27072	11.27051
5.93358	-15.24875	11.27051
5.93776	-15.24875	11.27051
5.94208	-15.27072	11.27051
5.94632	-15.27072	11.27051
5.95051	-15.27072	11.27051
5.95470	-15.27072	11.27051
5.95888	-15.27072	11.27051
5.96307	-15.27072	11.27051
5.96725	-15.27072	11.27051
5.97148	-15.27072	11.27051
5.97573	-15.27072	11.27051
5.98002	-15.27072	11.27051
5.98421	-15.29269	11.27051
5.98839	-15.29269	11.27051
5.99258	-15.29269	11.27051
5.99676	-15.29269	11.27051
6.00094	-15.29269	11.27051
6.00523	-15.29269	11.27051
6.00944	-15.29269	11.27051
6.01363	-15.29269	11.27051
6.01781	-15.29269	11.27051
6.02200	-15.31466	11.27051
6.02618	-15.31466	11.27051
6.03036	-15.29269	11.27051
6.03465	-15.31466	11.27051
6.03887	-15.31466	11.27051
6.04306	-15.31466	11.27051
6.04724	-15.31466	11.27051
6.05143	-15.31466	11.27051
6.05561	-15.31466	11.27051
6.05981	-15.31466	11.27051
6.06412	-15.31466	11.27051
6.06836	-15.33664	11.27051
6.07255	-15.33664	11.27051
6.07674	-15.33664	11.27051
6.08104	-15.33664	11.27051
6.08522	-15.33664	11.27051
6.08941	-15.33664	11.27051
6.09365	-15.33664	11.27051
6.09790	-15.33664	11.27051
6.10210	-15.33664	11.27051
6.10629	-15.33664	11.27051
6.11051	-15.33664	11.27051
6.11470	-15.33664	11.27051
6.11889	-15.33664	11.27051
6.12307	-15.33664	11.27051
6.12742	-15.35861	11.27051
6.13163	-15.35861	11.27051
6.13583	-15.35861	11.27051
6.14002	-15.33664	11.27051
6.14422	-15.33664	11.27051
6.14842	-15.33664	11.27051
6.15261	-15.35861	11.27051
6.15702	-15.33664	11.27051
6.16124	-15.33664	11.27051
6.16543	-15.35861	11.27051
6.16963	-15.35861	11.27051
6.17382	-15.33664	11.27051
6.17801	-15.35861	11.27051
6.18230	-15.35861	11.27051
6.18663	-15.35861	11.27051
6.19088	-15.35861	11.27051
6.19508	-15.35861	11.27051
6.19926	-15.35861	11.27051
6.20345	-15.35861	11.27051
6.20763	-15.33664	11.27051
6.21183	-15.35861	11.27051
6.21607	-15.35861	11.27051
6.22033	-15.33664	11.27051
6.22453	-15.35861	11.27051
6.22872	-15.35861	11.27051
6.23290	-15.35861	11.27051
6.23709	-15.35861	11.27051
6.24127	-15.35861	11.27051
6.24546	-15.33664	11.27051
6.24973	-15.35861	11.27051
6.25397	-15.33664	11.27051
6.25817	-15.35861	11.27051
6.26236	-15.33664	11.27051
6.26655	-15.33664	11.27051
6.27074	-15.35861	11.27051
6.27493	-15.33664	11.27051
6.27927	-15.35861	11.27051
6.28361	-15.35861	11.27051
6.28782	-15.33664	11.27051
6.29200	-15.33664	11.27051
6.29619	-15.35861	11.27051
6.30038	-15.33664	11.27051
6.30457	-15.33664	11.27051
6.30890	-15.33664	11.27051
6.31314	-15.33664	11.27051
6.31734	-15.33664	11.27051
6.32152	-15.33664	11.27051
6.32571	-15.33664	11.27051
6.32989	-15.33664	11.27051
6.33408	-15.33664	11.27051
6.33831	-15.33664	11.27051
6.34258	-15.33664	11.27051
6.34678	-15.33664	11.27051
6.35097	-15.33664	11.27051
6.35516	-15.33664	11.27051
6.35934	-15.31466	11.27051
6.36353	-15.33664	11.27051
6.36771	-15.33664	11.27051
6.37200	-15.33664	11.27051
6.37621	-15.33664	11.27051
6.38040	-15.33664	11.27051
6.38470	-15.31466	11.27051
6.38889	-15.33664	11.27051
6.39307	-15.33664	11.27051
6.39726	-15.31466	11.27051
6.40155	-15.31466	11.27051
6.40578	-15.31466	11.27051
6.40997	-15.31466	11.27051
6.41415	-15.31466	11.27051
6.41834	-15.31466	11.27051
6.42252	-15.31466	11.27051
6.42671	-15.31466	11.27051
6.43103	-15.31466	11.27051
6.43527	-15.31466	11.27051
6.43947	-15.31466	11.27051
6.44366	-15.29269	11.27051
6.44786	-15.29269	11.27051
6.45206	-15.29269	11.27051
6.45625	-15.29269	11.27051
6.46054	-15.29269	11.27051
6.46482	-15.29269	11.27051
6.46903	-15.29269	11.27051
6.47323	-15.29269	11.27051
6.47742	-15.29269	11.27051
6.48161	-15.29269	11.27051
6.48593	-15.27072	11.27051
6.49012	-15.27072	11.27051
6.49441	-15.27072	11.27051
6.49862	-15.27072	11.27051
6.50282	-15.27072	11.27051
6.50701	-15.27072	11.27051
6.51120	-15.27072	11.27051
6.51539	-15.27072	11.27051
6.51958	-15.27072	11.27051
6.52390	-15.24875	11.27051
6.52812	-15.24875	11.27051
6.53231	-15.24875	11.27051
6.53650	-15.24875	11.27051
6.54069	-15.24875	11.27051
6.54488	-15.24875	11.27051
6.54907	-15.24875	11.27051
6.55337	-15.24875	11.27051
6.55760	-15.24875	11.27051
6.56180	-15.24875	11.27051
6.56599	-15.22677	11.27051
6.57018	-15.22677	11.27051
6.57437	-15.22677	11.27051
6.57856	-15.22677	11.27051
6.58279	-15.22677	11.27051
6.58718	-15.20480	11.27051
6.59139	-15.22677	11.27051
6.59558	-15.20480	11.27051
6.59978	-15.20480	11.27051
6.60398	-15.20480	11.27051
6.60817	-15.20480	11.27051
6.61236	-15.20480	11.27051
6.61663	-15.20480	11.27051
6.62084	-15.20480	11.27051
6.62503	-15.18283	11.27051
6.62922	-15.20480	11.27051
6.63341	-15.20480	11.27051
6.63760	-15.18283	11.27051
6.64179	-15.18283	11.27051
6.64615	-15.18283	11.27051
6.65037	-15.18283	11.27051
6.65456	-15.18283	11.27051
6.65875	-15.18283	11.27051
6.66293	-15.18283	11.27051
6.66712	-15.18283	11.27051
6.67131	-15.18283	11.27051
6.67563	-15.18283	11.27051
6.67989	-15.16086	11.27051
6.68408	-15.16086	11.27051
6.68837	-15.16086	11.27051
6.69256	-15.16086	11.27051
6.69675	-15.16086	11.27051
6.70093	-15.16086	11.27051
6.70518	-15.16086	11.27051
6.70944	-15.16086	11.27051
6.71364	-15.16086	11.27051
6.71783	-15.16086	11.27051
6.72202	-15.13888	11.27051
6.72620	-15.13888	11.27051
6.73039	-15.13888	11.27051
6.73457	-15.13888	11.27051
6.73885	-15.13888	11.27051
6.74307	-15.13888	11.27051
6.74726	-15.13888	11.27051
6.75144	-15.13888	11.27051
6.75563	-15.13888	11.27051
6.75983	-15.13888	11.27051
6.76401	-15.11691	11.27051
6.76830	-15.11691	11.27051
6.77252	-15.11691	11.27051
6.77671	-15.11691	11.27051
6.78089	-15.11691	11.27051
6.78508	-15.11691	11.27051
6.78936	-15.11691	11.27051
6.79355	-15.11691	11.27051
6.79787	-15.11691	11.27051
6.80212	-15.11691	11.27051
6.80631	-15.11691	11.27051
6.81050	-15.09494	11.27051
6.81469	-15.09494	11.27051
6.81887	-15.11691	11.27051
6.82306	-15.09494	11.27051
6.82728	-15.09494	11.27051
6.83154	-15.09494	11.27051
6.83575	-15.07297	11.27051
6.83990	-15.09494	11.27051
6.84409	-15.09494	11.27051
6.84827	-15.07297	11.27051
6.85246	-15.07297	11.27051
6.85664	-15.09494	11.27051
6.86093	-15.09494	11.27051
6.86513	-15.07297	11.27051
6.86932	-15.07297	11.27051
6.87351	-15.07297	11.27051
6.87769	-15.07297	11.27051
6.88188	-15.07297	11.27051
6.88606	-15.07297	11.27051
6.89046	-15.07297	11.27051
6.89467	-15.05099	11.27051
6.89886	-15.05099	11.27051
6.90304	-15.07297	11.27051
6.90723	-15.05099	11.27051
6.91141	-15.05099	11.27051
6.91559	-15.07297	11.27051
6.91992	-15.05099	11.27051
6.92417	-15.05099	11.27051
6.92836	-15.05099	11.27051
6.93255	-15.05099	11.27051
6.93673	-15.05099	11.27051
6.94092	-15.05099	11.27051
6.94510	-15.05099	11.27051
6.94933	-15.05099	11.27051
6.95363	-15.05099	11.27051
6.95784	-15.05099	11.27051
6.96203	-15.02902	11.27051
6.96621	-15.02902	11.27051
6.97040	-15.02902	11.27051
6.97458	-15.02902	11.27051
6.97877	-15.02902	11.27051
6.98305	-15.02902	11.27051
6.98726	-15.02902	11.27051
6.99156	-15.02902	11.27051
6.99575	-15.02902	11.27051
6.99990	-15.02902	11.27051
7.00408	-15.02902	11.27051
7.00827	-15.02902	11.27051
7.01257	-15.02902	11.27051
7.01678	-15.02902	11.27051
7.02097	-15.02902	11.27051
7.02516	-15.00705	11.27051
7.02934	-15.00705	11.27051
7.03353	-15.02902	11.27051
7.03771	-15.00705	11.27051
7.04203	-15.00705	11.27051
7.04627	-15.00705	11.27051
7.05047	-15.00705	11.27051
7.05466	-15.00705	11.27051
7.05885	-15.00705	11.27051
7.06305	-15.00705	11.27051
7.06724	-15.00705	11.27051
7.07147	-15.00705	11.27051
7.07574	-15.00705	11.27051
7.07992	-15.00705	11.27051
7.08412	-15.00705	11.27051
7.08831	-15.00705	11.27051
7.09261	-15.00705	11.27051
7.09680	-15.00705	11.27051
7.10099	-15.00705	11.27051
7.10528	-15.00705	11.27051
7.10949	-15.00705	11.27051
7.11368	-15.00705	11.27051
7.11787	-15.00705	11.27051
7.12207	-15.00705	11.27051
7.12626	-15.00705	11.27051
7.13045	-14.98507	11.27051
7.13475	-14.98507	11.27051
7.13897	-14.98507	11.27051
7.14316	-14.98507	11.27051
7.14735	-14.98507	11.27051
7.15154	-14.98507	11.27051
7.15573	-14.98507	11.27051
7.15990	-14.98507	11.27051
7.16422	-14.98507	11.27051
7.16845	-14.98507	11.27051
7.17264	-14.98507	11.27051
7.17682	-14.98507	11.27051
7.18101	-14.98507	11.27051
7.18519	-14.98507	11.27051
7.18938	-14.98507	11.27051
7.19375	-14.98507	11.27051
7.19801	-14.98507	11.27051
7.20221	-14.98507	11.27051
7.20640	-14.98507	11.27051
7.21059	-14.98507	11.27051
7.21477	-14.98507	11.27051
7.21895	-14.98507	11.27051
7.22314	-14.98507	11.27051
7.22742	-14.98507	11.27051
7.23163	-14.98507	11.27051
7.23583	-14.98507	11.27051
7.24001	-14.98507	11.27051
7.24420	-14.98507	11.27051
7.24991	-14.98507	11.27051
7.25428	-14.98507	11.27051
7.25884	-14.98507	11.27051
7.26311	-14.96310	11.27051
7.26732	-14.96310	11.27051
7.27151	-14.98507	11.27051
7.27571	-14.98507	11.27051
7.27991	-14.98507	11.27051
7.28410	-14.98507	11.27051
7.28838	-14.98507	11.27051
7.29263	-14.98507	11.27051
7.29699	-14.96310	11.27051
7.30122	-14.98507	11.27051
7.30545	-14.98507	11.27051
7.30969	-14.96310	11.27051
7.31392	-14.96310	11.27051
7.31834	-14.96310	11.27051
7.32263	-14.96310	11.27051
7.32685	-14.96310	11.27051
7.33105	-14.96310	11.27051
7.33526	-14.96310	11.27051
7.33947	-14.96310	11.27051
7.34367	-14.96310	11.27051
7.34807	-14.96310	11.27051
7.35242	-14.96310	11.27051
7.35669	-14.96310	11.27051
7.36093	-14.96310	11.27051
7.36515	-14.96310	11.27051
7.36935	-14.96310	11.27051
7.37355	-14.96310	11.27051
7.37775	-14.96310	11.27051
7.38204	-14.96310	11.27051
7.38629	-14.96310	11.27051
7.39051	-14.96310	11.27051
7.39472	-14.96310	11.27051
7.39902	-14.96310	11.27051
7.40322	-14.96310	11.27051
7.40740	-14.96310	11.27051
7.41173	-14.96310	11.27051
7.41595	-14.96310	11.27051
7.42016	-14.96310	11.27051
7.42436	-14.96310	11.27051
7.42856	-14.96310	11.27051
7.43275	-14.96310	11.27051
7.43694	-14.96310	11.27051
7.44127	-14.96310	11.27051
7.44552	-14.96310	11.27051
7.44973	-14.94113	11.27051
7.45393	-14.96310	11.27051
7.45813	-14.94113	11.27051
7.46233	-14.94113	11.27051
7.46652	-14.94113	11.27051
7.47077	-14.94113	11.27051
7.47503	-14.94113	11.27051
7.47925	-14.94113	11.27051
7.48346	-14.94113	11.27051
7.48765	-14.94113	11.27051
7.49185	-14.94113	11.27051
7.49604	-14.94113	11.27051
7.50033	-14.91916	11.27051
7.50461	-14.91916	11.27051
7.50885	-14.94113	11.27051
7.51306	-14.91916	11.27051
7.51725	-14.91916	11.27051
7.52145	-14.91916	11.27051
7.52564	-14.91916	11.27051
7.52982	-14.91916	11.27051
7.53411	-14.91916	11.27051
7.53835	-14.91916	11.27051
7.54257	-14.91916	11.27051
7.54677	-14.91916	11.27051
7.55096	-14.91916	11.27051
7.55515	-14.91916	11.27051
7.55933	-14.91916	11.27051
7.56365	-14.91916	11.27051
7.56791	-14.91916	11.27051
7.57212	-14.91916	11.27051
7.57632	-14.91916	11.27051
7.58051	-14.91916	11.27051
7.58470	-14.89718	11.27051
7.58888	-14.91916	11.27051
7.59312	-14.89718	11.27051
7.59738	-14.89718	11.27051
7.60170	-14.89718	11.27051
7.60590	-14.89718	11.27051
7.61010	-14.89718	11.27051
7.61429	-14.89718	11.27051
7.61847	-14.89718	11.27051
7.62266	-14.89718	11.27051
7.62693	-14.89718	11.27051
7.63117	-14.89718	11.27051
7.63538	-14.89718	11.27051
7.63958	-14.89718	11.27051
7.64378	-14.89718	11.27051
7.64797	-14.87521	11.27051
7.65216	-14.87521	11.27051
7.65645	-14.87521	11.27051
7.66072	-14.89718	11.27051
7.66494	-14.87521	11.27051
7.66913	-14.87521	11.27051
7.67331	-14.87521	11.27051
7.67750	-14.87521	11.27051
7.68168	-14.87521	11.27051
7.68686	-14.87521	11.27051
7.69110	-14.87521	11.27051
7.69532	-14.87521	11.27051
7.69952	-14.87521	11.27051
7.70385	-14.87521	11.27051
7.70805	-14.87521	11.27051
7.71224	-14.87521	11.27051
7.71660	-14.87521	11.27051
7.72087	-14.87521	11.27051
7.72508	-14.87521	11.27051
7.72927	-14.87521	11.27051
7.73346	-14.85324	11.27051
7.73766	-14.87521	11.27051
7.74185	-14.87521	11.27051
7.74609	-14.87521	11.27051
7.75036	-14.87521	11.27051
7.75457	-14.87521	11.27051
7.75876	-14.85324	11.27051
7.76296	-14.85324	11.27051
7.76715	-14.85324	11.27051
7.77134	-14.85324	11.27051
7.77553	-14.85324	11.27051
7.77985	-14.85324	11.27051
7.78406	-14.85324	11.27051
7.78826	-14.85324	11.27051
7.79247	-14.85324	11.27051
7.79666	-14.85324	11.27051
7.80086	-14.85324	11.27051
7.80517	-14.85324	11.27051
7.80950	-14.85324	11.27051
7.81372	-14.85324	11.27051
7.81792	-14.85324	11.27051
7.82211	-14.85324	11.27051
7.82631	-14.85324	11.27051
7.83050	-14.85324	11.27051
7.83469	-14.85324	11.27051
7.83902	-14.85324	11.27051
7.84326	-14.85324	11.27051
7.84746	-14.83127	11.27051
7.85165	-14.85324	11.27051
7.85585	-14.83127	11.27051
7.86004	-14.83127	11.27051
7.86423	-14.83127	11.27051
7.86848	-14.83127	11.27051
7.87274	-14.83127	11.27051
7.87695	-14.83127	11.27051
7.88114	-14.83127	11.27051
7.88533	-14.83127	11.27051
7.88951	-14.83127	11.27051
7.89372	-14.83127	11.27051
7.89791	-14.83127	11.27051
7.90219	-14.83127	11.27051
7.90652	-14.83127	11.27051
7.91072	-14.83127	11.27051
7.91491	-14.83127	11.27051
7.91910	-14.83127	11.27051
7.92329	-14.83127	11.27051
7.92747	-14.83127	11.27051
7.93182	-14.83127	11.27051
7.93604	-14.83127	11.27051
7.94023	-14.83127	11.27051
7.94442	-14.83127	11.27051
7.94861	-14.83127	11.27051
7.95279	-14.83127	11.27051
7.95698	-14.83127	11.27051
7.96129	-14.80929	11.27051
7.96554	-14.80929	11.27051
7.96973	-14.83127	11.27051
7.97391	-14.83127	11.27051
7.97811	-14.83127	11.27051
7.98230	-14.83127	11.27051
7.98649	-14.80929	11.27051
7.99072	-14.83127	11.27051
7.99500	-14.80929	11.27051
7.99922	-14.80929	11.27051
8.00341	-14.80929	11.27051
8.00771	-14.80929	11.27051
8.01190	-14.80929	11.27051
8.01609	-14.83127	11.27051
8.02028	-14.80929	11.27051
8.02457	-14.83127	11.27051
8.02878	-14.80929	11.27051
8.03297	-14.80929	11.27051
8.03715	-14.80929	11.27051
8.04134	-14.80929	11.27051
8.04553	-14.80929	11.27051
8.04971	-14.83127	11.27051
8.05402	-14.80929	11.27051
8.05825	-14.80929	11.27051
8.06244	-14.80929	11.27051
8.06663	-14.80929	11.27051
8.07081	-14.80929	11.27051
8.07500	-14.80929	11.27051
8.07919	-14.80929	11.27051
8.08350	-14.80929	11.27051
8.08777	-14.80929	11.27051
8.09197	-14.80929	11.27051
8.09618	-14.80929	11.27051
8.10038	-14.80929	11.27051
8.10458	-14.80929	11.27051
8.10888	-14.80929	11.27051
8.11312	-14.80929	11.27051
8.11739	-14.78732	11.27051
8.12160	-14.80929	11.27051
8.12580	-14.78732	11.27051
8.12999	-14.78732	11.27051
8.13418	-14.78732	11.27051
8.13837	-14.78732	11.27051
8.14256	-14.78732	11.27051
8.14685	-14.78732	11.27051
8.15107	-14.78732	11.27051
8.15526	-14.78732	11.27051
8.15945	-14.78732	11.27051
8.16364	-14.78732	11.27051
8.16784	-14.78732	11.27051
8.17203	-14.78732	11.27051
8.17633	-14.78732	11.27051
8.18055	-14.78732	11.27051
8.18474	-14.78732	11.27051
8.18893	-14.78732	11.27051
8.19315	-14.76535	11.27051
8.19735	-14.76535	11.27051
8.20155	-14.76535	11.27051
8.20590	-14.76535	11.27051
8.21027	-14.76535	11.27051
8.21447	-14.76535	11.27051
8.21866	-14.76535	11.27051
8.22284	-14.76535	11.27051
8.22703	-14.76535	11.27051
8.23122	-14.76535	11.27051
8.23547	-14.74338	11.27051
8.23974	-14.74338	11.27051
8.24393	-14.74338	11.27051
8.24812	-14.74338	11.27051
8.25232	-14.74338	11.27051
8.25652	-14.74338	11.27051
8.26072	-14.74338	11.27051
8.26493	-14.74338	11.27051
8.26925	-14.74338	11.27051
8.27348	-14.74338	11.27051
8.27767	-14.74338	11.27051
8.28186	-14.72140	11.27051
8.28605	-14.74338	11.27051
8.29023	-14.72140	11.27051
8.29445	-14.72140	11.27051
8.29872	-14.72140	11.27051
8.30296	-14.72140	11.27051
8.30717	-14.72140	11.27051
8.31148	-14.72140	11.27051
8.31567	-14.72140	11.27051
8.31987	-14.72140	11.27051
8.32405	-14.72140	11.27051
8.32840	-14.72140	11.27051
8.33265	-14.72140	11.27051
8.33685	-14.69943	11.27051
8.34104	-14.69943	11.27051
8.34523	-14.69943	11.27051
8.34941	-14.72140	11.27051
8.35360	-14.69943	11.27051
8.35783	-14.69943	11.27051
8.36210	-14.69943	11.27051
8.36630	-14.69943	11.27051
8.37049	-14.69943	11.27051
8.37469	-14.69943	11.27051
8.37888	-14.69943	11.27051
8.38306	-14.69943	11.27051
8.38725	-14.67746	11.27051
8.39154	-14.69943	11.27051
8.39579	-14.69943	11.27051
8.39999	-14.67746	11.27051
8.40419	-14.69943	11.27051
8.40838	-14.67746	11.27051
8.41268	-14.67746	11.27051
8.41687	-14.67746	11.27051
8.42125	-14.67746	11.27051
8.42547	-14.67746	11.27051
8.42967	-14.67746	11.27051
8.43387	-14.67746	11.27051
8.43805	-14.67746	11.27051
8.44224	-14.67746	11.27051
8.44643	-14.67746	11.27051
8.45077	-14.67746	11.27051
8.45502	-14.67746	11.27051
8.45922	-14.67746	11.27051
8.46342	-14.67746	11.27051
8.46761	-14.67746	11.27051
8.47181	-14.67746	11.27051
8.47599	-14.67746	11.27051
8.48025	-14.67746	11.27051
8.48451	-14.67746	11.27051
8.48871	-14.67746	11.27051
8.49293	-14.67746	11.27051
8.49713	-14.67746	11.27051
8.50132	-14.67746	11.27051
8.50551	-14.65548	11.27051
8.50969	-14.65548	11.27051
8.51408	-14.67746	11.27051
8.51830	-14.67746	11.27051
8.52248	-14.65548	11.27051
8.52667	-14.65548	11.27051
8.53086	-14.67746	11.27051
8.53505	-14.67746	11.27051
8.53923	-14.67746	11.27051
8.54355	-14.67746	11.27051
8.54779	-14.65548	11.27051
8.55198	-14.67746	11.27051
8.55616	-14.67746	11.27051
8.56035	-14.67746	11.27051
8.56454	-14.67746	11.27051
8.56872	-14.67746	11.27051
8.57305	-14.67746	11.27051
8.57730	-14.67746	11.27051
8.58149	-14.67746	11.27051
8.58568	-14.67746	11.27051
8.58987	-14.67746	11.27051
8.59407	-14.67746	11.27051
8.59826	-14.67746	11.27051
8.60251	-14.67746	11.27051
8.60678	-14.67746	11.27051
8.61098	-14.67746	11.27051
8.61527	-14.67746	11.27051
8.61946	-14.67746	11.27051
8.62365	-14.67746	11.27051
8.62785	-14.67746	11.27051
8.63204	-14.67746	11.27051
8.63632	-14.67746	11.27051
8.64054	-14.67746	11.27051
8.64473	-14.67746	11.27051
8.64892	-14.69943	11.27051
8.65310	-14.67746	11.27051
8.65729	-14.69943	11.27051
8.66147	-14.67746	11.27051
8.66577	-14.67746	11.27051
8.66999	-14.69943	11.27051
8.67418	-14.69943	11.27051
8.67837	-14.69943	11.27051
8.68255	-14.69943	11.27051
8.68674	-14.69943	11.27051
8.69092	-14.69943	11.27051
8.69527	-14.69943	11.27051
8.69953	-14.69943	11.27051
8.70373	-14.69943	11.27051
8.70791	-14.69943	11.27051
8.71210	-14.69943	11.27051
8.71642	-14.69943	11.27051
8.72061	-14.69943	11.27051
8.72485	-14.69943	11.27051
8.72911	-14.69943	11.27051
8.73332	-14.69943	11.27051
8.73751	-14.69943	11.27051
8.74171	-14.69943	11.27051
8.74590	-14.69943	11.27051
8.75009	-14.72140	11.27051
8.75428	-14.72140	11.27051
8.75857	-14.69943	11.27051
8.76278	-14.72140	11.27051
8.76698	-14.72140	11.27051
8.77117	-14.72140	11.27051
8.77536	-14.72140	11.27051
8.77955	-14.72140	11.27051
8.78374	-14.72140	11.27051
8.78801	-14.72140	11.27051
8.79224	-14.72140	11.27051
8.79645	-14.74338	11.27051
8.80064	-14.74338	11.27051
8.80484	-14.74338	11.27051
8.80903	-14.74338	11.27051
8.81322	-14.74338	11.27051
8.81769	-14.74338	11.27051
8.82191	-14.74338	11.27051
8.82611	-14.74338	11.27051
8.83029	-14.76535	11.27051
8.83448	-14.76535	11.27051
8.83867	-14.76535	11.27051
8.84285	-14.76535	11.27051
8.84709	-14.76535	11.27051
8.85135	-14.76535	11.27051
8.85555	-14.76535	11.27051
8.85974	-14.76535	11.27051
8.86390	-14.78732	11.27051
8.86809	-14.78732	11.27051
8.87228	-14.78732	11.27051
8.87646	-14.78732	11.27051
8.88075	-14.78732	11.27051
8.88495	-14.78732	11.27051
8.88914	-14.80929	11.27051
8.89335	-14.80929	11.27051
8.89755	-14.80929	11.27051
8.90174	-14.80929	11.27051
8.90593	-14.80929	11.27051
8.91025	-14.83127	11.27051
8.91448	-14.83127	11.27051
8.91877	-14.83127	11.27051
8.92296	-14.85324	11.27051
8.92715	-14.85324	11.27051
8.93134	-14.85324	11.27051
8.93552	-14.85324	11.27051
8.93986	-14.85324	11.27051
8.94412	-14.87521	11.27051
8.94831	-14.87521	11.27051
8.95250	-14.87521	11.27051
8.95669	-14.87521	11.27051
8.96087	-14.87521	11.27051
8.96506	-14.89718	11.27051
8.96930	-14.89718	11.27051
8.97355	-14.89718	11.27051
8.97775	-14.91916	11.27051
8.98194	-14.91916	11.27051
8.98613	-14.91916	11.27051
8.99031	-14.91916	11.27051
8.99451	-14.91916	11.27051
8.99870	-14.94113	11.27051
9.00300	-14.94113	11.27051
9.00722	-14.94113	11.27051
9.01141	-14.94113	11.27051
9.01566	-14.96310	11.27051
9.01997	-14.96310	11.27051
9.02415	-14.96310	11.27051
9.02835	-14.98507	11.27051
9.03273	-14.98507	11.27051
9.03695	-14.98507	11.27051
9.04114	-14.98507	11.27051
9.04533	-15.00705	11.27051
9.04952	-15.00705	11.27051
9.05370	-15.00705	11.27051
9.05789	-15.02902	11.27051
9.06221	-15.02902	11.27051
9.06647	-15.02902	11.27051
9.07066	-15.02902	11.27051
9.07485	-15.05099	11.27051
9.07904	-15.05099	11.27051
9.08323	-15.05099	11.27051
9.08741	-15.05099	11.27051
9.09164	-15.07297	11.27051
9.09594	-15.07297	11.27051
9.10014	-15.09494	11.27051
9.10433	-15.09494	11.27051
9.10852	-15.09494	11.27051
9.11271	-15.09494	11.27051
9.11690	-15.11691	11.27051
9.12119	-15.11691	11.27051
9.12547	-15.13888	11.27051
9.12967	-15.13888	11.27051
9.13386	-15.13888	11.27051
9.13805	-15.13888	11.27051
9.14224	-15.16086	11.27051
9.14642	-15.16086	11.27051
9.15061	-15.16086	11.27051
9.15490	-15.18283	11.27051
9.15912	-15.18283	11.27051
9.16331	-15.18283	11.27051
9.16750	-15.18283	11.27051
9.17168	-15.20480	11.27051
9.17588	-15.22677	11.27051
9.18006	-15.22677	11.27051
9.18439	-15.22677	11.27051
9.18863	-15.24875	11.27051
9.19284	-15.24875	11.27051
9.19705	-15.24875	11.27051
9.20125	-15.27072	11.27051
9.20544	-15.27072	11.27051
9.20963	-15.27072	11.27051
9.21389	-15.29269	11.27051
9.21816	-15.29269	11.27051
9.22247	-15.29269	11.27051
9.22666	-15.29269	11.27051
9.23085	-15.31466	11.27051
9.23503	-15.31466	11.27051
9.23922	-15.33664	11.27051
9.24341	-15.33664	11.27051
9.24769	-15.33664	11.27051
9.25192	-15.33664	11.27051
9.25611	-15.35861	11.27051
9.26030	-15.35861	11.27051
9.26452	-15.38058	11.27051
9.26871	-15.38058	11.27051
9.27289	-15.38058	11.27051
9.27726	-15.38058	11.27051
9.28148	-15.38058	11.27051
9.28567	-15.40256	11.27051
9.28987	-15.40256	11.27051
9.29407	-15.42453	11.27051
9.29826	-15.42453	11.27051
9.30245	-15.42453	11.27051
9.30678	-15.42453	11.27051
9.31104	-15.42453	11.27051
9.31524	-15.44650	11.27051
9.31943	-15.44650	11.27051
9.32374	-15.44650	11.27051
9.32790	-15.44650	11.27051
9.33209	-15.46847	11.27051
9.33634	-15.46847	11.27051
9.34061	-15.46847	11.27051
9.34481	-15.49045	11.27051
9.34900	-15.49045	11.27051
9.35318	-15.49045	11.27051
9.35737	-15.49045	11.27051
9.36156	-15.51242	11.27051
9.36574	-15.49045	11.27051
9.37004	-15.51242	11.27051
9.37426	-15.51242	11.27051
9.37845	-15.51242	11.27051
9.38263	-15.51242	11.27051
9.38682	-15.51242	11.27051
9.39100	-15.51242	11.27051
9.39521	-15.53439	11.27051
9.39956	-15.53439	11.27051
9.40380	-15.53439	11.27051
9.40799	-15.53439	11.27051
9.41218	-15.53439	11.27051
9.41637	-15.53439	11.27051
9.42055	-15.53439	11.27051
9.42484	-15.53439	11.27051
9.42919	-15.53439	11.27051
9.43345	-15.53439	11.27051
9.43764	-15.53439	11.27051
9.44183	-15.53439	11.27051
9.44602	-15.55636	11.27051
9.45021	-15.53439	11.27051
9.45439	-15.53439	11.27051
9.45864	-15.55636	11.27051
9.46292	-15.55636	11.27051
9.46712	-15.55636	11.27051
9.47131	-15.55636	11.27051
9.47550	-15.53439	11.27051
9.47969	-15.55636	11.27051
9.48388	-15.55636	11.27051
9.48807	-15.53439	11.27051
9.49236	-15.55636	11.27051
9.49660	-15.53439	11.27051
9.50079	-15.55636	11.27051
9.50499	-15.55636	11.27051
9.50918	-15.53439	11.27051
9.51336	-15.53439	11.27051
9.51755	-15.53439	11.27051
9.52190	-15.53439	11.27051
9.52623	-15.53439	11.27051
9.53042	-15.53439	11.27051
9.53460	-15.53439	11.27051
9.53879	-15.53439	11.27051
9.54298	-15.53439	11.27051
9.54716	-15.51242	11.27051
9.55149	-15.51242	11.27051
9.55575	-15.51242	11.27051
9.55991	-15.51242	11.27051
9.56410	-15.51242	11.27051
9.56829	-15.51242	11.27051
9.57247	-15.51242	11.27051
9.57666	-15.49045	11.27051
9.58090	-15.49045	11.27051
9.58516	-15.49045	11.27051
9.58936	-15.49045	11.27051
9.59356	-15.49045	11.27051
9.59776	-15.46847	11.27051
9.60196	-15.46847	11.27051
9.60614	-15.46847	11.27051
9.61033	-15.46847	11.27051
9.61462	-15.46847	11.27051
9.61883	-15.44650	11.27051
9.62302	-15.44650	11.27051
9.62731	-15.42453	11.27051
9.63150	-15.44650	11.27051
9.63568	-15.44650	11.27051
9.63988	-15.42453	11.27051
9.64419	-15.42453	11.27051
9.64840	-15.40256	11.27051
9.65259	-15.40256	11.27051
9.65678	-15.40256	11.27051
9.66097	-15.38058	11.27051
9.66515	-15.38058	11.27051
9.66934	-15.38058	11.27051
9.67366	-15.35861	11.27051
9.67791	-15.35861	11.27051
9.68210	-15.35861	11.27051
9.68628	-15.33664	11.27051
9.69047	-15.33664	11.27051
9.69468	-15.33664	11.27051
9.69887	-15.31466	11.27051
9.70311	-15.31466	11.27051
9.70738	-15.31466	11.27051
9.71158	-15.29269	11.27051
9.71579	-15.29269	11.27051
9.71998	-15.27072	11.27051
9.72417	-15.27072	11.27051
9.72845	-15.27072	11.27051
9.73264	-15.24875	11.27051
9.73692	-15.24875	11.27051
9.74114	-15.22677	11.27051
9.74533	-15.22677	11.27051
9.74951	-15.22677	11.27051
9.75370	-15.20480	11.27051
9.75788	-15.20480	11.27051
9.76207	-15.20480	11.27051
9.76636	-15.18283	11.27051
9.77057	-15.18283	11.27051
9.77476	-15.18283	11.27051
9.77895	-15.16086	11.27051
9.78314	-15.16086	11.27051
9.78732	-15.16086	11.27051
9.79151	-15.13888	11.27051
9.79587	-15.13888	11.27051
9.80014	-15.13888	11.27051
9.80435	-15.11691	11.27051
9.80854	-15.11691	11.27051
9.81273	-15.09494	11.27051
9.81692	-15.09494	11.27051
9.82111	-15.09494	11.27051
9.82535	-15.09494	11.27051
9.82973	-15.07297	11.27051
9.83394	-15.07297	11.27051
9.83813	-15.07297	11.27051
9.84232	-15.02902	11.27051
9.84651	-15.02902	11.27051
9.85071	-15.02902	11.27051
9.85490	-15.02902	11.27051
9.85919	-15.02902	11.27051
9.86340	-15.02902	11.27051
9.86760	-15.00705	11.27051
9.87180	-15.00705	11.27051
9.87600	-15.00705	11.27051
9.88019	-14.98507	11.27051
9.88439	-14.98507	11.27051
9.88869	-14.98507	11.27051
9.89291	-14.96310	11.27051
9.89713	-14.96310	11.27051
9.90133	-14.96310	11.27051
9.90552	-14.96310	11.27051
9.90971	-14.94113	11.27051
9.91390	-14.94113	11.27051
9.91823	-14.94113	11.27051
9.92248	-14.91916	11.27051
9.92668	-14.91916	11.27051
9.93098	-14.91916	11.27051
9.93516	-14.91916	11.27051
9.93935	-14.89718	11.27051
9.94353	-14.89718	11.27051
9.94779	-14.89718	11.27051
9.95205	-14.89718	11.27051
9.95626	-14.89718	11.27051
9.96045	-14.89718	11.27051
9.96464	-14.87521	11.27051
9.96882	-14.87521	11.27051
9.97301	-14.87521	11.27051
9.97719	-14.85324	11.27051
9.98148	-14.85324	11.27051
9.98569	-14.85324	11.27051
9.98988	-14.85324	11.27051
9.99407	-14.85324	11.27051
9.99828	-14.85324	11.27051
10.00247	-14.83127	11.27051
10.00666	-14.83127	11.27051
10.01100	-14.83127	11.27051
10.01522	-14.83127	11.27051
10.01941	-14.83127	11.27051
10.02360	-14.83127	11.27051
10.02781	-14.80929	11.27051
10.03211	-14.80929	11.27051
10.03629	-14.80929	11.27051
10.04063	-14.80929	11.27051
10.04488	-14.78732	11.27051
10.04907	-14.78732	11.27051
10.05326	-14.78732	11.27051
10.05745	-14.78732	11.27051
10.06164	-14.78732	11.27051
10.06582	-14.78732	11.27051
10.07006	-14.78732	11.27051
10.07432	-14.78732	11.27051
10.07852	-14.76535	11.27051
10.08271	-14.76535	11.27051
10.08690	-14.76535	11.27051
10.09108	-14.76535	11.27051
10.09529	-14.76535	11.27051
10.09948	-14.76535	11.27051
10.10378	-14.76535	11.27051
10.10800	-14.76535	11.27051
10.11219	-14.76535	11.27051
10.11638	-14.74338	11.27051
10.12056	-14.74338	11.27051
10.12475	-14.74338	11.27051
10.12895	-14.74338	11.27051
10.13338	-14.74338	11.27051
10.13759	-14.74338	11.27051
10.14178	-14.74338	11.27051
10.14597	-14.74338	11.27051
10.15015	-14.74338	11.27051
10.15434	-14.72140	11.27051
10.15853	-14.72140	11.27051
10.16285	-14.72140	11.27051
10.16711	-14.72140	11.27051
10.17131	-14.72140	11.27051
10.17550	-14.72140	11.27051
10.17968	-14.72140	11.27051
10.18388	-14.72140	11.27051
10.18807	-14.72140	11.27051
10.19234	-14.72140	11.27051
10.19662	-14.72140	11.27051
10.20083	-14.72140	11.27051
10.20502	-14.72140	11.27051
10.20922	-14.72140	11.27051
10.21341	-14.72140	11.27051
10.21760	-14.72140	11.27051
10.22179	-14.72140	11.27051
10.22608	-14.72140	11.27051
10.23029	-14.72140	11.27051
10.23459	-14.69943	11.27051
10.23877	-14.69943	11.27051
10.24296	-14.72140	11.27051
10.24715	-14.72140	11.27051
10.25134	-14.69943	11.27051
10.25567	-14.72140	11.27051
10.25990	-14.69943	11.27051
10.26412	-14.69943	11.27051
10.26832	-14.72140	11.27051
10.27250	-14.72140	11.27051
10.27669	-14.72140	11.27051
10.28087	-14.69943	11.27051
10.28521	-14.72140	11.27051
10.28946	-14.72140	11.27051
10.29366	-14.72140	11.27051
10.29786	-14.72140	11.27051
10.30205	-14.72140	11.27051
10.30626	-14.72140	11.27051
10.31045	-14.72140	11.27051
10.31469	-14.72140	11.27051
10.31895	-14.72140	11.27051
10.32316	-14.72140	11.27051
10.32736	-14.72140	11.27051
10.33155	-14.72140	11.27051
10.33586	-14.72140	11.27051
10.34004	-14.72140	11.27051
10.34423	-14.74338	11.27051
10.34851	-14.72140	11.27051
10.35272	-14.72140	11.27051
10.35691	-14.74338	11.27051
10.36110	-14.74338	11.27051
10.36529	-14.74338	11.27051
10.36949	-14.74338	11.27051
10.37368	-14.74338	11.27051
10.37801	-14.74338	11.27051
10.38223	-14.74338	11.27051
10.38642	-14.76535	11.27051
10.39061	-14.74338	11.27051
10.39480	-14.76535	11.27051
10.39900	-14.76535	11.27051
10.40319	-14.76535	11.27051
10.40753	-14.78732	11.27051
10.41179	-14.76535	11.27051
10.41599	-14.78732	11.27051
10.42018	-14.78732	11.27051
10.42437	-14.78732	11.27051
10.42856	-14.78732	11.27051
10.43274	-14.78732	11.27051
10.43709	-14.78732	11.27051
10.44135	-14.80929	11.27051
10.44555	-14.80929	11.27051
10.44974	-14.80929	11.27051
10.45392	-14.80929	11.27051
10.45811	-14.80929	11.27051
10.46230	-14.80929	11.27051
10.46648	-14.83127	11.27051
10.47077	-14.83127	11.27051
10.47499	-14.83127	11.27051
10.47918	-14.83127	11.27051
10.48337	-14.83127	11.27051
10.48755	-14.85324	11.27051
10.49174	-14.85324	11.27051
10.49592	-14.85324	11.27051
10.50028	-14.85324	11.27051
10.50450	-14.87521	11.27051
10.50869	-14.87521	11.27051
10.51289	-14.87521	11.27051
10.51708	-14.87521	11.27051
10.52126	-14.87521	11.27051
10.52545	-14.87521	11.27051
10.52979	-14.89718	11.27051
10.53404	-14.89718	11.27051
10.53834	-14.89718	11.27051
10.54253	-14.89718	11.27051
10.54672	-14.91916	11.27051
10.55091	-14.91916	11.27051
10.55509	-14.91916	11.27051
10.55933	-14.91916	11.27051
10.56359	-14.91916	11.27051
10.56781	-14.94113	11.27051
10.57200	-14.94113	11.27051
10.57619	-14.94113	11.27051
10.58038	-14.94113	11.27051
10.58456	-14.96310	11.27051
10.58875	-14.96310	11.27051
10.59303	-14.96310	11.27051
10.59726	-14.96310	11.27051
10.60146	-14.96310	11.27051
10.60565	-14.96310	11.27051
10.60985	-14.98507	11.27051
10.61404	-14.98507	11.27051
10.61822	-14.98507	11.27051
10.62255	-15.00705	11.27051
10.62677	-15.00705	11.27051
10.63096	-15.00705	11.27051
10.63515	-15.00705	11.27051
10.63944	-15.00705	11.27051
10.64363	-15.02902	11.27051
10.64782	-15.00705	11.27051
10.65215	-15.02902	11.27051
10.65641	-15.02902	11.27051
10.66060	-15.02902	11.27051
10.66479	-15.05099	11.27051
10.66898	-15.05099	11.27051
10.67317	-15.05099	11.27051
10.67735	-15.05099	11.27051
10.68159	-15.05099	11.27051
10.68585	-15.07297	11.27051
10.69005	-15.07297	11.27051
10.69424	-15.07297	11.27051
10.69845	-15.07297	11.27051
10.70264	-15.07297	11.27051
10.70683	-15.09494	11.27051
10.71103	-15.09494	11.27051
10.71532	-15.09494	11.27051
10.71953	-15.09494	11.27051
10.72372	-15.09494	11.27051
10.72790	-15.11691	11.27051
10.73209	-15.11691	11.27051
10.73627	-15.11691	11.27051
10.74056	-15.11691	11.27051
10.74487	-15.11691	11.27051
10.74908	-15.13888	11.27051
10.75327	-15.13888	11.27051
10.75746	-15.13888	11.27051
10.76165	-15.13888	11.27051
10.76583	-15.13888	11.27051
10.77002	-15.16086	11.27051
10.77433	-15.16086	11.27051
10.77859	-15.16086	11.27051
10.78278	-15.16086	11.27051
10.78697	-15.16086	11.27051
10.79116	-15.16086	11.27051
10.79535	-15.18283	11.27051
10.79955	-15.18283	11.27051
10.80381	-15.18283	11.27051
10.80808	-15.18283	11.27051
10.81229	-15.18283	11.27051
10.81648	-15.18283	11.27051
10.82067	-15.20480	11.27051
10.82486	-15.20480	11.27051
10.82904	-15.20480	11.27051
10.83323	-15.20480	11.27051
10.83751	-15.20480	11.27051
10.84184	-15.22677	11.27051
10.84603	-15.22677	11.27051
10.85021	-15.22677	11.27051
10.85440	-15.22677	11.27051
10.85858	-15.22677	11.27051
10.86277	-15.22677	11.27051
10.86710	-15.24875	11.27051
10.87132	-15.24875	11.27051
10.87552	-15.24875	11.27051
10.87971	-15.24875	11.27051
10.88390	-15.24875	11.27051
10.88808	-15.24875	11.27051
10.89227	-15.27072	11.27051
10.89665	-15.27072	11.27051
10.90090	-15.27072	11.27051
10.90510	-15.27072	11.27051
10.90929	-15.27072	11.27051
10.91348	-15.29269	11.27051
10.91766	-15.29269	11.27051
10.92185	-15.29269	11.27051
10.92609	-15.29269	11.27051
10.93035	-15.29269	11.27051
10.93455	-15.29269	11.27051
10.93877	-15.31466	11.27051
10.94307	-15.31466	11.27051
10.94726	-15.31466	11.27051
10.95144	-15.31466	11.27051
10.95563	-15.31466	11.27051
10.95990	-15.31466	11.27051
10.96411	-15.33664	11.27051
10.96830	-15.31466	11.27051
10.97249	-15.33664	11.27051
10.97667	-15.33664	11.27051
10.98086	-15.35861	11.27051
10.98505	-15.35861	11.27051
10.98942	-15.33664	11.27051
10.99363	-15.35861	11.27051
10.99784	-15.35861	11.27051
11.00203	-15.35861	11.27051
11.00621	-15.35861	11.27051
11.01041	-15.38058	11.27051
11.01461	-15.38058	11.27051
11.01885	-15.35861	11.27051
11.02316	-15.38058	11.27051
11.02737	-15.38058	11.27051
11.03155	-15.38058	11.27051
11.03574	-15.38058	11.27051
11.03990	-15.38058	11.27051
11.04419	-15.38058	11.27051
11.04842	-15.40256	11.27051
11.05275	-15.40256	11.27051
11.05699	-15.40256	11.27051
11.06120	-15.40256	11.27051
11.06540	-15.40256	11.27051
11.06960	-15.40256	11.27051
11.07380	-15.40256	11.27051
11.07800	-15.42453	11.27051
11.08231	-15.42453	11.27051
11.08652	-15.42453	11.27051
11.09072	-15.42453	11.27051
11.09492	-15.42453	11.27051
11.09911	-15.42453	11.27051
11.10331	-15.44650	11.27051
11.10750	-15.44650	11.27051
11.11183	-15.44650	11.27051
11.11605	-15.46847	11.27051
11.12025	-15.46847	11.27051
11.12444	-15.44650	11.27051
11.12863	-15.46847	11.27051
11.13281	-15.46847	11.27051
11.13700	-15.46847	11.27051
11.14134	-15.46847	11.27051
11.14571	-15.46847	11.27051
11.14990	-15.49045	11.27051
11.15409	-15.49045	11.27051
11.15828	-15.49045	11.27051
11.16246	-15.49045	11.27051
11.16665	-15.49045	11.27051
11.17089	-15.51242	11.27051
11.17516	-15.51242	11.27051
11.17936	-15.51242	11.27051
11.18355	-15.51242	11.27051
11.18773	-15.51242	11.27051
11.19191	-15.51242	11.27051
11.19610	-15.51242	11.27051
11.20029	-15.51242	11.27051
11.20459	-15.53439	11.27051
11.20880	-15.53439	11.27051
11.21299	-15.53439	11.27051
11.21719	-15.53439	11.27051
11.22137	-15.55636	11.27051
11.22556	-15.55636	11.27051
11.22974	-15.53439	11.27051
11.23409	-15.55636	11.27051
11.23830	-15.55636	11.27051
11.24249	-15.55636	11.27051
11.24679	-15.55636	11.27051
11.25097	-15.57834	11.27051
11.25516	-15.55636	11.27051
11.25935	-15.57834	11.27051
11.26369	-15.57834	11.27051
11.26796	-15.57834	11.27051
11.27216	-15.57834	11.27051
11.27636	-15.57834	11.27051
11.28055	-15.57834	11.27051
11.28473	-15.60031	11.27051
11.28892	-15.60031	11.27051
11.29318	-15.60031	11.27051
11.29746	-15.60031	11.27051
11.30166	-15.60031	11.27051
11.30584	-15.60031	11.27051
11.31003	-15.62228	11.27051
11.31422	-15.62228	11.27051
11.31841	-15.62228	11.27051
11.32260	-15.62228	11.27051
11.32690	-15.62228	11.27051
11.33111	-15.62228	11.27051
11.33530	-15.62228	11.27051
11.33949	-15.64425	11.27051
11.34368	-15.64425	11.27051
11.34799	-15.64425	11.27051
11.35217	-15.64425	11.27051
11.35652	-15.64425	11.27051
11.36073	-15.64425	11.27051
11.36492	-15.64425	11.27051
11.36911	-15.66623	11.27051
11.37330	-15.64425	11.27051
11.37749	-15.66623	11.27051
11.38167	-15.66623	11.27051
11.38602	-15.66623	11.27051
11.39028	-15.68820	11.27051
11.39447	-15.66623	11.27051
11.39866	-15.66623	11.27051
11.40284	-15.68820	11.27051
11.40703	-15.68820	11.27051
11.41121	-15.68820	11.27051
11.41546	-15.68820	11.27051
11.41974	-15.68820	11.27051
11.42391	-15.68820	11.27051
11.42810	-15.68820	11.27051
11.43229	-15.71017	11.27051
11.43647	-15.71017	11.27051
11.44066	-15.71017	11.27051
11.44484	-15.71017	11.27051
11.44924	-15.71017	11.27051
11.45344	-15.71017	11.27051
11.45763	-15.71017	11.27051
11.46185	-15.71017	11.27051
11.46604	-15.71017	11.27051
11.47023	-15.71017	11.27051
11.47442	-15.73214	11.27051
11.47876	-15.73214	11.27051
11.48298	-15.73214	11.27051
11.48716	-15.73214	11.27051
11.49135	-15.73214	11.27051
11.49554	-15.73214	11.27051
11.49973	-15.75412	11.27051
11.50390	-15.73214	11.27051
11.50825	-15.75412	11.27051
11.51250	-15.75412	11.27051
11.51669	-15.73214	11.27051
11.52088	-15.75412	11.27051
11.52507	-15.75412	11.27051
11.52926	-15.75412	11.27051
11.53344	-15.75412	11.27051
11.53769	-15.75412	11.27051
11.54196	-15.75412	11.27051
11.54616	-15.77609	11.27051
11.55045	-15.75412	11.27051
11.55464	-15.77609	11.27051
11.55882	-15.77609	11.27051
11.56301	-15.75412	11.27051
11.56720	-15.75412	11.27051
11.57150	-15.77609	11.27051
11.57571	-15.77609	11.27051
11.57990	-15.77609	11.27051
11.58409	-15.77609	11.27051
11.58828	-15.77609	11.27051
11.59246	-15.77609	11.27051
11.59665	-15.77609	11.27051
11.60098	-15.77609	11.27051
11.60519	-15.77609	11.27051
11.60938	-15.77609	11.27051
11.61357	-15.77609	11.27051
11.61776	-15.77609	11.27051
11.62194	-15.77609	11.27051
11.62613	-15.77609	11.27051
11.63046	-15.79806	11.27051
11.63472	-15.77609	11.27051
11.63891	-15.79806	11.27051
11.64310	-15.79806	11.27051
11.64728	-15.77609	11.27051
11.65157	-15.79806	11.27051
11.65577	-15.79806	11.27051
11.66002	-15.77609	11.27051
11.66429	-15.79806	11.27051
11.66849	-15.79806	11.27051
11.67268	-15.77609	11.27051
11.67687	-15.77609	11.27051
11.68106	-15.77609	11.27051
11.68524	-15.77609	11.27051
11.68943	-15.77609	11.27051
11.69372	-15.77609	11.27051
11.69793	-15.77609	11.27051
11.70212	-15.79806	11.27051
11.70631	-15.77609	11.27051
11.71050	-15.77609	11.27051
11.71468	-15.77609	11.27051
11.71887	-15.77609	11.27051
11.72320	-15.77609	11.27051
11.72741	-15.77609	11.27051
11.73160	-15.77609	11.27051
11.73579	-15.77609	11.27051
11.73998	-15.75412	11.27051
11.74417	-15.77609	11.27051
11.74835	-15.77609	11.27051
11.75281	-15.77609	11.27051
11.75706	-15.75412	11.27051
11.76125	-15.75412	11.27051
11.76544	-15.75412	11.27051
11.76964	-15.75412	11.27051
11.77383	-15.75412	11.27051
11.77803	-15.75412	11.27051
11.78226	-15.75412	11.27051
11.78655	-15.75412	11.27051
11.79076	-15.73214	11.27051
11.79495	-15.73214	11.27051
11.79914	-15.73214	11.27051
11.80334	-15.73214	11.27051
11.80753	-15.73214	11.27051
11.81172	-15.73214	11.27051
11.81602	-15.71017	11.27051
11.82023	-15.73214	11.27051
11.82443	-15.71017	11.27051
11.82862	-15.71017	11.27051
11.83281	-15.71017	11.27051
11.83700	-15.71017	11.27051
11.84119	-15.71017	11.27051
11.84550	-15.68820	11.27051
11.84971	-15.68820	11.27051
11.85402	-15.68820	11.27051
11.85821	-15.68820	11.27051
11.86241	-15.66623	11.27051
11.86660	-15.66623	11.27051
11.87079	-15.66623	11.27051
11.87512	-15.64425	11.27051
11.87937	-15.64425	11.27051
11.88357	-15.64425	11.27051
11.88777	-15.64425	11.27051
11.89197	-15.64425	11.27051
11.89616	-15.64425	11.27051
11.90035	-15.62228	11.27051
11.90460	-15.62228	11.27051
11.90888	-15.62228	11.27051
11.91309	-15.62228	11.27051
11.91728	-15.62228	11.27051
11.92147	-15.60031	11.27051
11.92567	-15.60031	11.27051
11.92985	-15.60031	11.27051
11.93404	-15.60031	11.27051
11.93833	-15.57834	11.27051
11.94254	-15.57834	11.27051
11.94673	-15.57834	11.27051
11.95091	-15.57834	11.27051
11.95520	-15.55636	11.27051
11.95939	-15.55636	11.27051
11.96358	-15.55636	11.27051
11.96794	-15.55636	11.27051
11.97215	-15.55636	11.27051
11.97634	-15.53439	11.27051
11.98053	-15.53439	11.27051
11.98471	-15.53439	11.27051
11.98890	-15.53439	11.27051
11.99309	-15.51242	11.27051
11.99742	-15.51242	11.27051
12.00169	-15.51242	11.27051
12.00589	-15.51242	11.27051
12.01008	-15.49045	11.27051
12.01427	-15.49045	11.27051
12.01846	-15.49045	11.27051
12.02266	-15.49045	11.27051
12.02691	-15.46847	11.27051
12.03118	-15.46847	11.27051
12.03539	-15.46847	11.27051
12.03957	-15.44650	11.27051
12.04377	-15.44650	11.27051
12.04796	-15.46847	11.27051
12.05215	-15.44650	11.27051
12.05644	-15.44650	11.27051
12.06073	-15.42453	11.27051
12.06493	-15.42453	11.27051
12.06911	-15.42453	11.27051
12.07330	-15.42453	11.27051
12.07749	-15.42453	11.27051
12.08167	-15.42453	11.27051
12.08586	-15.40256	11.27051
12.09018	-15.40256	11.27051
12.09439	-15.40256	11.27051
12.09860	-15.38058	11.27051
12.10279	-15.40256	11.27051
12.10699	-15.38058	11.27051
12.11118	-15.38058	11.27051
12.11537	-15.38058	11.27051
12.11970	-15.35861	11.27051
12.12397	-15.35861	11.27051
12.12816	-15.35861	11.27051
12.13235	-15.35861	11.27051
12.13654	-15.35861	11.27051
12.14073	-15.35861	11.27051
12.14491	-15.35861	11.27051
12.14915	-15.33664	11.27051
12.15342	-15.35861	11.27051
12.15773	-15.33664	11.27051
12.16192	-15.33664	11.27051
12.16610	-15.31466	11.27051
12.17029	-15.31466	11.27051
12.17447	-15.31466	11.27051
12.17866	-15.31466	11.27051
12.18296	-15.31466	11.27051
12.18716	-15.31466	11.27051
12.19136	-15.29269	11.27051
12.19555	-15.29269	11.27051
12.19975	-15.29269	11.27051
12.20391	-15.29269	11.27051
12.20811	-15.29269	11.27051
12.21249	-15.29269	11.27051
12.21670	-15.29269	11.27051
12.22089	-15.29269	11.27051
12.22508	-15.29269	11.27051
12.22927	-15.29269	11.27051
12.23346	-15.27072	11.27051
12.23765	-15.29269	11.27051
12.24200	-15.27072	11.27051
12.24627	-15.27072	11.27051
12.25048	-15.27072	11.27051
12.25467	-15.27072	11.27051
12.25897	-15.27072	11.27051
12.26315	-15.24875	11.27051
12.26734	-15.24875	11.27051
12.27162	-15.27072	11.27051
12.27592	-15.27072	11.27051
12.28012	-15.24875	11.27051
12.28431	-15.27072	11.27051
12.28850	-15.24875	11.27051
12.29269	-15.24875	11.27051
12.29688	-15.27072	11.27051
12.30108	-15.24875	11.27051
12.30538	-15.24875	11.27051
12.30958	-15.24875	11.27051
12.31378	-15.24875	11.27051
12.31797	-15.24875	11.27051
12.32215	-15.24875	11.27051
12.32635	-15.24875	11.27051
12.33053	-15.24875	11.27051
12.33487	-15.24875	11.27051
12.33908	-15.24875	11.27051
12.34327	-15.24875	11.27051
12.34746	-15.24875	11.27051
12.35166	-15.24875	11.27051
12.35586	-15.24875	11.27051
12.36015	-15.24875	11.27051
12.36449	-15.24875	11.27051
12.36875	-15.24875	11.27051
12.37295	-15.24875	11.27051
12.37714	-15.24875	11.27051
12.38133	-15.27072	11.27051
12.38552	-15.27072	11.27051
12.38971	-15.24875	11.27051
12.39396	-15.27072	11.27051
12.39829	-15.24875	11.27051
12.40250	-15.27072	11.27051
12.40669	-15.27072	11.27051
12.41089	-15.27072	11.27051
12.41508	-15.24875	11.27051
12.41928	-15.27072	11.27051
12.42347	-15.27072	11.27051
12.42778	-15.27072	11.27051
12.43199	-15.27072	11.27051
12.43618	-15.27072	11.27051
12.44037	-15.27072	11.27051
12.44456	-15.27072	11.27051
12.44874	-15.29269	11.27051
12.45293	-15.27072	11.27051
12.45726	-15.29269	11.27051
12.46164	-15.29269	11.27051
12.46583	-15.29269	11.27051
12.47002	-15.29269	11.27051
12.47421	-15.31466	11.27051
12.47839	-15.29269	11.27051
12.48258	-15.29269	11.27051
12.48692	-15.29269	11.27051
12.49117	-15.31466	11.27051
12.49536	-15.31466	11.27051
12.49957	-15.31466	11.27051
12.50377	-15.31466	11.27051
12.50796	-15.31466	11.27051
12.51215	-15.33664	11.27051
12.51642	-15.33664	11.27051
12.52070	-15.33664	11.27051
12.52490	-15.33664	11.27051
12.52909	-15.33664	11.27051
12.53328	-15.33664	11.27051
12.53747	-15.33664	11.27051
12.54166	-15.35861	11.27051
12.54584	-15.35861	11.27051
12.55014	-15.35861	11.27051
12.55434	-15.35861	11.27051
12.55853	-15.38058	11.27051
12.56283	-15.38058	11.27051
12.56701	-15.38058	11.27051
12.57120	-15.38058	11.27051
12.57538	-15.38058	11.27051
12.57971	-15.38058	11.27051
12.58392	-15.40256	11.27051
12.58811	-15.40256	11.27051
12.59230	-15.42453	11.27051
12.59649	-15.42453	11.27051
12.60069	-15.40256	11.27051
12.60489	-15.42453	11.27051
12.60921	-15.42453	11.27051
12.61349	-15.42453	11.27051
12.61768	-15.44650	11.27051
12.62187	-15.44650	11.27051
12.62606	-15.44650	11.27051
12.63025	-15.44650	11.27051
12.63443	-15.46847	11.27051
12.63869	-15.46847	11.27051
12.64296	-15.46847	11.27051
12.64716	-15.46847	11.27051
12.65134	-15.46847	11.27051
12.65553	-15.49045	11.27051
12.65972	-15.49045	11.27051
12.66400	-15.51242	11.27051
12.66819	-15.51242	11.27051
12.67248	-15.51242	11.27051
12.67668	-15.51242	11.27051
12.68086	-15.51242	11.27051
12.68505	-15.53439	11.27051
12.68924	-15.53439	11.27051
12.69342	-15.53439	11.27051
12.69761	-15.53439	11.27051
12.70197	-15.55636	11.27051
12.70619	-15.55636	11.27051
12.71038	-15.55636	11.27051
12.71457	-15.55636	11.27051
12.71876	-15.57834	11.27051
12.72294	-15.57834	11.27051
12.72713	-15.57834	11.27051
12.73146	-15.57834	11.27051
12.73571	-15.60031	11.27051
12.73991	-15.60031	11.27051
12.74410	-15.60031	11.27051
12.74828	-15.62228	11.27051
12.75247	-15.62228	11.27051
12.75665	-15.62228	11.27051
12.76089	-15.62228	11.27051
12.76527	-15.62228	11.27051
12.76947	-15.64425	11.27051
12.77365	-15.64425	11.27051
12.77784	-15.64425	11.27051
12.78203	-15.64425	11.27051
12.78621	-15.66623	11.27051
12.79040	-15.64425	11.27051
12.79470	-15.66623	11.27051
12.79892	-15.66623	11.27051
12.80312	-15.68820	11.27051
12.80731	-15.68820	11.27051
12.81149	-15.68820	11.27051
12.81569	-15.68820	11.27051
12.81989	-15.68820	11.27051
12.82423	-15.68820	11.27051
12.82843	-15.71017	11.27051
12.83262	-15.71017	11.27051
12.83681	-15.71017	11.27051
12.84100	-15.71017	11.27051
12.84518	-15.73214	11.27051
12.84937	-15.73214	11.27051
12.85370	-15.73214	11.27051
12.85795	-15.73214	11.27051
12.86214	-15.73214	11.27051
12.86644	-15.73214	11.27051
12.87062	-15.75412	11.27051
12.87481	-15.75412	11.27051
12.87900	-15.75412	11.27051
12.88326	-15.75412	11.27051
12.88754	-15.75412	11.27051
12.89175	-15.75412	11.27051
12.89590	-15.75412	11.27051
12.90011	-15.75412	11.27051
12.90430	-15.77609	11.27051
12.90849	-15.77609	11.27051
12.91268	-15.77609	11.27051
12.91698	-15.75412	11.27051
12.92119	-15.77609	11.27051
12.92538	-15.77609	11.27051
12.92958	-15.77609	11.27051
12.93377	-15.77609	11.27051
12.93795	-15.77609	11.27051
12.94215	-15.79806	11.27051
12.94650	-15.77609	11.27051
12.95072	-15.79806	11.27051
12.95491	-15.79806	11.27051
12.95910	-15.79806	11.27051
12.96329	-15.79806	11.27051
12.96758	-15.77609	11.27051
12.97178	-15.79806	11.27051
12.97611	-15.79806	11.27051
12.98037	-15.77609	11.27051
12.98457	-15.79806	11.27051
12.98875	-15.79806	11.27051
12.99294	-15.79806	11.27051
12.99713	-15.79806	11.27051
13.00133	-15.79806	11.27051
13.00559	-15.79806	11.27051
13.00987	-15.79806	11.27051
13.01407	-15.79806	11.27051
13.01827	-15.79806	11.27051
13.02247	-15.79806	11.27051
13.02666	-15.79806	11.27051
13.03086	-15.79806	11.27051
13.03506	-15.79806	11.27051
13.03937	-15.77609	11.27051
13.04358	-15.77609	11.27051
13.04778	-15.79806	11.27051
13.05197	-15.79806	11.27051
13.05616	-15.79806	11.27051
13.06034	-15.77609	11.27051
13.06453	-15.79806	11.27051
13.06897	-15.77609	11.27051
13.07318	-15.77609	11.27051
13.07737	-15.77609	11.27051
13.08156	-15.77609	11.27051
13.08575	-15.77609	11.27051
13.08993	-15.77609	11.27051
13.09412	-15.77609	11.27051
13.09846	-15.77609	11.27051
13.10275	-15.77609	11.27051
13.10695	-15.77609	11.27051
13.11114	-15.77609	11.27051
13.11533	-15.77609	11.27051
13.11953	-15.77609	11.27051
13.12372	-15.77609	11.27051
13.12797	-15.77609	11.27051
13.13224	-15.75412	11.27051
13.13644	-15.77609	11.27051
13.14063	-15.75412	11.27051
13.14482	-15.75412	11.27051
13.14901	-15.75412	11.27051
13.15319	-15.75412	11.27051
13.15738	-15.75412	11.27051
13.16168	-15.75412	11.27051
13.16588	-15.75412	11.27051
13.17017	-15.73214	11.27051
13.17436	-15.75412	11.27051
13.17855	-15.75412	11.27051
13.18274	-15.73214	11.27051
13.18692	-15.73214	11.27051
13.19126	-15.73214	11.27051
13.19549	-15.73214	11.27051
13.19970	-15.73214	11.27051
13.20390	-15.73214	11.27051
13.20810	-15.73214	11.27051
13.21229	-15.71017	11.27051
13.21648	-15.71017	11.27051
13.22083	-15.71017	11.27051
13.22510	-15.71017	11.27051
13.22929	-15.71017	11.27051
13.23349	-15.71017	11.27051
13.23768	-15.71017	11.27051
13.24187	-15.68820	11.27051
13.24606	-15.68820	11.27051
13.25032	-15.68820	11.27051
13.25460	-15.68820	11.27051
13.25881	-15.68820	11.27051
13.26299	-15.68820	11.27051
13.26719	-15.66623	11.27051
13.27149	-15.66623	11.27051
13.27567	-15.66623	11.27051
13.27987	-15.66623	11.27051
13.28417	-15.66623	11.27051
13.28838	-15.66623	11.27051
13.29257	-15.64425	11.27051
13.29676	-15.64425	11.27051
13.30097	-15.64425	11.27051
13.30515	-15.64425	11.27051
13.30934	-15.64425	11.27051
13.31370	-15.62228	11.27051
13.31791	-15.64425	11.27051
13.32211	-15.62228	11.27051
13.32631	-15.62228	11.27051
13.33050	-15.62228	11.27051
13.33470	-15.62228	11.27051
13.33888	-15.62228	11.27051
13.34321	-15.62228	11.27051
13.34747	-15.60031	11.27051
13.35166	-15.60031	11.27051
13.35587	-15.60031	11.27051
13.36005	-15.60031	11.27051
13.36425	-15.60031	11.27051
13.36844	-15.57834	11.27051
13.37282	-15.57834	11.27051
13.37710	-15.57834	11.27051
13.38129	-15.55636	11.27051
13.38549	-15.55636	11.27051
13.38967	-15.55636	11.27051
13.39386	-15.55636	11.27051
13.39805	-15.55636	11.27051
13.40225	-15.55636	11.27051
13.40656	-15.53439	11.27051
13.41077	-15.53439	11.27051
13.41496	-15.53439	11.27051
13.41915	-15.53439	11.27051
13.42334	-15.53439	11.27051
13.42752	-15.51242	11.27051
13.43171	-15.51242	11.27051
13.43604	-15.51242	11.27051
13.44030	-15.51242	11.27051
13.44449	-15.51242	11.27051
13.44868	-15.49045	11.27051
13.45287	-15.49045	11.27051
13.45705	-15.49045	11.27051
13.46125	-15.49045	11.27051
13.46566	-15.49045	11.27051
13.46994	-15.46847	11.27051
13.47426	-15.46847	11.27051
13.47845	-15.46847	11.27051
13.48265	-15.46847	11.27051
13.48684	-15.44650	11.27051
13.49103	-15.44650	11.27051
13.49527	-15.44650	11.27051
13.49955	-15.44650	11.27051
13.50378	-15.42453	11.27051
13.50797	-15.42453	11.27051
13.51217	-15.42453	11.27051
13.51635	-15.42453	11.27051
13.52054	-15.42453	11.27051
13.52473	-15.42453	11.27051
13.52902	-15.40256	11.27051
13.53323	-15.40256	11.27051
13.53742	-15.38058	11.27051
13.54160	-15.38058	11.27051
13.54579	-15.38058	11.27051
13.54998	-15.38058	11.27051
13.55416	-15.38058	11.27051
13.55849	-15.35861	11.27051
13.56270	-15.35861	11.27051
13.56688	-15.35861	11.27051
13.57107	-15.35861	11.27051
13.57536	-15.35861	11.27051
13.57955	-15.33664	11.27051
13.58374	-15.33664	11.27051
13.58805	-15.33664	11.27051
13.59231	-15.33664	11.27051
13.59650	-15.31466	11.27051
13.60072	-15.31466	11.27051
13.60492	-15.31466	11.27051
13.60912	-15.31466	11.27051
13.61332	-15.31466	11.27051
13.61756	-15.29269	11.27051
13.62184	-15.29269	11.27051
13.62606	-15.29269	11.27051
13.63025	-15.29269	11.27051
13.63445	-15.27072	11.27051
13.63864	-15.27072	11.27051
13.64284	-15.29269	11.27051
13.64703	-15.27072	11.27051
13.65133	-15.27072	11.27051
13.65555	-15.24875	11.27051
13.65975	-15.24875	11.27051
13.66390	-15.24875	11.27051
13.66809	-15.24875	11.27051
13.67229	-15.24875	11.27051
13.67659	-15.24875	11.27051
13.68091	-15.24875	11.27051
13.68513	-15.22677	11.27051
13.68932	-15.22677	11.27051
13.69352	-15.22677	11.27051
13.69771	-15.22677	11.27051
13.70192	-15.20480	11.27051
13.70611	-15.20480	11.27051
13.71044	-15.20480	11.27051
13.71470	-15.20480	11.27051
13.71890	-15.18283	11.27051
13.72309	-15.18283	11.27051
13.72727	-15.18283	11.27051
13.73146	-15.18283	11.27051
13.73565	-15.18283	11.27051
13.73991	-15.18283	11.27051
13.74418	-15.18283	11.27051
13.74838	-15.16086	11.27051
13.75257	-15.16086	11.27051
13.75676	-15.16086	11.27051
13.76095	-15.16086	11.27051
13.76513	-15.13888	11.27051
13.76932	-15.13888	11.27051
13.77361	-15.13888	11.27051
13.77792	-15.13888	11.27051
13.78211	-15.13888	11.27051
13.78629	-15.13888	11.27051
13.79048	-15.13888	11.27051
13.79467	-15.13888	11.27051
13.79885	-15.11691	11.27051
13.80324	-15.11691	11.27051
13.80746	-15.11691	11.27051
13.81166	-15.11691	11.27051
13.81587	-15.09494	11.27051
13.82006	-15.09494	11.27051
13.82425	-15.09494	11.27051
13.82843	-15.11691	11.27051
13.83277	-15.09494	11.27051
13.83703	-15.09494	11.27051
13.84171	-15.09494	11.27051
13.84600	-15.09494	11.27051
13.85021	-15.09494	11.27051
13.85441	-15.07297	11.27051
13.85861	-15.07297	11.27051
13.86287	-15.07297	11.27051
13.86720	-15.07297	11.27051
13.87144	-15.07297	11.27051
13.87566	-15.07297	11.27051
13.87999	-15.07297	11.27051
13.88419	-15.07297	11.27051
13.88839	-15.07297	11.27051
13.89259	-15.05099	11.27051
13.89690	-15.05099	11.27051
13.90111	-15.07297	11.27051
13.90531	-15.05099	11.27051
13.90950	-15.05099	11.27051
13.91370	-15.05099	11.27051
13.91789	-15.05099	11.27051
13.92208	-15.05099	11.27051
13.92639	-15.05099	11.27051
13.93060	-15.05099	11.27051
13.93480	-15.05099	11.27051
13.93900	-15.05099	11.27051
13.94320	-15.05099	11.27051
13.94740	-15.05099	11.27051
13.95160	-15.05099	11.27051
13.95599	-15.05099	11.27051
13.96025	-15.05099	11.27051
13.96445	-15.05099	11.27051
13.96864	-15.05099	11.27051
13.97284	-15.05099	11.27051
13.97703	-15.05099	11.27051
13.98133	-15.05099	11.27051
13.98558	-15.05099	11.27051
13.98985	-15.05099	11.27051
13.99405	-15.05099	11.27051
13.99825	-15.05099	11.27051
14.00244	-15.05099	11.27051
14.00662	-15.05099	11.27051
14.01081	-15.05099	11.27051
14.01499	-15.05099	11.27051
14.01929	-15.05099	11.27051
14.02350	-15.07297	11.27051
14.02769	-15.07297	11.27051
14.03188	-15.05099	11.27051
14.03607	-15.05099	11.27051
14.04025	-15.07297	11.27051
14.04444	-15.07297	11.27051
14.04877	-15.07297	11.27051
14.05298	-15.07297	11.27051
14.05717	-15.07297	11.27051
14.06135	-15.07297	11.27051
14.06554	-15.09494	11.27051
14.06972	-15.09494	11.27051
14.07391	-15.09494	11.27051
14.07823	-15.09494	11.27051
14.08258	-15.09494	11.27051
14.08677	-15.09494	11.27051
14.09096	-15.09494	11.27051
14.09515	-15.11691	11.27051
14.09933	-15.11691	11.27051
14.10351	-15.11691	11.27051
14.10777	-15.11691	11.27051
14.11205	-15.13888	11.27051
14.11625	-15.13888	11.27051
14.12043	-15.13888	11.27051
14.12462	-15.16086	11.27051
14.12881	-15.16086	11.27051
14.13300	-15.18283	11.27051
14.13719	-15.18283	11.27051
14.14149	-15.18283	11.27051
14.14569	-15.20480	11.27051
14.14988	-15.20480	11.27051
14.15406	-15.22677	11.27051
14.15825	-15.22677	11.27051
14.16244	-15.22677	11.27051
14.16663	-15.22677	11.27051
14.17099	-15.24875	11.27051
14.17520	-15.24875	11.27051
14.17939	-15.27072	11.27051
14.18368	-15.27072	11.27051
14.18788	-15.27072	11.27051
14.19207	-15.27072	11.27051
14.19626	-15.29269	11.27051
14.20063	-15.29269	11.27051
14.20488	-15.31466	11.27051
14.20907	-15.31466	11.27051
14.21326	-15.31466	11.27051
14.21745	-15.33664	11.27051
14.22163	-15.33664	11.27051
14.22582	-15.35861	11.27051
14.23007	-15.35861	11.27051
14.23434	-15.38058	11.27051
14.23854	-15.38058	11.27051
14.24274	-15.40256	11.27051
14.24693	-15.40256	11.27051
14.25113	-15.42453	11.27051
14.25533	-15.42453	11.27051
14.25952	-15.44650	11.27051
14.26385	-15.44650	11.27051
14.26806	-15.44650	11.27051
14.27225	-15.46847	11.27051
14.27644	-15.46847	11.27051
14.28063	-15.49045	11.27051
14.28492	-15.49045	11.27051
14.28910	-15.51242	11.27051
14.29348	-15.53439	11.27051
14.29769	-15.53439	11.27051
14.30188	-15.53439	11.27051
14.30607	-15.55636	11.27051
14.31026	-15.57834	11.27051
14.31445	-15.57834	11.27051
14.31864	-15.57834	11.27051
14.32299	-15.57834	11.27051
14.32724	-15.60031	11.27051
14.33143	-15.62228	11.27051
14.33562	-15.62228	11.27051
14.33982	-15.64425	11.27051
14.34400	-15.66623	11.27051
14.34819	-15.66623	11.27051
14.35244	-15.66623	11.27051
14.35672	-15.66623	11.27051
14.36091	-15.68820	11.27051
14.36510	-15.71017	11.27051
14.36928	-15.73214	11.27051
14.37347	-15.73214	11.27051
14.37766	-15.73214	11.27051
14.38184	-15.75412	11.27051
14.38625	-15.75412	11.27051
14.39045	-15.77609	11.27051
14.39464	-15.77609	11.27051
14.39883	-15.77609	11.27051
14.40301	-15.79806	11.27051
14.40720	-15.79806	11.27051
14.41138	-15.82004	11.27051
14.41573	-15.84201	11.27051
14.41992	-15.84201	11.27051
14.42411	-15.86398	11.27051
14.42829	-15.86398	11.27051
14.43248	-15.86398	11.27051
14.43666	-15.88595	11.27051
14.44085	-15.88595	11.27051
14.44518	-15.90793	11.27051
14.44943	-15.90793	11.27051
14.45362	-15.90793	11.27051
14.45781	-15.92990	11.27051
14.46200	-15.95187	11.27051
14.46619	-15.95187	11.27051
14.47037	-15.97384	11.27051
14.47461	-15.97384	11.27051
14.47888	-15.97384	11.27051
14.48308	-15.99582	11.27051
14.48737	-15.99582	11.27051
14.49156	-16.01779	11.27051
14.49574	-16.01779	11.27051
14.49990	-16.01779	11.27051
14.50408	-16.03976	11.27051
14.50838	-16.03976	11.27051
14.51258	-16.06173	11.27051
14.51676	-16.06173	11.27051
14.52095	-16.08371	11.27051
14.52514	-16.10568	11.27051
14.52932	-16.10568	11.27051
14.53351	-16.10568	11.27051
14.53785	-16.12765	11.27051
14.54206	-16.12765	11.27051
14.54625	-16.14963	11.27051
14.55043	-16.14963	11.27051
14.55461	-16.14963	11.27051
14.55880	-16.14963	11.27051
14.56298	-16.17160	11.27051
14.56730	-16.17160	11.27051
14.57155	-16.19357	11.27051
14.57574	-16.21554	11.27051
14.57990	-16.21554	11.27051
14.58408	-16.21554	11.27051
14.58837	-16.21554	11.27051
14.59256	-16.23752	11.27051
14.59680	-16.23752	11.27051
14.60107	-16.25949	11.27051
14.60527	-16.25949	11.27051
14.60946	-16.25949	11.27051
14.61364	-16.25949	11.27051
14.61783	-16.28146	11.27051
14.62201	-16.28146	11.27051
14.62620	-16.30343	11.27051
14.63048	-16.30343	11.27051
14.63474	-16.30343	11.27051
14.63895	-16.30343	11.27051
14.64313	-16.32541	11.27051
14.64732	-16.32541	11.27051
14.65151	-16.34738	11.27051
14.65570	-16.34738	11.27051
14.66004	-16.34738	11.27051
14.66425	-16.34738	11.27051
14.66844	-16.36935	11.27051
14.67263	-16.36935	11.27051
14.67681	-16.39132	11.27051
14.68100	-16.39132	11.27051
14.68518	-16.39132	11.27051
14.68963	-16.39132	11.27051
14.69386	-16.39132	11.27051
14.69805	-16.41330	11.27051
14.70224	-16.41330	11.27051
14.70642	-16.41330	11.27051
14.71061	-16.43527	11.27051
14.71479	-16.43527	11.27051
14.71903	-16.43527	11.27051
14.72331	-16.43527	11.27051
14.72750	-16.45724	11.27051
14.73169	-16.45724	11.27051
14.73588	-16.45724	11.27051
14.74007	-16.45724	11.27051
14.74426	-16.47922	11.27051
14.74844	-16.47922	11.27051
14.75274	-16.47922	11.27051
14.75694	-16.47922	11.27051
14.76113	-16.47922	11.27051
14.76531	-16.47922	11.27051
14.76950	-16.47922	11.27051
14.77368	-16.50119	11.27051
14.77787	-16.50119	11.27051
14.78218	-16.50119	11.27051
14.78639	-16.52316	11.27051
14.79068	-16.52316	11.27051
14.79487	-16.50119	11.27051
14.79907	-16.52316	11.27051
14.80326	-16.52316	11.27051
14.80745	-16.52316	11.27051
14.81180	-16.52316	11.27051
14.81606	-16.52316	11.27051
14.82025	-16.52316	11.27051
14.82444	-16.52316	11.27051
14.82862	-16.52316	11.27051
14.83281	-16.54513	11.27051
14.83699	-16.54513	11.27051
14.84123	-16.54513	11.27051
14.84550	-16.54513	11.27051
14.84970	-16.54513	11.27051
14.85388	-16.54513	11.27051
14.85807	-16.54513	11.27051
14.86226	-16.54513	11.27051
14.86644	-16.56711	11.27051
14.87063	-16.56711	11.27051
14.87492	-16.54513	11.27051
14.87913	-16.54513	11.27051
14.88331	-16.54513	11.27051
14.88750	-16.54513	11.27051
14.89181	-16.54513	11.27051
14.89600	-16.54513	11.27051
14.90018	-16.54513	11.27051
14.90453	-16.54513	11.27051
14.90874	-16.54513	11.27051
14.91293	-16.54513	11.27051
14.91711	-16.54513	11.27051
14.92130	-16.56711	11.27051
14.92549	-16.56711	11.27051
14.92967	-16.54513	11.27051
14.93401	-16.54513	11.27051
14.93826	-16.54513	11.27051
14.94246	-16.54513	11.27051
14.94665	-16.54513	11.27051
14.95084	-16.54513	11.27051
14.95502	-16.54513	11.27051
14.95921	-16.54513	11.27051
14.96346	-16.54513	11.27051
14.96773	-16.54513	11.27051
14.97192	-16.54513	11.27051
14.97611	-16.54513	11.27051
14.98029	-16.54513	11.27051
14.98448	-16.52316	11.27051
14.98866	-16.52316	11.27051
14.99295	-16.52316	11.27051
14.99725	-16.52316	11.27051
15.00187	-16.52316	5.43429
15.00593	-16.52316	5.43429
15.00999	-16.52316	5.43429
15.01405	-16.52316	5.43429
15.01811	-16.50119	5.43429
15.02216	-16.52316	5.43429
15.02623	-16.52316	5.43429
15.03029	-16.50119	5.43429
15.03435	-16.50119	5.43429
15.03840	-16.50119	5.43429
15.04247	-16.47922	5.43429
15.04652	-16.47922	5.43429
15.05058	-16.47922	5.43429
15.05464	-16.47922	5.43429
15.05870	-16.47922	5.43429
15.06275	-16.45724	5.43429
15.06681	-16.45724	5.43429
15.07087	-16.45724	5.43429
15.07493	-16.43527	5.43429
15.07898	-16.43527	5.43429
15.08304	-16.43527	5.43429
15.08710	-16.43527	5.43429
15.09116	-16.41330	5.43429
15.09521	-16.41330	5.43429
15.09927	-16.39132	5.43429
15.10354	-16.36935	5.43429
15.10760	-16.36935	5.43429
15.11166	-16.36935	5.43429
15.11571	-16.34738	5.43429
15.11977	-16.34738	5.43429
15.12382	-16.34738	5.43429
15.12788	-16.32541	5.43429
15.13194	-16.32541	5.43429
15.13600	-16.30343	5.43429
15.14006	-16.28146	5.43429
15.14412	-16.25949	5.43429
15.14817	-16.25949	5.43429
15.15223	-16.23752	5.43429
15.15629	-16.23752	5.43429
15.16034	-16.21554	5.43429
15.16440	-16.19357	5.43429
15.16846	-16.17160	5.43429
15.17252	-16.14963	5.43429
15.17657	-16.14963	5.43429
15.18063	-16.12765	5.43429
15.18469	-16.10568	5.43429
15.18874	-16.08371	5.43429
15.19280	-16.06173	5.43429
15.19686	-16.03976	5.43429
15.20092	-16.03976	5.43429
15.20521	-16.01779	5.43429
15.20927	-15.99582	5.43429
15.21333	-15.95187	5.43429
15.21738	-15.92990	5.43429
15.22144	-15.92990	5.43429
15.22550	-15.90793	5.43429
15.22956	-15.86398	5.43429
15.23362	-15.84201	5.43429
15.23768	-15.82004	5.43429
15.24174	-15.82004	5.43429
15.24579	-15.77609	5.43429
15.24985	-15.75412	5.43429
15.25391	-15.71017	5.43429
15.25797	-15.71017	5.43429
15.26202	-15.68820	5.43429
15.26608	-15.64425	5.43429
15.27014	-15.62228	5.43429
15.27419	-15.60031	5.43429
15.27825	-15.55636	5.43429
15.28231	-15.55636	5.43429
15.28637	-15.51242	5.43429
15.29042	-15.46847	5.43429
15.29448	-15.44650	5.43429
15.29854	-15.40256	5.43429
15.30260	-15.40256	5.43429
15.30688	-15.35861	5.43429
15.31094	-15.33664	5.43429
15.31500	-15.29269	5.43429
15.31906	-15.24875	5.43429
15.32311	-15.20480	5.43429
15.32717	-15.20480	5.43429
15.33123	-15.16086	5.43429
15.33529	-15.13888	5.43429
15.33935	-15.07297	5.43429
15.34341	-15.05099	5.43429
15.34747	-15.05099	5.43429
15.35153	-15.00705	5.43429
15.35558	-14.96310	5.43429
15.35964	-14.91916	5.43429
15.36370	-14.87521	5.43429
15.36776	-14.83127	5.43429
15.37181	-14.83127	5.43429
15.37587	-14.76535	5.43429
15.37993	-14.74338	5.43429
15.38399	-14.67746	5.43429
15.38804	-14.67746	5.43429
15.39210	-14.63351	5.43429
15.39616	-14.58957	5.43429
15.40021	-14.54562	5.43429
15.40427	-14.50168	5.43429
15.40857	-14.45773	5.43429
15.41262	-14.45773	5.43429
15.41668	-14.39181	5.43429
15.42074	-14.34787	5.43429
15.42480	-14.28195	5.43429
15.42885	-14.23800	5.43429
15.43291	-14.23800	5.43429
15.43698	-14.19406	5.43429
15.44104	-14.12814	5.43429
15.44510	-14.08420	5.43429
15.44916	-14.04025	5.43429
15.45321	-13.99631	5.43429
15.45727	-13.99631	5.43429
15.46133	-13.93039	5.43429
15.46539	-13.86447	5.43429
15.46944	-13.82052	5.43429
15.47350	-13.75461	5.43429
15.47756	-13.75461	5.43429
15.48161	-13.71066	5.43429
15.48567	-13.64474	5.43429
15.48973	-13.60080	5.43429
15.49379	-13.53488	5.43429
15.49784	-13.53488	5.43429
15.50190	-13.46896	5.43429
15.50596	-13.40304	5.43429
15.51025	-13.35910	5.43429
15.51431	-13.29318	5.43429
15.51837	-13.29318	5.43429
15.52243	-13.22726	5.43429
15.52648	-13.16134	5.43429
15.53054	-13.11740	5.43429
15.53460	-13.05148	5.43429
15.53866	-12.98556	5.43429
15.54272	-12.98556	5.43429
15.54679	-12.94162	5.43429
15.55085	-12.85373	5.43429
15.55490	-12.80978	5.43429
15.55896	-12.80978	5.43429
15.56302	-12.74386	5.43429
15.56708	-12.67795	5.43429
15.57113	-12.61203	5.43429
15.57519	-12.54611	5.43429
15.57925	-12.48019	5.43429
15.58330	-12.48019	5.43429
15.58736	-12.43625	5.43429
15.59142	-12.37033	5.43429
15.59548	-12.28244	5.43429
15.59953	-12.23849	5.43429
15.60359	-12.23849	5.43429
15.60765	-12.15060	5.43429
15.61194	-12.08468	5.43429
15.61600	-12.04074	5.43429
15.62006	-11.97482	5.43429
15.62411	-11.90890	5.43429
15.62817	-11.90890	5.43429
15.63223	-11.84298	5.43429
15.63629	-11.75509	5.43429
15.64035	-11.71115	5.43429
15.64441	-11.62326	5.43429
15.64847	-11.62326	5.43429
15.65252	-11.55734	5.43429
15.65658	-11.49142	5.43429
15.66064	-11.42550	5.43429
15.66470	-11.35959	5.43429
15.66875	-11.35959	5.43429
15.67281	-11.29367	5.43429
15.67687	-11.22775	5.43429
15.68093	-11.16183	5.43429
15.68498	-11.07394	5.43429
15.68904	-11.07394	5.43429
15.69310	-11.00802	5.43429
15.69715	-10.94211	5.43429
15.70121	-10.87619	5.43429
15.70527	-10.81027	5.43429
15.70933	-10.72238	5.43429
15.71361	-10.72238	5.43429
15.71767	-10.65646	5.43429
15.72173	-10.59054	5.43429
15.72578	-10.52463	5.43429
15.72984	-10.43673	5.43429
15.73390	-10.43673	5.43429
15.73796	-10.37082	5.43429
15.74202	-10.30490	5.43429
15.74608	-10.23898	5.43429
15.75014	-10.15109	5.43429
15.75420	-10.15109	5.43429
15.75825	-10.08517	5.43429
15.76231	-10.01925	5.43429
15.76637	-9.93136	5.43429
15.77043	-9.86545	5.43429
15.77448	-9.86545	5.43429
15.77854	-9.79953	5.43429
15.78260	-9.71164	5.43429
15.78665	-9.66769	5.43429
15.79071	-9.60177	5.43429
15.79477	-9.53586	5.43429
15.79883	-9.53586	5.43429
15.80288	-9.44797	5.43429
15.80694	-9.38205	5.43429
15.81100	-9.29416	5.43429
15.81529	-9.25021	5.43429
15.81934	-9.25021	5.43429
15.82340	-9.16232	5.43429
15.82746	-9.11838	5.43429
15.83152	-9.03048	5.43429
15.83557	-8.96457	5.43429
15.83963	-8.96457	5.43429
15.84369	-8.89865	5.43429
15.84775	-8.83273	5.43429
15.85177	-8.74484	5.43429
15.85583	-8.67892	5.43429
15.85988	-8.67892	5.43429
15.86394	-8.63498	5.43429
15.86800	-8.54709	5.43429
15.87205	-8.48117	5.43429
15.87611	-8.43722	5.43429
15.88017	-8.34933	5.43429
15.88423	-8.34933	5.43429
15.88828	-8.28341	5.43429
15.89234	-8.21750	5.43429
15.89640	-8.15158	5.43429
15.90046	-8.08566	5.43429
15.90451	-8.08566	5.43429
15.90857	-8.01974	5.43429
15.91263	-7.95382	5.43429
15.91692	-7.88791	5.43429
15.92097	-7.84396	5.43429
15.92503	-7.77804	5.43429
15.92909	-7.77804	5.43429
15.93315	-7.69015	5.43429
15.93720	-7.62423	5.43429
15.94126	-7.58029	5.43429
15.94533	-7.49240	5.43429
15.94939	-7.49240	5.43429
15.95344	-7.44845	5.43429
15.95750	-7.38254	5.43429
15.96156	-7.31662	5.43429
15.96562	-7.25070	5.43429
15.96967	-7.25070	5.43429
15.97373	-7.18478	5.43429
15.97779	-7.14084	5.43429
15.98184	-7.05295	5.43429
15.98590	-6.98703	5.43429
15.98996	-6.98703	5.43429
15.99402	-6.94308	5.43429
15.99807	-6.87716	5.43429
16.00213	-6.81125	5.43429
16.00619	-6.74533	5.43429
16.01025	-6.74533	5.43429
16.01430	-6.70138	5.43429
16.01859	-6.63547	5.43429
16.02265	-6.56955	5.43429
16.02670	-6.50363	5.43429
16.03076	-6.50363	5.43429
16.03482	-6.43771	5.43429
16.03888	-6.39377	5.43429
16.04293	-6.32785	5.43429
16.04700	-6.28390	5.43429
16.05106	-6.21798	5.43429
16.05512	-6.21798	5.43429
16.05917	-6.15207	5.43429
16.06323	-6.10812	5.43429
16.06729	-6.04220	5.43429
16.07135	-5.97629	5.43429
16.07540	-5.97629	5.43429
16.07946	-5.93234	5.43429
16.08352	-5.88839	5.43429
16.08757	-5.82248	5.43429
16.09163	-5.77853	5.43429
16.09569	-5.77853	5.43429
16.09975	-5.71261	5.43429
16.10377	-5.66867	5.43429
16.10783	-5.60275	5.43429
16.11188	-5.55881	5.43429
16.11594	-5.55881	5.43429
16.12022	-5.49289	5.43429
16.12428	-5.44894	5.43429
16.12834	-5.40500	5.43429
16.13240	-5.33908	5.43429
16.13645	-5.29513	5.43429
16.14051	-5.29513	5.43429
16.14457	-5.25119	5.43429
16.14863	-5.18527	5.43429
16.15269	-5.14132	5.43429
16.15675	-5.09738	5.43429
16.16081	-5.09738	5.43429
16.16487	-5.03146	5.43429
16.16892	-5.00949	5.43429
16.17298	-4.96554	5.43429
16.17704	-4.89963	5.43429
16.18109	-4.85568	5.43429
16.18515	-4.85568	5.43429
16.18921	-4.81173	5.43429
16.19327	-4.74582	5.43429
16.19732	-4.72384	5.43429
16.20138	-4.65793	5.43429
16.20544	-4.65793	5.43429
16.20950	-4.61398	5.43429
16.21355	-4.59201	5.43429
16.21761	-4.54806	5.43429
16.22190	-4.50412	5.43429
16.22595	-4.46017	5.43429
16.23001	-4.46017	5.43429
16.23407	-4.41623	5.43429
16.23813	-4.37228	5.43429
16.24218	-4.32834	5.43429
16.24624	-4.32834	5.43429
16.25031	-4.28439	5.43429
16.25437	-4.21847	5.43429
16.25842	-4.19650	5.43429
16.26248	-4.15256	5.43429
16.26654	-4.15256	5.43429
16.27060	-4.10861	5.43429
16.27466	-4.08664	5.43429
16.27871	-4.04269	5.43429
16.28277	-3.99875	5.43429
16.28683	-3.99875	5.43429
16.29089	-3.95480	5.43429
16.29494	-3.93283	5.43429
16.29900	-3.91086	5.43429
16.30306	-3.86691	5.43429
16.30712	-3.82297	5.43429
16.31117	-3.82297	5.43429
16.31523	-3.80099	5.43429
16.31929	-3.75705	5.43429
16.32357	-3.73507	5.43429
16.32763	-3.69113	5.43429
16.33169	-3.69113	5.43429
16.33575	-3.66916	5.43429
16.33977	-3.62521	5.43429
16.34383	-3.60324	5.43429
16.34788	-3.58127	5.43429
16.35195	-3.55929	5.43429
16.35600	-3.55929	5.43429
16.36006	-3.51535	5.43429
16.36412	-3.49338	5.43429
16.36818	-3.47140	5.43429
16.37223	-3.47140	5.43429
16.37629	-3.42746	5.43429
16.38035	-3.40548	5.43429
16.38441	-3.38351	5.43429
16.38846	-3.36154	5.43429
16.39252	-3.33957	5.43429
16.39658	-3.33957	5.43429
16.40063	-3.31759	5.43429
16.40469	-3.29562	5.43429
16.40875	-3.25168	5.43429
16.41281	-3.25168	5.43429
16.41686	-3.25168	5.43429
16.42092	-3.20773	5.43429
16.42520	-3.20773	5.43429
16.42926	-3.18576	5.43429
16.43332	-3.16379	5.43429
16.43738	-3.14181	5.43429
16.44143	-3.14181	5.43429
16.44549	-3.11984	5.43429
16.44955	-3.09787	5.43429
16.45361	-3.09787	5.43429
16.45767	-3.07589	5.43429
16.46173	-3.07589	5.43429
16.46579	-3.05392	5.43429
16.46984	-3.05392	5.43429
16.47390	-3.03195	5.43429
16.47796	-3.00998	5.43429
16.48202	-2.98800	5.43429
16.48607	-2.98800	5.43429
16.49013	-2.98800	5.43429
16.49419	-2.98800	5.43429
16.49824	-2.96603	5.43429
16.50230	-2.96603	5.43429
16.50636	-2.96603	5.43429
16.51042	-2.94406	5.43429
16.51447	-2.94406	5.43429
16.51853	-2.92209	5.43429
16.52259	-2.92209	5.43429
16.52688	-2.92209	5.43429
16.53093	-2.92209	5.43429
16.53499	-2.90011	5.43429
16.53905	-2.90011	5.43429
16.54311	-2.90011	5.43429
16.54716	-2.90011	5.43429
16.55122	-2.90011	5.43429
16.55529	-2.90011	5.43429
16.55934	-2.90011	5.43429
16.56340	-2.90011	5.43429
16.56746	-2.90011	5.43429
16.57152	-2.90011	5.43429
16.57557	-2.87814	5.43429
16.57963	-2.90011	5.43429
16.58369	-2.87814	5.43429
16.58775	-2.87814	5.43429
16.59177	-2.90011	5.43429
16.59583	-2.87814	5.43429
16.59988	-2.90011	5.43429
16.60394	-2.90011	5.43429
16.60800	-2.90011	5.43429
16.61205	-2.90011	5.43429
16.61611	-2.92209	5.43429
16.62017	-2.92209	5.43429
16.62423	-2.92209	5.43429
16.62851	-2.94406	5.43429
16.63257	-2.94406	5.43429
16.63663	-2.94406	5.43429
16.64069	-2.96603	5.43429
16.64474	-2.96603	5.43429
16.64880	-2.98800	5.43429
16.65286	-2.98800	5.43429
16.65692	-2.98800	5.43429
16.66098	-3.00998	5.43429
16.66504	-3.03195	5.43429
16.66910	-3.05392	5.43429
16.67315	-3.05392	5.43429
16.67721	-3.05392	5.43429
16.68127	-3.07589	5.43429
16.68532	-3.09787	5.43429
16.68938	-3.11984	5.43429
16.69344	-3.14181	5.43429
16.69750	-3.14181	5.43429
16.70155	-3.16379	5.43429
16.70561	-3.18576	5.43429
16.70967	-3.20773	5.43429
16.71373	-3.22970	5.43429
16.71778	-3.22970	5.43429
16.72184	-3.25168	5.43429
16.72590	-3.27365	5.43429
16.73018	-3.29562	5.43429
16.73424	-3.31759	5.43429
16.73830	-3.33957	5.43429
16.74235	-3.33957	5.43429
16.74641	-3.36154	5.43429
16.75047	-3.40548	5.43429
16.75453	-3.42746	5.43429
16.75859	-3.47140	5.43429
16.76265	-3.47140	5.43429
16.76671	-3.49338	5.43429
16.77076	-3.53732	5.43429
16.77482	-3.55929	5.43429
16.77888	-3.58127	5.43429
16.78293	-3.58127	5.43429
16.78699	-3.62521	5.43429
16.79105	-3.66916	5.43429
16.79511	-3.69113	5.43429
16.79916	-3.69113	5.43429
16.80322	-3.73507	5.43429
16.80728	-3.75705	5.43429
16.81133	-3.80099	5.43429
16.81539	-3.84494	5.43429
16.81945	-3.86691	5.43429
16.82351	-3.86691	5.43429
16.82756	-3.91086	5.43429
16.83187	-3.95480	5.43429
16.83592	-3.99875	5.43429
16.83998	-4.02072	5.43429
16.84404	-4.02072	5.43429
16.84810	-4.06466	5.43429
16.85215	-4.10861	5.43429
16.85621	-4.13058	5.43429
16.86027	-4.19650	5.43429
16.86433	-4.21847	5.43429
16.86839	-4.21847	5.43429
16.87245	-4.28439	5.43429
16.87650	-4.32834	5.43429
16.88056	-4.37228	5.43429
16.88462	-4.41623	5.43429
16.88867	-4.41623	5.43429
16.89273	-4.46017	5.43429
16.89679	-4.48214	5.43429
16.90085	-4.54806	5.43429
16.90490	-4.59201	5.43429
16.90896	-4.63595	5.43429
16.91302	-4.63595	5.43429
16.91707	-4.67990	5.43429
16.92113	-4.72384	5.43429
16.92519	-4.78976	5.43429
16.92924	-4.78976	5.43429
16.93353	-4.85568	5.43429
16.93759	-4.85568	5.43429
16.94164	-4.92160	5.43429
16.94570	-4.96554	5.43429
16.94976	-5.00949	5.43429
16.95382	-5.00949	5.43429
16.95788	-5.07541	5.43429
16.96194	-5.11935	5.43429
16.96600	-5.18527	5.43429
16.97006	-5.22922	5.43429
16.97412	-5.22922	5.43429
16.97818	-5.29513	5.43429
16.98223	-5.31711	5.43429
16.98629	-5.36105	5.43429
16.99035	-5.44894	5.43429
16.99440	-5.49289	5.43429
16.99846	-5.49289	5.43429
17.00252	-5.53683	5.43429
17.00657	-5.60275	5.43429
17.01063	-5.64670	5.43429
17.01469	-5.71261	5.43429
17.01875	-5.71261	5.43429
17.02280	-5.75656	5.43429
17.02686	-5.82248	5.43429
17.03092	-5.88839	5.43429
17.03520	-5.95431	5.43429
17.03926	-5.95431	5.43429
17.04332	-5.99826	5.43429
17.04738	-6.06418	5.43429
17.05143	-6.10812	5.43429
17.05549	-6.17404	5.43429
17.05955	-6.17404	5.43429
17.06362	-6.23996	5.43429
17.06767	-6.28390	5.43429
17.07173	-6.34982	5.43429
17.07577	-6.39377	5.43429
17.07983	-6.39377	5.43429
17.08389	-6.45968	5.43429
17.08794	-6.52560	5.43429
17.09200	-6.59152	5.43429
17.09606	-6.63547	5.43429
17.10011	-6.63547	5.43429
17.10417	-6.70138	5.43429
17.10823	-6.74533	5.43429
17.11229	-6.81125	5.43429
17.11634	-6.85519	5.43429
17.12040	-6.92111	5.43429
17.12446	-6.92111	5.43429
17.12852	-6.98703	5.43429
17.13257	-7.03097	5.43429
17.13686	-7.09689	5.43429
17.14092	-7.16281	5.43429
17.14497	-7.16281	5.43429
17.14903	-7.22873	5.43429
17.15309	-7.27267	5.43429
17.15714	-7.33859	5.43429
17.16120	-7.40451	5.43429
17.16527	-7.47043	5.43429
17.16933	-7.47043	5.43429
17.17339	-7.51437	5.43429
17.17744	-7.58029	5.43429
17.18150	-7.64621	5.43429
17.18556	-7.69015	5.43429
17.18961	-7.75607	5.43429
17.19367	-7.75607	5.43429
17.19773	-7.80002	5.43429
17.20179	-7.86593	5.43429
17.20584	-7.93185	5.43429
17.20990	-7.93185	5.43429
17.21396	-7.99777	5.43429
17.21802	-8.04172	5.43429
17.22207	-8.10763	5.43429
17.22613	-8.17355	5.43429
17.23019	-8.17355	5.43429
17.23424	-8.23947	5.43429
17.23853	-8.26144	5.43429
17.24259	-8.32736	5.43429
17.24664	-8.37131	5.43429
17.25070	-8.43722	5.43429
17.25477	-8.43722	5.43429
17.25882	-8.50314	5.43429
17.26288	-8.56906	5.43429
17.26696	-8.61300	5.43429
17.27102	-8.67892	5.43429
17.27508	-8.67892	5.43429
17.27914	-8.74484	5.43429
17.28320	-8.78879	5.43429
17.28725	-8.85470	5.43429
17.29131	-8.89865	5.43429
17.29537	-8.89865	5.43429
17.29943	-8.96457	5.43429
17.30348	-9.00851	5.43429
17.30754	-9.07443	5.43429
17.31160	-9.11838	5.43429
17.31566	-9.11838	5.43429
17.31972	-9.18429	5.43429
17.32377	-9.22824	5.43429
17.32783	-9.27218	5.43429
17.33189	-9.33810	5.43429
17.33594	-9.33810	5.43429
17.34023	-9.40402	5.43429
17.34429	-9.44797	5.43429
17.34835	-9.49191	5.43429
17.35241	-9.55783	5.43429
17.35646	-9.60177	5.43429
17.36052	-9.60177	5.43429
17.36458	-9.64572	5.43429
17.36865	-9.68966	5.43429
17.37270	-9.75558	5.43429
17.37676	-9.79953	5.43429
17.38082	-9.79953	5.43429
17.38487	-9.84347	5.43429
17.38893	-9.90939	5.43429
17.39298	-9.95334	5.43429
17.39704	-9.99728	5.43429
17.40110	-9.99728	5.43429
17.40515	-10.04123	5.43429
17.40921	-10.08517	5.43429
17.41326	-10.12912	5.43429
17.41732	-10.17306	5.43429
17.42137	-10.21701	5.43429
17.42543	-10.21701	5.43429
17.42948	-10.26095	5.43429
17.43354	-10.32687	5.43429
17.43760	-10.37082	5.43429
17.44185	-10.41476	5.43429
17.44591	-10.43673	5.43429
17.44997	-10.43673	5.43429
17.45402	-10.50265	5.43429
17.45808	-10.52463	5.43429
17.46213	-10.56857	5.43429
17.46621	-10.63449	5.43429
17.47028	-10.63449	5.43429
17.47434	-10.65646	5.43429
17.47839	-10.70041	5.43429
17.48245	-10.74435	5.43429
17.48651	-10.78830	5.43429
17.49056	-10.78830	5.43429
17.49462	-10.81027	5.43429
17.49868	-10.85422	5.43429
17.50274	-10.89816	5.43429
17.50679	-10.94211	5.43429
17.51085	-10.94211	5.43429
17.51491	-10.98605	5.43429
17.51896	-11.00802	5.43429
17.52302	-11.05197	5.43429
17.52708	-11.09591	5.43429
17.53114	-11.09591	5.43429
17.53519	-11.11789	5.43429
17.53925	-11.16183	5.43429
17.54354	-11.18381	5.43429
17.54760	-11.22775	5.43429
17.55165	-11.22775	5.43429
17.55571	-11.27170	5.43429
17.55977	-11.29367	5.43429
17.56382	-11.33761	5.43429
17.56788	-11.35959	5.43429
17.57194	-11.35959	5.43429
17.57600	-11.38156	5.43429
17.58006	-11.40353	5.43429
17.58412	-11.44748	5.43429
17.58818	-11.46945	5.43429
17.59223	-11.51339	5.43429
17.59629	-11.51339	5.43429
17.60035	-11.51339	5.43429
17.60440	-11.55734	5.43429
17.60846	-11.57931	5.43429
17.61252	-11.60129	5.43429
17.61658	-11.62326	5.43429
17.62063	-11.62326	5.43429
17.62469	-11.64523	5.43429
17.62875	-11.66720	5.43429
17.63281	-11.68918	5.43429
17.63686	-11.68918	5.43429
17.64092	-11.71115	5.43429
17.64520	-11.73312	5.43429
17.64927	-11.75509	5.43429
17.65333	-11.77707	5.43429
17.65738	-11.77707	5.43429
17.66144	-11.79904	5.43429
17.66550	-11.82101	5.43429
17.66957	-11.82101	5.43429
17.67363	-11.84298	5.43429
17.67769	-11.86496	5.43429
17.68175	-11.86496	5.43429
17.68580	-11.88693	5.43429
17.68986	-11.88693	5.43429
17.69392	-11.90890	5.43429
17.69797	-11.93088	5.43429
17.70203	-11.93088	5.43429
17.70609	-11.93088	5.43429
17.71014	-11.95285	5.43429
17.71420	-11.95285	5.43429
17.71826	-11.97482	5.43429
17.72231	-11.97482	5.43429
17.72637	-11.97482	5.43429
17.73043	-11.99679	5.43429
17.73449	-11.99679	5.43429
17.73854	-12.01877	5.43429
17.74260	-12.01877	5.43429
17.74689	-12.01877	5.43429
17.75095	-12.01877	5.43429
17.75501	-12.01877	5.43429
17.75907	-12.04074	5.43429
17.76312	-12.04074	5.43429
17.76718	-12.04074	5.43429
17.77124	-12.04074	5.43429
17.77531	-12.04074	5.43429
17.77936	-12.04074	5.43429
17.78342	-12.06271	5.43429
17.78748	-12.06271	5.43429
17.79154	-12.06271	5.43429
17.79559	-12.06271	5.43429
17.79965	-12.06271	5.43429
17.80371	-12.04074	5.43429
17.80777	-12.04074	5.43429
17.81182	-12.06271	5.43429
17.81588	-12.04074	5.43429
17.81994	-12.04074	5.43429
17.82399	-12.04074	5.43429
17.82805	-12.04074	5.43429
17.83211	-12.04074	5.43429
17.83616	-12.04074	5.43429
17.84022	-12.04074	5.43429
17.84428	-12.01877	5.43429
17.84857	-12.01877	5.43429
17.85263	-12.01877	5.43429
17.85669	-12.01877	5.43429
17.86074	-12.01877	5.43429
17.86480	-11.99679	5.43429
17.86886	-11.99679	5.43429
17.87292	-11.97482	5.43429
17.87698	-11.97482	5.43429
17.88104	-11.97482	5.43429
17.88510	-11.97482	5.43429
17.88915	-11.95285	5.43429
17.89321	-11.95285	5.43429
17.89727	-11.95285	5.43429
17.90132	-11.93088	5.43429
17.90538	-11.90890	5.43429
17.90944	-11.88693	5.43429
17.91350	-11.88693	5.43429
17.91755	-11.88693	5.43429
17.92161	-11.86496	5.43429
17.92567	-11.84298	5.43429
17.92972	-11.84298	5.43429
17.93378	-11.82101	5.43429
17.93784	-11.82101	5.43429
17.94189	-11.79904	5.43429
17.94595	-11.77707	5.43429
17.95024	-11.75509	5.43429
17.95430	-11.75509	5.43429
17.95836	-11.73312	5.43429
17.96242	-11.73312	5.43429
17.96647	-11.71115	5.43429
17.97053	-11.68918	5.43429
17.97460	-11.66720	5.43429
17.97866	-11.64523	5.43429
17.98272	-11.64523	5.43429
17.98678	-11.62326	5.43429
17.99083	-11.60129	5.43429
17.99489	-11.57931	5.43429
17.99895	-11.55734	5.43429
18.00301	-11.53537	5.43429
18.00706	-11.53537	5.43429
18.01112	-11.51339	5.43429
18.01518	-11.49142	5.43429
18.01923	-11.46945	5.43429
18.02329	-11.44748	5.43429
18.02735	-11.44748	5.43429
18.03141	-11.40353	5.43429
18.03546	-11.38156	5.43429
18.03952	-11.35959	5.43429
18.04358	-11.33761	5.43429
18.04763	-11.33761	5.43429
18.05193	-11.31564	5.43429
18.05599	-11.27170	5.43429
18.06005	-11.24972	5.43429
18.06410	-11.22775	5.43429
18.06816	-11.22775	5.43429
18.07222	-11.18381	5.43429
18.07628	-11.16183	5.43429
18.08035	-11.13986	5.43429
18.08441	-11.13986	5.43429
18.08846	-11.09591	5.43429
18.09252	-11.07394	5.43429
18.09658	-11.03000	5.43429
18.10064	-11.00802	5.43429
18.10469	-10.98605	5.43429
18.10875	-10.98605	5.43429
18.11281	-10.96408	5.43429
18.11686	-10.92013	5.43429
18.12092	-10.89816	5.43429
18.12498	-10.85422	5.43429
18.12904	-10.83224	5.43429
18.13309	-10.83224	5.43429
18.13715	-10.81027	5.43429
18.14121	-10.76632	5.43429
18.14526	-10.72238	5.43429
18.14932	-10.70041	5.43429
18.15361	-10.70041	5.43429
18.15766	-10.65646	5.43429
18.16172	-10.63449	5.43429
18.16578	-10.59054	5.43429
18.16984	-10.56857	5.43429
18.17389	-10.54660	5.43429
18.17796	-10.54660	5.43429
18.18202	-10.50265	5.43429
18.18608	-10.45871	5.43429
18.19014	-10.43673	5.43429
18.19420	-10.39279	5.43429
18.19825	-10.39279	5.43429
18.20231	-10.37082	5.43429
18.20637	-10.32687	5.43429
18.21043	-10.30490	5.43429
18.21448	-10.28293	5.43429
18.21854	-10.28293	5.43429
18.22260	-10.23898	5.43429
18.22665	-10.19504	5.43429
18.23071	-10.15109	5.43429
18.23477	-10.12912	5.43429
18.23882	-10.12912	5.43429
18.24288	-10.08517	5.43429
18.24694	-10.06320	5.43429
18.25100	-10.01925	5.43429
18.25529	-9.97531	5.43429
18.25935	-9.95334	5.43429
18.26340	-9.95334	5.43429
18.26746	-9.90939	5.43429
18.27152	-9.88742	5.43429
18.27558	-9.84347	5.43429
18.27964	-9.82150	5.43429
18.28371	-9.82150	5.43429
18.28777	-9.77756	5.43429
18.29182	-9.73361	5.43429
18.29588	-9.71164	5.43429
18.29994	-9.66769	5.43429
18.30400	-9.66769	5.43429
18.30805	-9.62375	5.43429
18.31211	-9.60177	5.43429
18.31617	-9.55783	5.43429
18.32022	-9.51388	5.43429
18.32428	-9.51388	5.43429
18.32834	-9.49191	5.43429
18.33239	-9.44797	5.43429
18.33645	-9.40402	5.43429
18.34051	-9.40402	5.43429
18.34457	-9.38205	5.43429
18.34862	-9.36007	5.43429
18.35268	-9.31613	5.43429
18.35697	-9.29416	5.43429
18.36103	-9.25021	5.43429
18.36508	-9.25021	5.43429
18.36914	-9.20627	5.43429
18.37320	-9.18429	5.43429
18.37725	-9.14035	5.43429
18.38131	-9.09640	5.43429
18.38538	-9.07443	5.43429
18.38943	-9.07443	5.43429
18.39349	-9.03048	5.43429
18.39755	-9.00851	5.43429
18.40160	-8.96457	5.43429
18.40566	-8.94259	5.43429
18.40972	-8.94259	5.43429
18.41378	-8.89865	5.43429
18.41783	-8.85470	5.43429
18.42189	-8.83273	5.43429
18.42595	-8.78879	5.43429
18.43000	-8.76681	5.43429
18.43406	-8.76681	5.43429
18.43812	-8.74484	5.43429
18.44218	-8.70089	5.43429
18.44623	-8.65695	5.43429
18.45029	-8.63498	5.43429
18.45435	-8.63498	5.43429
18.45863	-8.59103	5.43429
18.46269	-8.56906	5.43429
18.46675	-8.54709	5.43429
18.47081	-8.50314	5.43429
18.47486	-8.48117	5.43429
18.47892	-8.48117	5.43429
18.48298	-8.43722	5.43429
18.48705	-8.41525	5.43429
18.49111	-8.37131	5.43429
18.49517	-8.37131	5.43429
18.49922	-8.34933	5.43429
18.50328	-8.30539	5.43429
18.50734	-8.28341	5.43429
18.51140	-8.26144	5.43429
18.51545	-8.23947	5.43429
18.51951	-8.23947	5.43429
18.52357	-8.19552	5.43429
18.52763	-8.17355	5.43429
18.53168	-8.12961	5.43429
18.53574	-8.10763	5.43429
18.53977	-8.10763	5.43429
18.54383	-8.08566	5.43429
18.54788	-8.06369	5.43429
18.55194	-8.01974	5.43429
18.55600	-7.99777	5.43429
18.56028	-7.99777	5.43429
18.56434	-7.97580	5.43429
18.56840	-7.95382	5.43429
18.57246	-7.93185	5.43429
18.57651	-7.90988	5.43429
18.58058	-7.90988	5.43429
18.58464	-7.86593	5.43429
18.58870	-7.84396	5.43429
18.59276	-7.82199	5.43429
18.59681	-7.80002	5.43429
18.60087	-7.77804	5.43429
18.60493	-7.77804	5.43429
18.60899	-7.75607	5.43429
18.61304	-7.73410	5.43429
18.61710	-7.71213	5.43429
18.62116	-7.69015	5.43429
18.62521	-7.69015	5.43429
18.62927	-7.66818	5.43429
18.63334	-7.64621	5.43429
18.63740	-7.62423	5.43429
18.64145	-7.60226	5.43429
18.64551	-7.60226	5.43429
18.64957	-7.58029	5.43429
18.65363	-7.58029	5.43429
18.65768	-7.55832	5.43429
18.66197	-7.53634	5.43429
18.66603	-7.53634	5.43429
18.67008	-7.51437	5.43429
18.67414	-7.49240	5.43429
18.67820	-7.47043	5.43429
18.68226	-7.44845	5.43429
18.68632	-7.44845	5.43429
18.69038	-7.44845	5.43429
18.69444	-7.42648	5.43429
18.69850	-7.40451	5.43429
18.70255	-7.40451	5.43429
18.70661	-7.38254	5.43429
18.71067	-7.38254	5.43429
18.71472	-7.38254	5.43429
18.71878	-7.36056	5.43429
18.72284	-7.33859	5.43429
18.72690	-7.33859	5.43429
18.73095	-7.31662	5.43429
18.73501	-7.31662	5.43429
18.73907	-7.31662	5.43429
18.74312	-7.31662	5.43429
18.74718	-7.29464	5.43429
18.75124	-7.29464	5.43429
18.75530	-7.29464	5.43429
18.75935	-7.27267	5.43429
18.76364	-7.25070	5.43429
18.76770	-7.25070	5.43429
18.77175	-7.25070	5.43429
18.77577	-7.25070	5.43429
18.77983	-7.25070	5.43429
18.78388	-7.22873	5.43429
18.78794	-7.22873	5.43429
18.79200	-7.22873	5.43429
18.79606	-7.22873	5.43429
18.80012	-7.20675	5.43429
18.80417	-7.20675	5.43429
18.80823	-7.20675	5.43429
18.81229	-7.20675	5.43429
18.81635	-7.20675	5.43429
18.82040	-7.18478	5.43429
18.82446	-7.18478	5.43429
18.82852	-7.18478	5.43429
18.83257	-7.18478	5.43429
18.83663	-7.18478	5.43429
18.84069	-7.18478	5.43429
18.84475	-7.18478	5.43429
18.84880	-7.18478	5.43429
18.85286	-7.18478	5.43429
18.85692	-7.16281	5.43429
18.86098	-7.16281	5.43429
18.86526	-7.16281	5.43429
18.86932	-7.18478	5.43429
18.87337	-7.18478	5.43429
18.87743	-7.16281	5.43429
18.88149	-7.16281	5.43429
18.88555	-7.16281	5.43429
18.88961	-7.18478	5.43429
18.89367	-7.18478	5.43429
18.89773	-7.18478	5.43429
18.90179	-7.18478	5.43429
18.90585	-7.18478	5.43429
18.90991	-7.18478	5.43429
18.91396	-7.18478	5.43429
18.91802	-7.18478	5.43429
18.92208	-7.18478	5.43429
18.92613	-7.18478	5.43429
18.93019	-7.18478	5.43429
18.93425	-7.20675	5.43429
18.93831	-7.20675	5.43429
18.94236	-7.20675	5.43429
18.94642	-7.20675	5.43429
18.95048	-7.20675	5.43429
18.95454	-7.22873	5.43429
18.95859	-7.22873	5.43429
18.96265	-7.22873	5.43429
18.96694	-7.22873	5.43429
18.97100	-7.22873	5.43429
18.97506	-7.25070	5.43429
18.97912	-7.25070	5.43429
18.98317	-7.25070	5.43429
18.98724	-7.27267	5.43429
18.99130	-7.27267	5.43429
18.99536	-7.27267	5.43429
18.99942	-7.29464	5.43429
19.00348	-7.29464	5.43429
19.00753	-7.29464	5.43429
19.01159	-7.29464	5.43429
19.01565	-7.31662	5.43429
19.01971	-7.31662	5.43429
19.02377	-7.33859	5.43429
19.02782	-7.33859	5.43429
19.03188	-7.36056	5.43429
19.03594	-7.36056	5.43429
19.03999	-7.36056	5.43429
19.04405	-7.38254	5.43429
19.04811	-7.38254	5.43429
19.05217	-7.38254	5.43429
19.05622	-7.40451	5.43429
19.06028	-7.40451	5.43429
19.06434	-7.42648	5.43429
19.06862	-7.44845	5.43429
19.07268	-7.44845	5.43429
19.07674	-7.44845	5.43429
19.08080	-7.47043	5.43429
19.08485	-7.49240	5.43429
19.08891	-7.51437	5.43429
19.09297	-7.51437	5.43429
19.09703	-7.51437	5.43429
19.10109	-7.53634	5.43429
19.10515	-7.55832	5.43429
19.10920	-7.55832	5.43429
19.11326	-7.58029	5.43429
19.11732	-7.58029	5.43429
19.12138	-7.60226	5.43429
19.12543	-7.62423	5.43429
19.12949	-7.62423	5.43429
19.13355	-7.64621	5.43429
19.13760	-7.64621	5.43429
19.14166	-7.66818	5.43429
19.14572	-7.66818	5.43429
19.14978	-7.69015	5.43429
19.15383	-7.71213	5.43429
19.15789	-7.73410	5.43429
19.16195	-7.73410	5.43429
19.16600	-7.75607	5.43429
19.17029	-7.75607	5.43429
19.17435	-7.80002	5.43429
19.17840	-7.82199	5.43429
19.18246	-7.82199	5.43429
19.18652	-7.82199	5.43429
19.19058	-7.84396	5.43429
19.19463	-7.86593	5.43429
19.19870	-7.88791	5.43429
19.20276	-7.88791	5.43429
19.20682	-7.90988	5.43429
19.21087	-7.90988	5.43429
19.21493	-7.93185	5.43429
19.21899	-7.95382	5.43429
19.22305	-7.95382	5.43429
19.22710	-7.97580	5.43429
19.23116	-7.99777	5.43429
19.23522	-8.01974	5.43429
19.23927	-8.01974	5.43429
19.24333	-8.04172	5.43429
19.24739	-8.04172	5.43429
19.25145	-8.06369	5.43429
19.25550	-8.08566	5.43429
19.25956	-8.10763	5.43429
19.26362	-8.12961	5.43429
19.26767	-8.12961	5.43429
19.27197	-8.15158	5.43429
19.27602	-8.17355	5.43429
19.28008	-8.19552	5.43429
19.28414	-8.19552	5.43429
19.28820	-8.21750	5.43429
19.29225	-8.21750	5.43429
19.29631	-8.23947	5.43429
19.30037	-8.26144	5.43429
19.30443	-8.28341	5.43429
19.30849	-8.30539	5.43429
19.31255	-8.30539	5.43429
19.31661	-8.32736	5.43429
19.32066	-8.34933	5.43429
19.32472	-8.37131	5.43429
19.32878	-8.39328	5.43429
19.33283	-8.39328	5.43429
19.33689	-8.39328	5.43429
19.34095	-8.41525	5.43429
19.34501	-8.43722	5.43429
19.34906	-8.43722	5.43429
19.35312	-8.45920	5.43429
19.35718	-8.48117	5.43429
19.36124	-8.50314	5.43429
19.36529	-8.52511	5.43429
19.36935	-8.54709	5.43429
19.37363	-8.54709	5.43429
19.37769	-8.54709	5.43429
19.38175	-8.56906	5.43429
19.38581	-8.59103	5.43429
19.38986	-8.61300	5.43429
19.39393	-8.61300	5.43429
19.39799	-8.61300	5.43429
19.40205	-8.63498	5.43429
19.40611	-8.65695	5.43429
19.41017	-8.67892	5.43429
19.41422	-8.70089	5.43429
19.41828	-8.70089	5.43429
19.42234	-8.72287	5.43429
19.42640	-8.72287	5.43429
19.43045	-8.74484	5.43429
19.43451	-8.76681	5.43429
19.43857	-8.76681	5.43429
19.44262	-8.78879	5.43429
19.44668	-8.78879	5.43429
19.45074	-8.81076	5.43429
19.45480	-8.83273	5.43429
19.45885	-8.85470	5.43429
19.46291	-8.85470	5.43429
19.46697	-8.85470	5.43429
19.47103	-8.87668	5.43429
19.47532	-8.89865	5.43429
19.47938	-8.89865	5.43429
19.48343	-8.89865	5.43429
19.48749	-8.92062	5.43429
19.49155	-8.94259	5.43429
19.49561	-8.94259	5.43429
19.49967	-8.96457	5.43429
19.50374	-8.96457	5.43429
19.50777	-8.98654	5.43429
19.51182	-8.98654	5.43429
19.51588	-9.00851	5.43429
19.51994	-9.00851	5.43429
19.52400	-9.00851	5.43429
19.52805	-9.03048	5.43429
19.53211	-9.05246	5.43429
19.53617	-9.05246	5.43429
19.54023	-9.07443	5.43429
19.54428	-9.07443	5.43429
19.54834	-9.07443	5.43429
19.55240	-9.09640	5.43429
19.55645	-9.09640	5.43429
19.56051	-9.11838	5.43429
19.56457	-9.11838	5.43429
19.56863	-9.11838	5.43429
19.57268	-9.14035	5.43429
19.57696	-9.14035	5.43429
19.58102	-9.16232	5.43429
19.58508	-9.16232	5.43429
19.58914	-9.16232	5.43429
19.59319	-9.18429	5.43429
19.59725	-9.18429	5.43429
19.60131	-9.18429	5.43429
19.60537	-9.20627	5.43429
19.60943	-9.20627	5.43429
19.61349	-9.20627	5.43429
19.61755	-9.20627	5.43429
19.62160	-9.22824	5.43429
19.62566	-9.22824	5.43429
19.62972	-9.22824	5.43429
19.63377	-9.22824	5.43429
19.63783	-9.25021	5.43429
19.64189	-9.25021	5.43429
19.64595	-9.25021	5.43429
19.65000	-9.25021	5.43429
19.65406	-9.25021	5.43429
19.65812	-9.27218	5.43429
19.66217	-9.27218	5.43429
19.66623	-9.27218	5.43429
19.67029	-9.27218	5.43429
19.67435	-9.27218	5.43429
19.67863	-9.27218	5.43429
19.68269	-9.29416	5.43429
19.68675	-9.29416	5.43429
19.69080	-9.29416	5.43429
19.69486	-9.29416	5.43429
19.69893	-9.29416	5.43429
19.70298	-9.29416	5.43429
19.70705	-9.29416	5.43429
19.71111	-9.29416	5.43429
19.71517	-9.29416	5.43429
19.71923	-9.29416	5.43429
19.72328	-9.31613	5.43429
19.72734	-9.29416	5.43429
19.73140	-9.29416	5.43429
19.73546	-9.31613	5.43429
19.73951	-9.31613	5.43429
19.74357	-9.31613	5.43429
19.74763	-9.29416	5.43429
19.75168	-9.29416	5.43429
19.75574	-9.29416	5.43429
19.75977	-9.29416	5.43429
19.76382	-9.29416	5.43429
19.76788	-9.29416	5.43429
19.77194	-9.31613	5.43429
19.77600	-9.29416	5.43429
19.78028	-9.29416	5.43429
19.78434	-9.29416	5.43429
19.78839	-9.29416	5.43429
19.79245	-9.29416	5.43429
19.79651	-9.29416	5.43429
19.80057	-9.29416	5.43429
19.80462	-9.29416	5.43429
19.80869	-9.29416	5.43429
19.81274	-9.29416	5.43429
19.81680	-9.29416	5.43429
19.82086	-9.27218	5.43429
19.82492	-9.27218	5.43429
19.82897	-9.27218	5.43429
19.83303	-9.27218	5.43429
19.83709	-9.27218	5.43429
19.84114	-9.27218	5.43429
19.84520	-9.27218	5.43429
19.84926	-9.27218	5.43429
19.85332	-9.27218	5.43429
19.85737	-9.25021	5.43429
19.86143	-9.25021	5.43429
19.86549	-9.25021	5.43429
19.86954	-9.25021	5.43429
19.87360	-9.25021	5.43429
19.87766	-9.25021	5.43429
19.88195	-9.25021	5.43429
19.88600	-9.22824	5.43429
19.89006	-9.22824	5.43429
19.89412	-9.22824	5.43429
19.89818	-9.22824	5.43429
19.90224	-9.22824	5.43429
19.90630	-9.22824	5.43429
19.91036	-9.20627	5.43429
19.91442	-9.20627	5.43429
19.91847	-9.20627	5.43429
19.92253	-9.20627	5.43429
19.92659	-9.18429	5.43429
19.93065	-9.18429	5.43429
19.93470	-9.18429	5.43429
19.93876	-9.18429	5.43429
19.94282	-9.16232	5.43429
19.94687	-9.16232	5.43429
19.95093	-9.16232	5.43429
19.95499	-9.16232	5.43429
19.95905	-9.16232	5.43429
19.96311	-9.16232	5.43429
19.96716	-9.14035	5.43429
19.97122	-9.14035	5.43429
19.97528	-9.14035	5.43429
19.97933	-9.14035	5.43429
19.98361	-9.14035	5.43429
19.98767	-9.11838	5.43429
19.99172	-9.11838	5.43429
19.99577	-9.11838	5.43429
19.99982	-9.11838	5.43429
20.00388	-9.11838	5.43429
20.00794	-9.09640	5.43429
20.01200	-9.09640	5.43429
20.01606	-9.09640	5.43429
20.02012	-9.09640	5.43429
20.02418	-9.07443	5.43429
20.02823	-9.09640	5.43429
20.03229	-9.07443	5.43429
20.03635	-9.07443	5.43429
20.04040	-9.07443	5.43429
20.04446	-9.07443	5.43429
20.04852	-9.05246	5.43429
20.05258	-9.05246	5.43429
20.05663	-9.05246	5.43429
20.06069	-9.05246	5.43429
20.06475	-9.05246	5.43429
20.06880	-9.03048	5.43429
20.07286	-9.03048	5.43429
20.07692	-9.03048	5.43429
20.08098	-9.03048	5.43429
20.08526	-9.03048	5.43429
20.08932	-9.00851	5.43429
20.09338	-9.00851	5.43429
20.09744	-9.00851	5.43429
20.10149	-9.00851	5.43429
20.10556	-9.00851	5.43429
20.10962	-8.98654	5.43429
20.11368	-8.98654	5.43429
20.11774	-9.00851	5.43429
20.12180	-9.00851	5.43429
20.12586	-8.98654	5.43429
20.12991	-8.98654	5.43429
20.13397	-8.96457	5.43429
20.13803	-8.96457	5.43429
20.14208	-8.96457	5.43429
20.14614	-8.96457	5.43429
20.15020	-8.96457	5.43429
20.15426	-8.96457	5.43429
20.15831	-8.94259	5.43429
20.16237	-8.94259	5.43429
20.16643	-8.94259	5.43429
20.17048	-8.94259	5.43429
20.17454	-8.94259	5.43429
20.17860	-8.94259	5.43429
20.18266	-8.92062	5.43429
20.18695	-8.92062	5.43429
20.19100	-8.92062	5.43429
20.19506	-8.92062	5.43429
20.19912	-8.92062	5.43429
20.20318	-8.92062	5.43429
20.20724	-8.92062	5.43429
20.21130	-8.89865	5.43429
20.21537	-8.89865	5.43429
20.21942	-8.89865	5.43429
20.22348	-8.89865	5.43429
20.22754	-8.87668	5.43429
20.23160	-8.87668	5.43429
20.23565	-8.89865	5.43429
20.23971	-8.87668	5.43429
20.24377	-8.87668	5.43429
20.24782	-8.87668	5.43429
20.25188	-8.87668	5.43429
20.25594	-8.87668	5.43429
20.26000	-8.87668	5.43429
20.26406	-8.85470	5.43429
20.26811	-8.85470	5.43429
20.27217	-8.85470	5.43429
20.27623	-8.85470	5.43429
20.28029	-8.85470	5.43429
20.28434	-8.85470	5.43429
20.28863	-8.85470	5.43429
20.29269	-8.83273	5.43429
20.29674	-8.83273	5.43429
20.30080	-8.85470	5.43429
20.30486	-8.83273	5.43429
20.30892	-8.83273	5.43429
20.31297	-8.81076	5.43429
20.31704	-8.81076	5.43429
20.32110	-8.81076	5.43429
20.32515	-8.81076	5.43429
20.32921	-8.81076	5.43429
20.33327	-8.78879	5.43429
20.33733	-8.78879	5.43429
20.34138	-8.78879	5.43429
20.34544	-8.78879	5.43429
20.34950	-8.78879	5.43429
20.35356	-8.78879	5.43429
20.35761	-8.78879	5.43429
20.36167	-8.76681	5.43429
20.36573	-8.76681	5.43429
20.36978	-8.76681	5.43429
20.37384	-8.76681	5.43429
20.37790	-8.76681	5.43429
20.38196	-8.74484	5.43429
20.38601	-8.74484	5.43429
20.39030	-8.74484	5.43429
20.39436	-8.72287	5.43429
20.39842	-8.72287	5.43429
20.40248	-8.72287	5.43429
20.40653	-8.72287	5.43429
20.41059	-8.72287	5.43429
20.41465	-8.70089	5.43429
20.41872	-8.70089	5.43429
20.42277	-8.70089	5.43429
20.42683	-8.70089	5.43429
20.43089	-8.67892	5.43429
20.43495	-8.67892	5.43429
20.43900	-8.67892	5.43429
20.44306	-8.67892	5.43429
20.44712	-8.67892	5.43429
20.45117	-8.65695	5.43429
20.45523	-8.63498	5.43429
20.45929	-8.65695	5.43429
20.46335	-8.65695	5.43429
20.46740	-8.63498	5.43429
20.47146	-8.63498	5.43429
20.47552	-8.63498	5.43429
20.47958	-8.61300	5.43429
20.48363	-8.61300	5.43429
20.48769	-8.61300	5.43429
20.49199	-8.61300	5.43429
20.49604	-8.59103	5.43429
20.50010	-8.59103	5.43429
20.50416	-8.59103	5.43429
20.50822	-8.59103	5.43429
20.51227	-8.56906	5.43429
20.51633	-8.56906	5.43429
20.52040	-8.56906	5.43429
20.52446	-8.54709	5.43429
20.52851	-8.54709	5.43429
20.53257	-8.54709	5.43429
20.53663	-8.52511	5.43429
20.54068	-8.52511	5.43429
20.54474	-8.52511	5.43429
20.54880	-8.50314	5.43429
20.55286	-8.50314	5.43429
20.55691	-8.50314	5.43429
20.56097	-8.50314	5.43429
20.56503	-8.48117	5.43429
20.56908	-8.48117	5.43429
20.57314	-8.45920	5.43429
20.57720	-8.45920	5.43429
20.58126	-8.45920	5.43429
20.58531	-8.43722	5.43429
20.58937	-8.43722	5.43429
20.59365	-8.43722	5.43429
20.59771	-8.43722	5.43429
20.60177	-8.41525	5.43429
20.60583	-8.41525	5.43429
20.60988	-8.39328	5.43429
20.61394	-8.39328	5.43429
20.61800	-8.39328	5.43429
20.62206	-8.39328	5.43429
20.62612	-8.37131	5.43429
20.63018	-8.37131	5.43429
20.63424	-8.37131	5.43429
20.63829	-8.37131	5.43429
20.64235	-8.34933	5.43429
20.64641	-8.34933	5.43429
20.65046	-8.32736	5.43429
20.65452	-8.32736	5.43429
20.65858	-8.32736	5.43429
20.66264	-8.32736	5.43429
20.66669	-8.30539	5.43429
20.67075	-8.30539	5.43429
20.67481	-8.30539	5.43429
20.67886	-8.30539	5.43429
20.68292	-8.28341	5.43429
20.68698	-8.26144	5.43429
20.69104	-8.26144	5.43429
20.69532	-8.26144	5.43429
20.69938	-8.23947	5.43429
20.70343	-8.23947	5.43429
20.70749	-8.23947	5.43429
20.71155	-8.23947	5.43429
20.71561	-8.21750	5.43429
20.71966	-8.21750	5.43429
20.72373	-8.21750	5.43429
20.72777	-8.19552	5.43429
20.73183	-8.19552	5.43429
20.73589	-8.19552	5.43429
20.73994	-8.17355	5.43429
20.74400	-8.17355	5.43429
20.74806	-8.17355	5.43429
20.75211	-8.15158	5.43429
20.75617	-8.15158	5.43429
20.76023	-8.15158	5.43429
20.76429	-8.15158	5.43429
20.76834	-8.12961	5.43429
20.77240	-8.12961	5.43429
20.77646	-8.12961	5.43429
20.78051	-8.10763	5.43429
20.78457	-8.10763	5.43429
20.78863	-8.10763	5.43429
20.79269	-8.10763	5.43429
20.79697	-8.08566	5.43429
20.80103	-8.08566	5.43429
20.80509	-8.08566	5.43429
20.80914	-8.08566	5.43429
20.81320	-8.06369	5.43429
20.81726	-8.06369	5.43429
20.82132	-8.06369	5.43429
20.82538	-8.04172	5.43429
20.82944	-8.01974	5.43429
20.83350	-8.01974	5.43429
20.83755	-8.01974	5.43429
20.84161	-8.01974	5.43429
20.84567	-7.99777	5.43429
20.84973	-7.99777	5.43429
20.85378	-7.99777	5.43429
20.85784	-7.99777	5.43429
20.86190	-7.97580	5.43429
20.86595	-7.97580	5.43429
20.87001	-7.97580	5.43429
20.87407	-7.97580	5.43429
20.87813	-7.97580	5.43429
20.88218	-7.97580	5.43429
20.88624	-7.95382	5.43429
20.89030	-7.95382	5.43429
20.89436	-7.95382	5.43429
20.89864	-7.95382	5.43429
20.90270	-7.93185	5.43429
20.90675	-7.93185	5.43429
20.91082	-7.90988	5.43429
20.91487	-7.90988	5.43429
20.91893	-7.90988	5.43429
20.92299	-7.90988	5.43429
20.92705	-7.90988	5.43429
20.93111	-7.88791	5.43429
20.93517	-7.88791	5.43429
20.93923	-7.88791	5.43429
20.94328	-7.88791	5.43429
20.94734	-7.88791	5.43429
20.95140	-7.88791	5.43429
20.95545	-7.86593	5.43429
20.95951	-7.86593	5.43429
20.96357	-7.86593	5.43429
20.96763	-7.86593	5.43429
20.97168	-7.84396	5.43429
20.97574	-7.86593	5.43429
20.97977	-7.86593	5.43429
20.98382	-7.84396	5.43429
20.98788	-7.84396	5.43429
20.99194	-7.84396	5.43429
20.99600	-7.84396	5.43429
21.00028	-7.84396	5.43429
21.00434	-7.84396	5.43429
21.00839	-7.82199	5.43429
21.01245	-7.82199	5.43429
21.01651	-7.82199	5.43429
21.02057	-7.82199	5.43429
21.02462	-7.82199	5.43429
21.02869	-7.82199	5.43429
21.03274	-7.82199	5.43429
21.03680	-7.82199	5.43429
21.04086	-7.82199	5.43429
21.04492	-7.82199	5.43429
21.04897	-7.80002	5.43429
21.05303	-7.80002	5.43429
21.05709	-7.80002	5.43429
21.06115	-7.80002	5.43429
21.06520	-7.80002	5.43429
21.06926	-7.80002	5.43429
21.07332	-7.80002	5.43429
21.07737	-7.80002	5.43429
21.08143	-7.80002	5.43429
21.08549	-7.80002	5.43429
21.08955	-7.80002	5.43429
21.09360	-7.80002	5.43429
21.09766	-7.80002	5.43429
21.10195	-7.80002	5.43429
21.10600	-7.77804	5.43429
21.11006	-7.77804	5.43429
21.11412	-7.80002	5.43429
21.11818	-7.77804	5.43429
21.12223	-7.77804	5.43429
21.12629	-7.77804	5.43429
21.13036	-7.77804	5.43429
21.13441	-7.77804	5.43429
21.13847	-7.77804	5.43429
21.14253	-7.77804	5.43429
21.14659	-7.77804	5.43429
21.15064	-7.77804	5.43429
21.15470	-7.80002	5.43429
21.15876	-7.77804	5.43429
21.16281	-7.77804	5.43429
21.16687	-7.77804	5.43429
21.17093	-7.77804	5.43429
21.17498	-7.80002	5.43429
21.17904	-7.77804	5.43429
21.18310	-7.77804	5.43429
21.18716	-7.80002	5.43429
21.19121	-7.80002	5.43429
21.19527	-7.80002	5.43429
21.19933	-7.80002	5.43429
21.20362	-7.80002	5.43429
21.20767	-7.80002	5.43429
21.21173	-7.80002	5.43429
21.21577	-7.80002	5.43429
21.21982	-7.80002	5.43429
21.22388	-7.80002	5.43429
21.22794	-7.80002	5.43429
21.23201	-7.80002	5.43429
21.23606	-7.80002	5.43429
21.24012	-7.82199	5.43429
21.24418	-7.80002	5.43429
21.24824	-7.82199	5.43429
21.25230	-7.82199	5.43429
21.25636	-7.82199	5.43429
21.26041	-7.82199	5.43429
21.26447	-7.84396	5.43429
21.26853	-7.82199	5.43429
21.27259	-7.84396	5.43429
21.27664	-7.82199	5.43429
21.28070	-7.82199	5.43429
21.28476	-7.84396	5.43429
21.28882	-7.86593	5.43429
21.29287	-7.86593	5.43429
21.29693	-7.86593	5.43429
21.30099	-7.86593	5.43429
21.30527	-7.86593	5.43429
21.30933	-7.86593	5.43429
21.31339	-7.86593	5.43429
21.31745	-7.88791	5.43429
21.32151	-7.88791	5.43429
21.32556	-7.88791	5.43429
21.32962	-7.88791	5.43429
21.33369	-7.90988	5.43429
21.33775	-7.90988	5.43429
21.34181	-7.90988	5.43429
21.34586	-7.90988	5.43429
21.34992	-7.90988	5.43429
21.35398	-7.93185	5.43429
21.35803	-7.93185	5.43429
21.36210	-7.93185	5.43429
21.36616	-7.93185	5.43429
21.37021	-7.93185	5.43429
21.37427	-7.95382	5.43429
21.37833	-7.95382	5.43429
21.38239	-7.95382	5.43429
21.38644	-7.95382	5.43429
21.39050	-7.97580	5.43429
21.39456	-7.97580	5.43429
21.39862	-7.97580	5.43429
21.40267	-7.97580	5.43429
21.40696	-7.97580	5.43429
21.41102	-7.99777	5.43429
21.41508	-7.99777	5.43429
21.41914	-7.99777	5.43429
21.42320	-7.99777	5.43429
21.42726	-8.01974	5.43429
21.43131	-8.01974	5.43429
21.43538	-8.01974	5.43429
21.43944	-8.01974	5.43429
21.44349	-8.04172	5.43429
21.44755	-8.04172	5.43429
21.45161	-8.04172	5.43429
21.45567	-8.06369	5.43429
21.45972	-8.06369	5.43429
21.46377	-8.06369	5.43429
21.46782	-8.08566	5.43429
21.47188	-8.08566	5.43429
21.47594	-8.08566	5.43429
21.47999	-8.08566	5.43429
21.48405	-8.08566	5.43429
21.48811	-8.10763	5.43429
21.49216	-8.10763	5.43429
21.49622	-8.10763	5.43429
21.50028	-8.10763	5.43429
21.50434	-8.12961	5.43429
21.50862	-8.12961	5.43429
21.51268	-8.12961	5.43429
21.51674	-8.12961	5.43429
21.52080	-8.15158	5.43429
21.52485	-8.15158	5.43429
21.52891	-8.17355	5.43429
21.53297	-8.17355	5.43429
21.53703	-8.17355	5.43429
21.54109	-8.17355	5.43429
21.54515	-8.17355	5.43429
21.54921	-8.19552	5.43429
21.55326	-8.19552	5.43429
21.55732	-8.19552	5.43429
21.56138	-8.19552	5.43429
21.56543	-8.21750	5.43429
21.56949	-8.21750	5.43429
21.57355	-8.21750	5.43429
21.57761	-8.23947	5.43429
21.58166	-8.23947	5.43429
21.58572	-8.23947	5.43429
21.58978	-8.23947	5.43429
21.59383	-8.26144	5.43429
21.59789	-8.26144	5.43429
21.60195	-8.26144	5.43429
21.60600	-8.28341	5.43429
21.61029	-8.28341	5.43429
21.61435	-8.28341	5.43429
21.61841	-8.28341	5.43429
21.62247	-8.28341	5.43429
21.62653	-8.30539	5.43429
21.63059	-8.30539	5.43429
21.63464	-8.30539	5.43429
21.63871	-8.32736	5.43429
21.64276	-8.32736	5.43429
21.64682	-8.32736	5.43429
21.65088	-8.32736	5.43429
21.65494	-8.34933	5.43429
21.65899	-8.34933	5.43429
21.66305	-8.34933	5.43429
21.66711	-8.34933	5.43429
21.67116	-8.34933	5.43429
21.67522	-8.37131	5.43429
21.67928	-8.37131	5.43429
21.68334	-8.37131	5.43429
21.68739	-8.37131	5.43429
21.69145	-8.39328	5.43429
21.69551	-8.39328	5.43429
21.69956	-8.39328	5.43429
21.70362	-8.39328	5.43429
21.70768	-8.39328	5.43429
21.71197	-8.41525	5.43429
21.71603	-8.41525	5.43429
21.72009	-8.41525	5.43429
21.72415	-8.41525	5.43429
21.72820	-8.41525	5.43429
21.73226	-8.41525	5.43429
21.73632	-8.41525	5.43429
21.74038	-8.43722	5.43429
21.74444	-8.43722	5.43429
21.74850	-8.43722	5.43429
21.75255	-8.43722	5.43429
21.75661	-8.43722	5.43429
21.76067	-8.45920	5.43429
21.76472	-8.45920	5.43429
21.76878	-8.45920	5.43429
21.77284	-8.45920	5.43429
21.77689	-8.45920	5.43429
21.78095	-8.45920	5.43429
21.78501	-8.45920	5.43429
21.78907	-8.45920	5.43429
21.79312	-8.45920	5.43429
21.79718	-8.45920	5.43429
21.80124	-8.48117	5.43429
21.80529	-8.48117	5.43429
21.80935	-8.48117	5.43429
21.81364	-8.50314	5.43429
21.81770	-8.50314	5.43429
21.82176	-8.48117	5.43429
21.82582	-8.48117	5.43429
21.82988	-8.48117	5.43429
21.83393	-8.50314	5.43429
21.83799	-8.50314	5.43429
21.84205	-8.50314	5.43429
21.84611	-8.50314	5.43429
21.85017	-8.50314	5.43429
21.85423	-8.50314	5.43429
21.85828	-8.50314	5.43429
21.86234	-8.50314	5.43429
21.86640	-8.52511	5.43429
21.87045	-8.52511	5.43429
21.87451	-8.50314	5.43429
21.87857	-8.50314	5.43429
21.88263	-8.52511	5.43429
21.88668	-8.52511	5.43429
21.89074	-8.52511	5.43429
21.89480	-8.54709	5.43429
21.89885	-8.54709	5.43429
21.90291	-8.52511	5.43429
21.90697	-8.52511	5.43429
21.91103	-8.52511	5.43429
21.91531	-8.52511	5.43429
21.91937	-8.52511	5.43429
21.92343	-8.54709	5.43429
21.92749	-8.54709	5.43429
21.93154	-8.54709	5.43429
21.93560	-8.52511	5.43429
21.93966	-8.54709	5.43429
21.94372	-8.54709	5.43429
21.94777	-8.54709	5.43429
21.95182	-8.54709	5.43429
21.95588	-8.54709	5.43429
21.95994	-8.54709	5.43429
21.96399	-8.54709	5.43429
21.96805	-8.54709	5.43429
21.97211	-8.54709	5.43429
21.97617	-8.54709	5.43429
21.98022	-8.54709	5.43429
21.98428	-8.54709	5.43429
21.98834	-8.54709	5.43429
21.99239	-8.54709	5.43429
21.99645	-8.54709	5.43429
22.00051	-8.54709	5.43429
22.00456	-8.54709	5.43429
22.00862	-8.54709	5.43429
22.01268	-8.54709	5.43429
22.01696	-8.54709	5.43429
22.02102	-8.54709	5.43429
22.02508	-8.54709	5.43429
22.02913	-8.54709	5.43429
22.03319	-8.54709	5.43429
22.03725	-8.54709	5.43429
22.04131	-8.54709	5.43429
22.04537	-8.54709	5.43429
22.04943	-8.54709	5.43429
22.05349	-8.54709	5.43429
22.05754	-8.52511	5.43429
22.06160	-8.54709	5.43429
22.06566	-8.52511	5.43429
22.06971	-8.52511	5.43429
22.07377	-8.52511	5.43429
22.07783	-8.52511	5.43429
22.08189	-8.52511	5.43429
22.08594	-8.52511	5.43429
22.09000	-8.52511	5.43429
22.09406	-8.52511	5.43429
22.09811	-8.52511	5.43429
22.10217	-8.52511	5.43429
22.10623	-8.52511	5.43429
22.11028	-8.50314	5.43429
22.11434	-8.52511	5.43429
22.11863	-8.52511	5.43429
22.12268	-8.50314	5.43429
22.12675	-8.50314	5.43429
22.13081	-8.50314	5.43429
22.13486	-8.50314	5.43429
22.13892	-8.50314	5.43429
22.14298	-8.50314	5.43429
22.14704	-8.48117	5.43429
22.15110	-8.48117	5.43429
22.15516	-8.48117	5.43429
22.15922	-8.48117	5.43429
22.16327	-8.48117	5.43429
22.16733	-8.45920	5.43429
22.17139	-8.45920	5.43429
22.17544	-8.45920	5.43429
22.17950	-8.45920	5.43429
22.18356	-8.45920	5.43429
22.18762	-8.43722	5.43429
22.19167	-8.43722	5.43429
22.19573	-8.43722	5.43429
22.19977	-8.43722	5.43429
22.20383	-8.43722	5.43429
22.20789	-8.43722	5.43429
22.21194	-8.41525	5.43429
22.21600	-8.41525	5.43429
22.22029	-8.41525	5.43429
22.22434	-8.41525	5.43429
22.22840	-8.39328	5.43429
22.23246	-8.41525	5.43429
22.23652	-8.39328	5.43429
22.24057	-8.39328	5.43429
22.24463	-8.39328	5.43429
22.24869	-8.39328	5.43429
22.25275	-8.39328	5.43429
22.25681	-8.39328	5.43429
22.26087	-8.37131	5.43429
22.26492	-8.37131	5.43429
22.26898	-8.37131	5.43429
22.27304	-8.37131	5.43429
22.27710	-8.34933	5.43429
22.28115	-8.34933	5.43429
22.28521	-8.34933	5.43429
22.28927	-8.34933	5.43429
22.29332	-8.34933	5.43429
22.29738	-8.32736	5.43429
22.30144	-8.32736	5.43429
22.30550	-8.32736	5.43429
22.30955	-8.32736	5.43429
22.31361	-8.32736	5.43429
22.31767	-8.32736	5.43429
22.32196	-8.30539	5.43429
22.32602	-8.30539	5.43429
22.33008	-8.30539	5.43429
22.33414	-8.30539	5.43429
22.33820	-8.28341	5.43429
22.34225	-8.28341	5.43429
22.34631	-8.28341	5.43429
22.35038	-8.28341	5.43429
22.35443	-8.26144	5.43429
22.35849	-8.28341	5.43429
22.36255	-8.26144	5.43429
22.36661	-8.26144	5.43429
22.37066	-8.23947	5.43429
22.37472	-8.23947	5.43429
22.37878	-8.26144	5.43429
22.38283	-8.23947	5.43429
22.38689	-8.23947	5.43429
22.39095	-8.23947	5.43429
22.39500	-8.23947	5.43429
22.39906	-8.23947	5.43429
22.40312	-8.23947	5.43429
22.40718	-8.21750	5.43429
22.41123	-8.21750	5.43429
22.41529	-8.21750	5.43429
22.41935	-8.21750	5.43429
22.42363	-8.21750	5.43429
22.42769	-8.19552	5.43429
22.43175	-8.19552	5.43429
22.43577	-8.19552	5.43429
22.43983	-8.19552	5.43429
22.44388	-8.19552	5.43429
22.44794	-8.17355	5.43429
22.45200	-8.17355	5.43429
22.45606	-8.17355	5.43429
22.46012	-8.17355	5.43429
22.46418	-8.19552	5.43429
22.46823	-8.17355	5.43429
22.47229	-8.17355	5.43429
22.47635	-8.17355	5.43429
22.48041	-8.15158	5.43429
22.48446	-8.15158	5.43429
22.48852	-8.15158	5.43429
22.49258	-8.15158	5.43429
22.49663	-8.12961	5.43429
22.50069	-8.12961	5.43429
22.50475	-8.12961	5.43429
22.50881	-8.12961	5.43429
22.51286	-8.12961	5.43429
22.51692	-8.12961	5.43429
22.52098	-8.12961	5.43429
22.52526	-8.12961	5.43429
22.52932	-8.12961	5.43429
22.53338	-8.10763	5.43429
22.53744	-8.12961	5.43429
22.54150	-8.10763	5.43429
22.54555	-8.10763	5.43429
22.54961	-8.10763	5.43429
22.55368	-8.08566	5.43429
22.55774	-8.08566	5.43429
22.56180	-8.08566	5.43429
22.56586	-8.08566	5.43429
22.56992	-8.08566	5.43429
22.57397	-8.08566	5.43429
22.57803	-8.08566	5.43429
22.58209	-8.06369	5.43429
22.58615	-8.06369	5.43429
22.59020	-8.06369	5.43429
22.59426	-8.06369	5.43429
22.59832	-8.06369	5.43429
22.60237	-8.06369	5.43429
22.60643	-8.06369	5.43429
22.61049	-8.06369	5.43429
22.61455	-8.06369	5.43429
22.61860	-8.04172	5.43429
22.62266	-8.06369	5.43429
22.62695	-8.04172	5.43429
22.63101	-8.04172	5.43429
22.63507	-8.04172	5.43429
22.63913	-8.04172	5.43429
22.64319	-8.04172	5.43429
22.64725	-8.04172	5.43429
22.65131	-8.04172	5.43429
22.65537	-8.04172	5.43429
22.65943	-8.04172	5.43429
22.66349	-8.04172	5.43429
22.66755	-8.04172	5.43429
22.67160	-8.04172	5.43429
22.67566	-8.04172	5.43429
22.67972	-8.04172	5.43429
22.68377	-8.04172	5.43429
22.68782	-8.01974	5.43429
22.69188	-8.01974	5.43429
22.69594	-8.01974	5.43429
22.70000	-8.01974	5.43429
22.70405	-8.01974	5.43429
22.70811	-8.04172	5.43429
22.71217	-8.04172	5.43429
22.71622	-8.01974	5.43429
22.72028	-8.01974	5.43429
22.72434	-8.01974	5.43429
22.72863	-8.01974	5.43429
22.73269	-8.01974	5.43429
22.73675	-8.04172	5.43429
22.74081	-8.04172	5.43429
22.74486	-8.04172	5.43429
22.74892	-8.01974	5.43429
22.75298	-8.01974	5.43429
22.75704	-8.01974	5.43429
22.76110	-8.04172	5.43429
22.76515	-8.04172	5.43429
22.76921	-8.04172	5.43429
22.77327	-8.04172	5.43429
22.77733	-8.04172	5.43429
22.78138	-8.04172	5.43429
22.78544	-8.04172	5.43429
22.78950	-8.04172	5.43429
22.79356	-8.04172	5.43429
22.79761	-8.04172	5.43429
22.80167	-8.04172	5.43429
22.80573	-8.04172	5.43429
22.80978	-8.04172	5.43429
22.81384	-8.04172	5.43429
22.81790	-8.06369	5.43429
22.82195	-8.04172	5.43429
22.82601	-8.04172	5.43429
22.83030	-8.04172	5.43429
22.83436	-8.06369	5.43429
22.83841	-8.06369	5.43429
22.84247	-8.06369	5.43429
22.84653	-8.06369	5.43429
22.85059	-8.06369	5.43429
22.85464	-8.06369	5.43429
22.85871	-8.06369	5.43429
22.86277	-8.06369	5.43429
22.86682	-8.06369	5.43429
22.87088	-8.06369	5.43429
22.87494	-8.08566	5.43429
22.87899	-8.08566	5.43429
22.88305	-8.08566	5.43429
22.88711	-8.08566	5.43429
22.89117	-8.08566	5.43429
22.89522	-8.08566	5.43429
22.89928	-8.08566	5.43429
22.90334	-8.08566	5.43429
22.90740	-8.08566	5.43429
22.91145	-8.10763	5.43429
22.91551	-8.08566	5.43429
22.91957	-8.10763	5.43429
22.92362	-8.10763	5.43429
22.92768	-8.10763	5.43429
22.93197	-8.10763	5.43429
22.93603	-8.10763	5.43429
22.94009	-8.12961	5.43429
22.94415	-8.10763	5.43429
22.94820	-8.10763	5.43429
22.95226	-8.12961	5.43429
22.95632	-8.12961	5.43429
22.96038	-8.12961	5.43429
22.96444	-8.12961	5.43429
22.96850	-8.12961	5.43429
22.97255	-8.12961	5.43429
22.97661	-8.12961	5.43429
22.98067	-8.15158	5.43429
22.98472	-8.15158	5.43429
22.98878	-8.15158	5.43429
22.99284	-8.15158	5.43429
22.99690	-8.15158	5.43429
23.00095	-8.15158	5.43429
23.00501	-8.15158	5.43429
23.00907	-8.15158	5.43429
23.01312	-8.15158	5.43429
23.01718	-8.15158	5.43429
23.02124	-8.17355	5.43429
23.02530	-8.17355	5.43429
23.02935	-8.17355	5.43429
23.03365	-8.17355	5.43429
23.03770	-8.17355	5.43429
23.04176	-8.17355	5.43429
23.04582	-8.17355	5.43429
23.04988	-8.17355	5.43429
23.05393	-8.17355	5.43429
23.05799	-8.17355	5.43429
23.06205	-8.19552	5.43429
23.06611	-8.19552	5.43429
23.07017	-8.19552	5.43429
23.07422	-8.19552	5.43429
23.07828	-8.19552	5.43429
23.08234	-8.19552	5.43429
23.08640	-8.21750	5.43429
23.09045	-8.21750	5.43429
23.09451	-8.19552	5.43429
23.09857	-8.21750	5.43429
23.10262	-8.21750	5.43429
23.10668	-8.21750	5.43429
23.11074	-8.21750	5.43429
23.11480	-8.21750	5.43429
23.11885	-8.21750	5.43429
23.12291	-8.21750	5.43429
23.12697	-8.21750	5.43429
23.13103	-8.23947	5.43429
23.13532	-8.21750	5.43429
23.13938	-8.23947	5.43429
23.14344	-8.23947	5.43429
23.14749	-8.23947	5.43429
23.15155	-8.23947	5.43429
23.15561	-8.23947	5.43429
23.15967	-8.23947	5.43429
23.16373	-8.23947	5.43429
23.16777	-8.23947	5.43429
23.17183	-8.23947	5.43429
23.17589	-8.26144	5.43429
23.17995	-8.26144	5.43429
23.18400	-8.26144	5.43429
23.18806	-8.26144	5.43429
23.19212	-8.26144	5.43429
23.19617	-8.26144	5.43429
23.20023	-8.26144	5.43429
23.20429	-8.26144	5.43429
23.20835	-8.26144	5.43429
23.21240	-8.28341	5.43429
23.21646	-8.26144	5.43429
23.22052	-8.26144	5.43429
23.22457	-8.28341	5.43429
23.22863	-8.28341	5.43429
23.23269	-8.28341	5.43429
23.23698	-8.28341	5.43429
23.24104	-8.28341	5.43429
23.24510	-8.28341	5.43429
23.24916	-8.28341	5.43429
23.25321	-8.28341	5.43429
23.25727	-8.28341	5.43429
23.26133	-8.28341	5.43429
23.26539	-8.30539	5.43429
23.26945	-8.28341	5.43429
23.27350	-8.28341	5.43429
23.27756	-8.30539	5.43429
23.28162	-8.30539	5.43429
23.28568	-8.30539	5.43429
23.28974	-8.30539	5.43429
23.29379	-8.30539	5.43429
23.29785	-8.30539	5.43429
23.30191	-8.30539	5.43429
23.30596	-8.30539	5.43429
23.31002	-8.30539	5.43429
23.31408	-8.30539	5.43429
23.31813	-8.32736	5.43429
23.32219	-8.30539	5.43429
23.32625	-8.30539	5.43429
23.33030	-8.30539	5.43429
23.33436	-8.30539	5.43429
23.33865	-8.30539	5.43429
23.34271	-8.30539	5.43429
23.34677	-8.30539	5.43429
23.35083	-8.30539	5.43429
23.35489	-8.30539	5.43429
23.35894	-8.30539	5.43429
23.36300	-8.30539	5.43429
23.36706	-8.30539	5.43429
23.37112	-8.30539	5.43429
23.37518	-8.32736	5.43429
23.37924	-8.32736	5.43429
23.38329	-8.32736	5.43429
23.38735	-8.30539	5.43429
23.39141	-8.30539	5.43429
23.39547	-8.30539	5.43429
23.39952	-8.30539	5.43429
23.40358	-8.30539	5.43429
23.40764	-8.30539	5.43429
23.41169	-8.30539	5.43429
23.41575	-8.32736	5.43429
23.41977	-8.32736	5.43429
23.42382	-8.30539	5.43429
23.42788	-8.30539	5.43429
23.43194	-8.30539	5.43429
23.43599	-8.30539	5.43429
23.44028	-8.30539	5.43429
23.44434	-8.30539	5.43429
23.44839	-8.30539	5.43429
23.45245	-8.30539	5.43429
23.45651	-8.30539	5.43429
23.46056	-8.30539	5.43429
23.46462	-8.30539	5.43429
23.46868	-8.30539	5.43429
23.47274	-8.30539	5.43429
23.47680	-8.30539	5.43429
23.48086	-8.30539	5.43429
23.48491	-8.30539	5.43429
23.48897	-8.28341	5.43429
23.49303	-8.30539	5.43429
23.49709	-8.28341	5.43429
23.50114	-8.28341	5.43429
23.50520	-8.28341	5.43429
23.50926	-8.28341	5.43429
23.51331	-8.28341	5.43429
23.51737	-8.30539	5.43429
23.52143	-8.28341	5.43429
23.52548	-8.28341	5.43429
23.52954	-8.28341	5.43429
23.53360	-8.28341	5.43429
23.53766	-8.28341	5.43429
23.54195	-8.28341	5.43429
23.54601	-8.28341	5.43429
23.55007	-8.26144	5.43429
23.55412	-8.26144	5.43429
23.55818	-8.28341	5.43429
23.56224	-8.28341	5.43429
23.56629	-8.26144	5.43429
23.57036	-8.26144	5.43429
23.57442	-8.26144	5.43429
23.57847	-8.26144	5.43429
23.58253	-8.26144	5.43429
23.58659	-8.26144	5.43429
23.59064	-8.26144	5.43429
23.59470	-8.26144	5.43429
23.59876	-8.26144	5.43429
23.60282	-8.26144	5.43429
23.60687	-8.26144	5.43429
23.61093	-8.23947	5.43429
23.61499	-8.23947	5.43429
23.61905	-8.23947	5.43429
23.62310	-8.23947	5.43429
23.62716	-8.23947	5.43429
23.63122	-8.23947	5.43429
23.63527	-8.23947	5.43429
23.63933	-8.23947	5.43429
23.64362	-8.23947	5.43429
23.64768	-8.21750	5.43429
23.65174	-8.23947	5.43429
23.65577	-8.23947	5.43429
23.65982	-8.23947	5.43429
23.66388	-8.21750	5.43429
23.66794	-8.21750	5.43429
23.67200	-8.23947	5.43429
23.67606	-8.21750	5.43429
23.68012	-8.21750	5.43429
23.68417	-8.21750	5.43429
23.68823	-8.21750	5.43429
23.69229	-8.21750	5.43429
23.69634	-8.21750	5.43429
23.70040	-8.21750	5.43429
23.70446	-8.21750	5.43429
23.70852	-8.21750	5.43429
23.71257	-8.21750	5.43429
23.71663	-8.21750	5.43429
23.72069	-8.21750	5.43429
23.72474	-8.21750	5.43429
23.72880	-8.21750	5.43429
23.73286	-8.21750	5.43429
23.73691	-8.19552	5.43429
23.74097	-8.19552	5.43429
23.74526	-8.21750	5.43429
23.74931	-8.19552	5.43429
23.75337	-8.21750	5.43429
23.75743	-8.19552	5.43429
23.76148	-8.19552	5.43429
23.76554	-8.19552	5.43429
23.76960	-8.19552	5.43429
23.77366	-8.19552	5.43429
23.77772	-8.19552	5.43429
23.78178	-8.19552	5.43429
23.78583	-8.19552	5.43429
23.78989	-8.19552	5.43429
23.79395	-8.19552	5.43429
23.79801	-8.19552	5.43429
23.80206	-8.19552	5.43429
23.80612	-8.19552	5.43429
23.81018	-8.19552	5.43429
23.81423	-8.19552	5.43429
23.81829	-8.19552	5.43429
23.82235	-8.19552	5.43429
23.82641	-8.19552	5.43429
23.83046	-8.17355	5.43429
23.83452	-8.19552	5.43429
23.83858	-8.17355	5.43429
23.84263	-8.17355	5.43429
23.84693	-8.17355	5.43429
23.85099	-8.19552	5.43429
23.85504	-8.19552	5.43429
23.85910	-8.17355	5.43429
23.86316	-8.17355	5.43429
23.86721	-8.17355	5.43429
23.87127	-8.17355	5.43429
23.87533	-8.17355	5.43429
23.87939	-8.17355	5.43429
23.88345	-8.17355	5.43429
23.88751	-8.17355	5.43429
23.89156	-8.17355	5.43429
23.89562	-8.17355	5.43429
23.89968	-8.17355	5.43429
23.90374	-8.17355	5.43429
23.90777	-8.17355	5.43429
23.91182	-8.15158	5.43429
23.91588	-8.15158	5.43429
23.91994	-8.15158	5.43429
23.92399	-8.15158	5.43429
23.92805	-8.15158	5.43429
23.93211	-8.15158	5.43429
23.93616	-8.15158	5.43429
23.94022	-8.15158	5.43429
23.94428	-8.15158	5.43429
23.94857	-8.15158	5.43429
23.95262	-8.15158	5.43429
23.95668	-8.15158	5.43429
23.96074	-8.12961	5.43429
23.96480	-8.15158	5.43429
23.96885	-8.12961	5.43429
23.97291	-8.12961	5.43429
23.97697	-8.12961	5.43429
23.98103	-8.12961	5.43429
23.98509	-8.12961	5.43429
23.98915	-8.12961	5.43429
23.99320	-8.12961	5.43429
23.99726	-8.12961	5.43429
24.00132	-8.12961	5.43429
24.00537	-8.12961	5.43429
24.00943	-8.10763	5.43429
24.01349	-8.10763	5.43429
24.01755	-8.10763	5.43429
24.02160	-8.10763	5.43429
24.02566	-8.10763	5.43429
24.02972	-8.10763	5.43429
24.03377	-8.10763	5.43429
24.03783	-8.10763	5.43429
24.04189	-8.10763	5.43429
24.04594	-8.08566	5.43429
24.05023	-8.08566	5.43429
24.05429	-8.08566	5.43429
24.05835	-8.08566	5.43429
24.06241	-8.08566	5.43429
24.06646	-8.08566	5.43429
24.07052	-8.08566	5.43429
24.07458	-8.06369	5.43429
24.07864	-8.06369	5.43429
24.08270	-8.06369	5.43429
24.08676	-8.06369	5.43429
24.09081	-8.04172	5.43429
24.09487	-8.04172	5.43429
24.09893	-8.04172	5.43429
24.10298	-8.06369	5.43429
24.10704	-8.04172	5.43429
24.11110	-8.04172	5.43429
24.11516	-8.04172	5.43429
24.11921	-8.04172	5.43429
24.12327	-8.04172	5.43429
24.12733	-8.04172	5.43429
24.13138	-8.04172	5.43429
24.13544	-8.01974	5.43429
24.13950	-8.01974	5.43429
24.14356	-8.01974	5.43429
24.14761	-8.01974	5.43429
24.15191	-8.01974	5.43429
24.15596	-8.01974	5.43429
24.16002	-7.99777	5.43429
24.16408	-7.99777	5.43429
24.16814	-7.99777	5.43429
24.17219	-7.99777	5.43429
24.17625	-7.99777	5.43429
24.18031	-7.97580	5.43429
24.18437	-7.97580	5.43429
24.18843	-7.97580	5.43429
24.19248	-7.97580	5.43429
24.19654	-7.97580	5.43429
24.20060	-7.97580	5.43429
24.20466	-7.97580	5.43429
24.20871	-7.97580	5.43429
24.21277	-7.97580	5.43429
24.21683	-7.97580	5.43429
24.22088	-7.95382	5.43429
24.22494	-7.95382	5.43429
24.22900	-7.95382	5.43429
24.23305	-7.95382	5.43429
24.23711	-7.95382	5.43429
24.24117	-7.95382	5.43429
24.24523	-7.95382	5.43429
24.24929	-7.93185	5.43429
24.25357	-7.93185	5.43429
24.25763	-7.93185	5.43429
24.26169	-7.93185	5.43429
24.26574	-7.93185	5.43429
24.26980	-7.93185	5.43429
24.27386	-7.93185	5.43429
24.27792	-7.93185	5.43429
24.28198	-7.93185	5.43429
24.28604	-7.93185	5.43429
24.29010	-7.90988	5.43429
24.29415	-7.90988	5.43429
24.29821	-7.90988	5.43429
24.30227	-7.90988	5.43429
24.30633	-7.90988	5.43429
24.31038	-7.90988	5.43429
24.31444	-7.90988	5.43429
24.31850	-7.90988	5.43429
24.32255	-7.90988	5.43429
24.32661	-7.90988	5.43429
24.33067	-7.88791	5.43429
24.33472	-7.90988	5.43429
24.33878	-7.88791	5.43429
24.34284	-7.88791	5.43429
24.34690	-7.88791	5.43429
24.35096	-7.88791	5.43429
24.35525	-7.88791	5.43429
24.35930	-7.88791	5.43429
24.36336	-7.88791	5.43429
24.36742	-7.88791	5.43429
24.37148	-7.88791	5.43429
24.37553	-7.88791	5.43429
24.37959	-7.88791	5.43429
24.38366	-7.88791	5.43429
24.38772	-7.88791	5.43429
24.39177	-7.86593	5.43429
24.39582	-7.88791	5.43429
24.39988	-7.86593	5.43429
24.40394	-7.88791	5.43429
24.40799	-7.88791	5.43429
24.41205	-7.86593	5.43429
24.41611	-7.86593	5.43429
24.42017	-7.88791	5.43429
24.42422	-7.86593	5.43429
24.42828	-7.86593	5.43429
24.43234	-7.86593	5.43429
24.43639	-7.86593	5.43429
24.44045	-7.86593	5.43429
24.44451	-7.86593	5.43429
24.44857	-7.86593	5.43429
24.45262	-7.84396	5.43429
24.45691	-7.86593	5.43429
24.46096	-7.84396	5.43429
24.46502	-7.84396	5.43429
24.46908	-7.84396	5.43429
24.47314	-7.84396	5.43429
24.47719	-7.84396	5.43429
24.48125	-7.84396	5.43429
24.48531	-7.84396	5.43429
24.48937	-7.84396	5.43429
24.49343	-7.84396	5.43429
24.49749	-7.84396	5.43429
24.50154	-7.84396	5.43429
24.50560	-7.82199	5.43429
24.50966	-7.84396	5.43429
24.51372	-7.84396	5.43429
24.51777	-7.84396	5.43429
24.52183	-7.84396	5.43429
24.52589	-7.82199	5.43429
24.52994	-7.82199	5.43429
24.53400	-7.82199	5.43429
24.53806	-7.82199	5.43429
24.54211	-7.82199	5.43429
24.54617	-7.82199	5.43429
24.55023	-7.82199	5.43429
24.55429	-7.82199	5.43429
24.55859	-7.82199	5.43429
24.56264	-7.82199	5.43429
24.56670	-7.82199	5.43429
24.57076	-7.82199	5.43429
24.57481	-7.82199	5.43429
24.57887	-7.82199	5.43429
24.58293	-7.82199	5.43429
24.58699	-7.80002	5.43429
24.59105	-7.82199	5.43429
24.59511	-7.82199	5.43429
24.59917	-7.82199	5.43429
24.60322	-7.82199	5.43429
24.60728	-7.82199	5.43429
24.61134	-7.82199	5.43429
24.61540	-7.82199	5.43429
24.61945	-7.82199	5.43429
24.62351	-7.82199	5.43429
24.62757	-7.80002	5.43429
24.63162	-7.82199	5.43429
24.63568	-7.80002	5.43429
24.63974	-7.80002	5.43429
24.64377	-7.80002	5.43429
24.64782	-7.80002	5.43429
24.65188	-7.80002	5.43429
24.65594	-7.80002	5.43429
24.66022	-7.80002	5.43429
24.66428	-7.80002	5.43429
24.66833	-7.80002	5.43429
24.67239	-7.80002	5.43429
24.67645	-7.80002	5.43429
24.68051	-7.80002	5.43429
24.68456	-7.80002	5.43429
24.68862	-7.82199	5.43429
24.69268	-7.82199	5.43429
24.69674	-7.80002	5.43429
24.70080	-7.82199	5.43429
24.70485	-7.82199	5.43429
24.70891	-7.80002	5.43429
24.71297	-7.82199	5.43429
24.71702	-7.80002	5.43429
24.72108	-7.80002	5.43429
24.72514	-7.80002	5.43429
24.72919	-7.82199	5.43429
24.73325	-7.82199	5.43429
24.73731	-7.82199	5.43429
24.74137	-7.82199	5.43429
24.74542	-7.82199	5.43429
24.74948	-7.82199	5.43429
24.75354	-7.82199	5.43429
24.75760	-7.82199	5.43429
24.76189	-7.82199	5.43429
24.76595	-7.82199	5.43429
24.77000	-7.82199	5.43429
24.77406	-7.82199	5.43429
24.77812	-7.82199	5.43429
24.78217	-7.82199	5.43429
24.78623	-7.82199	5.43429
24.79029	-7.82199	5.43429
24.79435	-7.82199	5.43429
24.79841	-7.82199	5.43429
24.80247	-7.82199	5.43429
24.80653	-7.82199	5.43429
24.81059	-7.84396	5.43429
24.81464	-7.84396	5.43429
24.81870	-7.84396	5.43429
24.82276	-7.82199	5.43429
24.82682	-7.82199	5.43429
24.83087	-7.84396	5.43429
24.83493	-7.84396	5.43429
24.83899	-7.84396	5.43429
24.84304	-7.84396	5.43429
24.84710	-7.84396	5.43429
24.85116	-7.86593	5.43429
24.85522	-7.86593	5.43429
24.85928	-7.86593	5.43429
24.86356	-7.86593	5.43429
24.86762	-7.86593	5.43429
24.87167	-7.86593	5.43429
24.87573	-7.86593	5.43429
24.87977	-7.86593	5.43429
24.88383	-7.86593	5.43429
24.88788	-7.88791	5.43429
24.89195	-7.88791	5.43429
24.89601	-7.88791	5.43429
24.90006	-7.88791	5.43429
24.90412	-7.88791	5.43429
24.90818	-7.88791	5.43429
24.91224	-7.88791	5.43429
24.91629	-7.90988	5.43429
24.92035	-7.90988	5.43429
24.92441	-7.90988	5.43429
24.92846	-7.90988	5.43429
24.93252	-7.90988	5.43429
24.93658	-7.93185	5.43429
24.94064	-7.93185	5.43429
24.94469	-7.93185	5.43429
24.94875	-7.93185	5.43429
24.95281	-7.93185	5.43429
24.95686	-7.93185	5.43429
24.96092	-7.93185	5.43429
24.96521	-7.95382	5.43429
24.96926	-7.95382	5.43429
24.97332	-7.95382	5.43429
24.97738	-7.97580	5.43429
24.98144	-7.97580	5.43429
24.98549	-7.97580	5.43429
24.98955	-7.97580	5.43429
24.99361	-7.97580	5.43429
24.99767	-7.99777	5.43429
25.00173	-7.99777	5.43429
25.00579	-7.99777	5.43429
25.00984	-8.01974	5.43429
25.01390	-7.99777	5.43429
25.01796	-8.01974	5.43429
25.02201	-8.01974	5.43429
25.02607	-8.01974	5.43429
25.03013	-8.01974	5.43429
25.03419	-8.04172	5.43429
25.03824	-8.04172	5.43429
25.04230	-8.04172	5.43429
25.04636	-8.06369	5.43429
25.05041	-8.06369	5.43429
25.05447	-8.06369	5.43429
25.05853	-8.06369	5.43429
25.06259	-8.08566	5.43429
25.06688	-8.08566	5.43429
25.07094	-8.08566	5.43429
25.07500	-8.08566	5.43429
25.07906	-8.10763	5.43429
25.08311	-8.10763	5.43429
25.08717	-8.10763	5.43429
25.09123	-8.12961	5.43429
25.09529	-8.12961	5.43429
25.09935	-8.12961	5.43429
25.10341	-8.12961	5.43429
25.10747	-8.15158	5.43429
25.11153	-8.15158	5.43429
25.11558	-8.15158	5.43429
25.11964	-8.15158	5.43429
25.12370	-8.15158	5.43429
25.12776	-8.17355	5.43429
25.13177	-8.19552	5.43429
25.13583	-8.19552	5.43429
25.13988	-8.17355	5.43429
25.14394	-8.19552	5.43429
25.14800	-8.19552	5.43429
25.15206	-8.21750	5.43429
25.15611	-8.21750	5.43429
25.16017	-8.21750	5.43429
25.16423	-8.21750	5.43429
25.16851	-8.23947	5.43429
25.17257	-8.23947	5.43429
25.17663	-8.23947	5.43429
25.18069	-8.23947	5.43429
25.18474	-8.26144	5.43429
25.18880	-8.26144	5.43429
25.19286	-8.26144	5.43429
25.19692	-8.28341	5.43429
25.20098	-8.28341	5.43429
25.20504	-8.28341	5.43429
25.20910	-8.30539	5.43429
25.21315	-8.30539	5.43429
25.21721	-8.32736	5.43429
25.22127	-8.32736	5.43429
25.22533	-8.32736	5.43429
25.22938	-8.34933	5.43429
25.23344	-8.32736	5.43429
25.23750	-8.32736	5.43429
25.24155	-8.34933	5.43429
25.24561	-8.34933	5.43429
25.24967	-8.37131	5.43429
25.25373	-8.37131	5.43429
25.25779	-8.37131	5.43429
25.26185	-8.37131	5.43429
25.26592	-8.39328	5.43429
25.27020	-8.39328	5.43429
25.27426	-8.39328	5.43429
25.27832	-8.41525	5.43429
25.28237	-8.41525	5.43429
25.28643	-8.41525	5.43429
25.29049	-8.41525	5.43429
25.29455	-8.41525	5.43429
25.29862	-8.43722	5.43429
25.30268	-8.43722	5.43429
25.30674	-8.43722	5.43429
25.31079	-8.43722	5.43429
25.31485	-8.43722	5.43429
25.31891	-8.45920	5.43429
25.32296	-8.45920	5.43429
25.32702	-8.45920	5.43429
25.33108	-8.45920	5.43429
25.33514	-8.48117	5.43429
25.33919	-8.48117	5.43429
25.34325	-8.48117	5.43429
25.34731	-8.48117	5.43429
25.35136	-8.48117	5.43429
25.35542	-8.48117	5.43429
25.35948	-8.50314	5.43429
25.36354	-8.50314	5.43429
25.36761	-8.50314	5.43429
25.37191	-8.50314	5.43429
25.37597	-8.50314	5.43429
25.38002	-8.50314	5.43429
25.38408	-8.50314	5.43429
25.38814	-8.52511	5.43429
25.39220	-8.52511	5.43429
25.39625	-8.52511	5.43429
25.40032	-8.52511	5.43429
25.40437	-8.52511	5.43429
25.40843	-8.52511	5.43429
25.41249	-8.52511	5.43429
25.41655	-8.54709	5.43429
25.42060	-8.52511	5.43429
25.42466	-8.54709	5.43429
25.42872	-8.54709	5.43429
25.43277	-8.54709	5.43429
25.43683	-8.54709	5.43429
25.44089	-8.54709	5.43429
25.44494	-8.54709	5.43429
25.44900	-8.54709	5.43429
25.45306	-8.54709	5.43429
25.45712	-8.54709	5.43429
25.46117	-8.54709	5.43429
25.46523	-8.54709	5.43429
25.46929	-8.54709	5.43429
25.47358	-8.54709	5.43429
25.47764	-8.54709	5.43429
25.48169	-8.54709	5.43429
25.48575	-8.54709	5.43429
25.48981	-8.54709	5.43429
25.49387	-8.54709	5.43429
25.49792	-8.54709	5.43429
25.50199	-8.54709	5.43429
25.50604	-8.54709	5.43429
25.51010	-8.54709	5.43429
25.51416	-8.54709	5.43429
25.51822	-8.54709	5.43429
25.52227	-8.54709	5.43429
25.52633	-8.54709	5.43429
25.53039	-8.54709	5.43429
25.53444	-8.54709	5.43429
25.53850	-8.54709	5.43429
25.54256	-8.54709	5.43429
25.54662	-8.54709	5.43429
25.55067	-8.54709	5.43429
25.55473	-8.52511	5.43429
25.55879	-8.54709	5.43429
25.56284	-8.54709	5.43429
25.56690	-8.52511	5.43429
25.57096	-8.52511	5.43429
25.57524	-8.52511	5.43429
25.57930	-8.52511	5.43429
25.58336	-8.52511	5.43429
25.58742	-8.52511	5.43429
25.59147	-8.52511	5.43429
25.59553	-8.52511	5.43429
25.59959	-8.50314	5.43429
25.60365	-8.50314	5.43429
25.60771	-8.50314	5.43429
25.61177	-8.50314	5.43429
25.61582	-8.50314	5.43429
25.61988	-8.48117	5.43429
25.62394	-8.48117	5.43429
25.62799	-8.48117	5.43429
25.63205	-8.48117	5.43429
25.63611	-8.48117	5.43429
25.64017	-8.45920	5.43429
25.64422	-8.45920	5.43429
25.64828	-8.45920	5.43429
25.65234	-8.45920	5.43429
25.65639	-8.45920	5.43429
25.66045	-8.43722	5.43429
25.66451	-8.43722	5.43429
25.66857	-8.43722	5.43429
25.67263	-8.43722	5.43429
25.67691	-8.41525	5.43429
25.68097	-8.41525	5.43429
25.68503	-8.41525	5.43429
25.68908	-8.41525	5.43429
25.69314	-8.41525	5.43429
25.69720	-8.39328	5.43429
25.70126	-8.39328	5.43429
25.70532	-8.39328	5.43429
25.70938	-8.37131	5.43429
25.71343	-8.37131	5.43429
25.71749	-8.37131	5.43429
25.72155	-8.37131	5.43429
25.72561	-8.34933	5.43429
25.72966	-8.32736	5.43429
25.73372	-8.32736	5.43429
25.73778	-8.32736	5.43429
25.74183	-8.32736	5.43429
25.74589	-8.32736	5.43429
25.74995	-8.30539	5.43429
25.75400	-8.30539	5.43429
25.75806	-8.30539	5.43429
25.76212	-8.28341	5.43429
25.76618	-8.28341	5.43429
25.77024	-8.26144	5.43429
25.77429	-8.26144	5.43429
25.77858	-8.26144	5.43429
25.78264	-8.26144	5.43429
25.78670	-8.23947	5.43429
25.79075	-8.23947	5.43429
25.79481	-8.21750	5.43429
25.79887	-8.21750	5.43429
25.80292	-8.21750	5.43429
25.80699	-8.21750	5.43429
25.81104	-8.19552	5.43429
25.81510	-8.19552	5.43429
25.81916	-8.19552	5.43429
25.82322	-8.17355	5.43429
25.82727	-8.17355	5.43429
25.83133	-8.15158	5.43429
25.83539	-8.12961	5.43429
25.83945	-8.12961	5.43429
25.84350	-8.12961	5.43429
25.84756	-8.12961	5.43429
25.85162	-8.10763	5.43429
25.85567	-8.10763	5.43429
25.85973	-8.10763	5.43429
25.86377	-8.10763	5.43429
25.86782	-8.08566	5.43429
25.87188	-8.08566	5.43429
25.87594	-8.06369	5.43429
25.88022	-8.06369	5.43429
25.88428	-8.06369	5.43429
25.88834	-8.04172	5.43429
25.89240	-8.04172	5.43429
25.89645	-8.01974	5.43429
25.90051	-8.01974	5.43429
25.90457	-7.99777	5.43429
25.90863	-7.99777	5.43429
25.91269	-7.99777	5.43429
25.91675	-7.99777	5.43429
25.92080	-7.97580	5.43429
25.92486	-7.95382	5.43429
25.92892	-7.95382	5.43429
25.93297	-7.95382	5.43429
25.93703	-7.95382	5.43429
25.94109	-7.93185	5.43429
25.94514	-7.93185	5.43429
25.94920	-7.93185	5.43429
25.95326	-7.90988	5.43429
25.95732	-7.90988	5.43429
25.96137	-7.90988	5.43429
25.96543	-7.88791	5.43429
25.96949	-7.88791	5.43429
25.97354	-7.86593	5.43429
25.97760	-7.86593	5.43429
25.98188	-7.86593	5.43429
25.98594	-7.84396	5.43429
25.98999	-7.84396	5.43429
25.99405	-7.84396	5.43429
25.99811	-7.84396	5.43429
26.00217	-7.82199	5.43429
26.00622	-7.82199	5.43429
26.01029	-7.82199	5.43429
26.01434	-7.80002	5.43429
26.01840	-7.77804	5.43429
26.02246	-7.80002	5.43429
26.02652	-7.77804	5.43429
26.03057	-7.77804	5.43429
26.03463	-7.77804	5.43429
26.03869	-7.75607	5.43429
26.04274	-7.75607	5.43429
26.04680	-7.73410	5.43429
26.05086	-7.75607	5.43429
26.05492	-7.75607	5.43429
26.05897	-7.73410	5.43429
26.06303	-7.73410	5.43429
26.06709	-7.71213	5.43429
26.07115	-7.71213	5.43429
26.07521	-7.71213	5.43429
26.07927	-7.71213	5.43429
26.08355	-7.69015	5.43429
26.08761	-7.71213	5.43429
26.09167	-7.69015	5.43429
26.09573	-7.66818	5.43429
26.09977	-7.66818	5.43429
26.10383	-7.66818	5.43429
26.10789	-7.66818	5.43429
26.11195	-7.66818	5.43429
26.11601	-7.66818	5.43429
26.12006	-7.66818	5.43429
26.12412	-7.64621	5.43429
26.12818	-7.64621	5.43429
26.13224	-7.62423	5.43429
26.13629	-7.64621	5.43429
26.14035	-7.64621	5.43429
26.14441	-7.62423	5.43429
26.14846	-7.62423	5.43429
26.15252	-7.62423	5.43429
26.15658	-7.62423	5.43429
26.16063	-7.62423	5.43429
26.16469	-7.62423	5.43429
26.16875	-7.60226	5.43429
26.17281	-7.60226	5.43429
26.17687	-7.60226	5.43429
26.18092	-7.60226	5.43429
26.18521	-7.60226	5.43429
26.18927	-7.58029	5.43429
26.19332	-7.58029	5.43429
26.19738	-7.58029	5.43429
26.20144	-7.58029	5.43429
26.20549	-7.58029	5.43429
26.20955	-7.58029	5.43429
26.21362	-7.55832	5.43429
26.21767	-7.55832	5.43429
26.22173	-7.55832	5.43429
26.22579	-7.55832	5.43429
26.22985	-7.55832	5.43429
26.23390	-7.55832	5.43429
26.23796	-7.55832	5.43429
26.24202	-7.53634	5.43429
26.24607	-7.53634	5.43429
26.25013	-7.55832	5.43429
26.25419	-7.53634	5.43429
26.25825	-7.53634	5.43429
26.26230	-7.53634	5.43429
26.26636	-7.53634	5.43429
26.27042	-7.53634	5.43429
26.27448	-7.53634	5.43429
26.27854	-7.53634	5.43429
26.28260	-7.53634	5.43429
26.28689	-7.53634	5.43429
26.29095	-7.53634	5.43429
26.29500	-7.53634	5.43429
26.29906	-7.53634	5.43429
26.30312	-7.53634	5.43429
26.30718	-7.53634	5.43429
26.31123	-7.53634	5.43429
26.31530	-7.53634	5.43429
26.31936	-7.53634	5.43429
26.32342	-7.53634	5.43429
26.32747	-7.53634	5.43429
26.33153	-7.53634	5.43429
26.33559	-7.53634	5.43429
26.33965	-7.53634	5.43429
26.34370	-7.53634	5.43429
26.34776	-7.53634	5.43429
26.35182	-7.53634	5.43429
26.35588	-7.53634	5.43429
26.35993	-7.55832	5.43429
26.36399	-7.53634	5.43429
26.36805	-7.55832	5.43429
26.37211	-7.55832	5.43429
26.37616	-7.55832	5.43429
26.38022	-7.55832	5.43429
26.38428	-7.55832	5.43429
26.38857	-7.55832	5.43429
26.39262	-7.55832	5.43429
26.39668	-7.55832	5.43429
26.40074	-7.55832	5.43429
26.40480	-7.55832	5.43429
26.40885	-7.58029	5.43429
26.41291	-7.55832	5.43429
26.41697	-7.58029	5.43429
26.42103	-7.58029	5.43429
26.42509	-7.58029	5.43429
26.42915	-7.58029	5.43429
26.43320	-7.58029	5.43429
26.43726	-7.58029	5.43429
26.44132	-7.58029	5.43429
26.44537	-7.60226	5.43429
26.44943	-7.60226	5.43429
26.45349	-7.60226	5.43429
26.45755	-7.60226	5.43429
26.46160	-7.60226	5.43429
26.46566	-7.60226	5.43429
26.46972	-7.62423	5.43429
26.47377	-7.62423	5.43429
26.47783	-7.62423	5.43429
26.48190	-7.62423	5.43429
26.48595	-7.62423	5.43429
26.49024	-7.62423	5.43429
26.49430	-7.64621	5.43429
26.49836	-7.64621	5.43429
26.50241	-7.64621	5.43429
26.50647	-7.64621	5.43429
26.51053	-7.64621	5.43429
26.51459	-7.64621	5.43429
26.51866	-7.66818	5.43429
26.52272	-7.66818	5.43429
26.52677	-7.66818	5.43429
26.53083	-7.66818	5.43429
26.53489	-7.66818	5.43429
26.53894	-7.69015	5.43429
26.54300	-7.69015	5.43429
26.54706	-7.69015	5.43429
26.55112	-7.69015	5.43429
26.55517	-7.71213	5.43429
26.55923	-7.71213	5.43429
26.56329	-7.71213	5.43429
26.56734	-7.71213	5.43429
26.57140	-7.71213	5.43429
26.57547	-7.71213	5.43429
26.57953	-7.71213	5.43429
26.58359	-7.73410	5.43429
26.58765	-7.73410	5.43429
26.59194	-7.73410	5.43429
26.59600	-7.73410	5.43429
26.60006	-7.73410	5.43429
26.60411	-7.73410	5.43429
26.60817	-7.75607	5.43429
26.61223	-7.75607	5.43429
26.61629	-7.77804	5.43429
26.62035	-7.75607	5.43429
26.62441	-7.77804	5.43429
26.62847	-7.75607	5.43429
26.63252	-7.77804	5.43429
26.63658	-7.77804	5.43429
26.64064	-7.77804	5.43429
26.64470	-7.77804	5.43429
26.64876	-7.77804	5.43429
26.65281	-7.80002	5.43429
26.65687	-7.80002	5.43429
26.66093	-7.80002	5.43429
26.66498	-7.80002	5.43429
26.66904	-7.80002	5.43429
26.67310	-7.80002	5.43429
26.67716	-7.80002	5.43429
26.68121	-7.80002	5.43429
26.68527	-7.82199	5.43429
26.68933	-7.82199	5.43429
26.69361	-7.82199	5.43429
26.69767	-7.82199	5.43429
26.70173	-7.82199	5.43429
26.70578	-7.82199	5.43429
26.70984	-7.82199	5.43429
26.71390	-7.84396	5.43429
26.71796	-7.84396	5.43429
26.72202	-7.84396	5.43429
26.72608	-7.84396	5.43429
26.73014	-7.84396	5.43429
26.73420	-7.84396	5.43429
26.73825	-7.84396	5.43429
26.74231	-7.84396	5.43429
26.74637	-7.84396	5.43429
26.75042	-7.86593	5.43429
26.75448	-7.84396	5.43429
26.75854	-7.86593	5.43429
26.76260	-7.86593	5.43429
26.76665	-7.86593	5.43429
26.77071	-7.86593	5.43429
26.77477	-7.86593	5.43429
26.77882	-7.86593	5.43429
26.78288	-7.86593	5.43429
26.78695	-7.86593	5.43429
26.79101	-7.86593	5.43429
26.79529	-7.86593	5.43429
26.79935	-7.88791	5.43429
26.80341	-7.86593	5.43429
26.80747	-7.86593	5.43429
26.81152	-7.88791	5.43429
26.81558	-7.88791	5.43429
26.81964	-7.88791	5.43429
26.82370	-7.88791	5.43429
26.82777	-7.88791	5.43429
26.83183	-7.88791	5.43429
26.83588	-7.88791	5.43429
26.83994	-7.88791	5.43429
26.84400	-7.88791	5.43429
26.84805	-7.88791	5.43429
26.85211	-7.88791	5.43429
26.85617	-7.88791	5.43429
26.86022	-7.88791	5.43429
26.86428	-7.88791	5.43429
26.86834	-7.88791	5.43429
26.87240	-7.88791	5.43429
26.87645	-7.88791	5.43429
26.88051	-7.88791	5.43429
26.88457	-7.88791	5.43429
26.88862	-7.88791	5.43429
26.89268	-7.88791	5.43429
26.89697	-7.88791	5.43429
26.90102	-7.88791	5.43429
26.90508	-7.90988	5.43429
26.90914	-7.90988	5.43429
26.91320	-7.90988	5.43429
26.91725	-7.90988	5.43429
26.92131	-7.90988	5.43429
26.92537	-7.90988	5.43429
26.92943	-7.90988	5.43429
26.93349	-7.90988	5.43429
26.93755	-7.90988	5.43429
26.94160	-7.90988	5.43429
26.94566	-7.90988	5.43429
26.94972	-7.93185	5.43429
26.95377	-7.93185	5.43429
26.95783	-7.93185	5.43429
26.96189	-7.93185	5.43429
26.96595	-7.90988	5.43429
26.97000	-7.93185	5.43429
26.97406	-7.93185	5.43429
26.97812	-7.93185	5.43429
26.98217	-7.93185	5.43429
26.98623	-7.93185	5.43429
26.99029	-7.93185	5.43429
26.99434	-7.95382	5.43429
26.99863	-7.95382	5.43429
27.00269	-7.95382	5.43429
27.00674	-7.93185	5.43429
27.01080	-7.93185	5.43429
27.01486	-7.93185	5.43429
27.01891	-7.93185	5.43429
27.02297	-7.95382	5.43429
27.02703	-7.93185	5.43429
27.03109	-7.95382	5.43429
27.03515	-7.95382	5.43429
27.03921	-7.95382	5.43429
27.04327	-7.95382	5.43429
27.04732	-7.95382	5.43429
27.05138	-7.95382	5.43429
27.05544	-7.97580	5.43429
27.05949	-7.97580	5.43429
27.06355	-7.97580	5.43429
27.06761	-7.95382	5.43429
27.07167	-7.97580	5.43429
27.07572	-7.97580	5.43429
27.07977	-7.97580	5.43429
27.08382	-7.97580	5.43429
27.08788	-7.97580	5.43429
27.09194	-7.97580	5.43429
27.09599	-7.97580	5.43429
27.10028	-7.97580	5.43429
27.10434	-7.97580	5.43429
27.10839	-7.99777	5.43429
27.11245	-7.99777	5.43429
27.11651	-7.99777	5.43429
27.12056	-7.99777	5.43429
27.12462	-7.99777	5.43429
27.12868	-7.99777	5.43429
27.13274	-7.99777	5.43429
27.13680	-7.99777	5.43429
27.14086	-7.99777	5.43429
27.14491	-7.99777	5.43429
27.14897	-7.99777	5.43429
27.15303	-7.99777	5.43429
27.15708	-7.99777	5.43429
27.16114	-8.01974	5.43429
27.16520	-8.01974	5.43429
27.16925	-8.01974	5.43429
27.17331	-8.01974	5.43429
27.17737	-8.01974	5.43429
27.18142	-8.01974	5.43429
27.18548	-8.01974	5.43429
27.18954	-8.01974	5.43429
27.19360	-8.01974	5.43429
27.19766	-8.01974	5.43429
27.20194	-8.04172	5.43429
27.20600	-8.04172	5.43429
27.21006	-8.04172	5.43429
27.21411	-8.04172	5.43429
27.21817	-8.04172	5.43429
27.22223	-8.04172	5.43429
27.22629	-8.04172	5.43429
27.23036	-8.04172	5.43429
27.23442	-8.04172	5.43429
27.23848	-8.06369	5.43429
27.24253	-8.04172	5.43429
27.24659	-8.04172	5.43429
27.25065	-8.04172	5.43429
27.25470	-8.04172	5.43429
27.25876	-8.04172	5.43429
27.26282	-8.06369	5.43429
27.26688	-8.06369	5.43429
27.27093	-8.06369	5.43429
27.27499	-8.06369	5.43429
27.27905	-8.06369	5.43429
27.28311	-8.06369	5.43429
27.28717	-8.06369	5.43429
27.29123	-8.06369	5.43429
27.29529	-8.06369	5.43429
27.29935	-8.08566	5.43429
27.30362	-8.08566	5.43429
27.30768	-8.06369	5.43429
27.31174	-8.08566	5.43429
27.31577	-8.08566	5.43429
27.31983	-8.08566	5.43429
27.32388	-8.08566	5.43429
27.32794	-8.08566	5.43429
27.33201	-8.08566	5.43429
27.33607	-8.08566	5.43429
27.34013	-8.08566	5.43429
27.34418	-8.08566	5.43429
27.34824	-8.08566	5.43429
27.35230	-8.08566	5.43429
27.35635	-8.08566	5.43429
27.36041	-8.08566	5.43429
27.36447	-8.08566	5.43429
27.36852	-8.08566	5.43429
27.37258	-8.08566	5.43429
27.37664	-8.10763	5.43429
27.38070	-8.10763	5.43429
27.38475	-8.08566	5.43429
27.38881	-8.10763	5.43429
27.39287	-8.10763	5.43429
27.39692	-8.10763	5.43429
27.40098	-8.10763	5.43429
27.40527	-8.10763	5.43429
27.40933	-8.10763	5.43429
27.41338	-8.10763	5.43429
27.41744	-8.10763	5.43429
27.42150	-8.10763	5.43429
27.42555	-8.10763	5.43429
27.42961	-8.10763	5.43429
27.43368	-8.10763	5.43429
27.43773	-8.10763	5.43429
27.44179	-8.10763	5.43429
27.44585	-8.10763	5.43429
27.44990	-8.10763	5.43429
27.45396	-8.10763	5.43429
27.45802	-8.12961	5.43429
27.46208	-8.12961	5.43429
27.46613	-8.12961	5.43429
27.47019	-8.12961	5.43429
27.47425	-8.12961	5.43429
27.47830	-8.12961	5.43429
27.48236	-8.12961	5.43429
27.48642	-8.12961	5.43429
27.49048	-8.12961	5.43429
27.49453	-8.12961	5.43429
27.49859	-8.12961	5.43429
27.50265	-8.12961	5.43429
27.50694	-8.12961	5.43429
27.51100	-8.15158	5.43429
27.51506	-8.15158	5.43429
27.51912	-8.12961	5.43429
27.52318	-8.15158	5.43429
27.52723	-8.15158	5.43429
27.53129	-8.15158	5.43429
27.53535	-8.12961	5.43429
27.53941	-8.15158	5.43429
27.54347	-8.12961	5.43429
27.54753	-8.15158	5.43429
27.55158	-8.15158	5.43429
27.55564	-8.15158	5.43429
27.55970	-8.15158	5.43429
27.56376	-8.15158	5.43429
27.56781	-8.15158	5.43429
27.57187	-8.15158	5.43429
27.57593	-8.15158	5.43429
27.57998	-8.15158	5.43429
27.58404	-8.15158	5.43429
27.58810	-8.15158	5.43429
27.59215	-8.15158	5.43429
27.59621	-8.15158	5.43429
27.60027	-8.15158	5.43429
27.60433	-8.15158	5.43429
27.60863	-8.15158	5.43429
27.61268	-8.15158	5.43429
27.61674	-8.17355	5.43429
27.62080	-8.17355	5.43429
27.62486	-8.15158	5.43429
27.62891	-8.15158	5.43429
27.63297	-8.17355	5.43429
27.63703	-8.15158	5.43429
27.64109	-8.15158	5.43429
27.64515	-8.17355	5.43429
27.64920	-8.17355	5.43429
27.65327	-8.15158	5.43429
27.65733	-8.17355	5.43429
27.66138	-8.17355	5.43429
27.66544	-8.15158	5.43429
27.66950	-8.17355	5.43429
27.67356	-8.17355	5.43429
27.67761	-8.17355	5.43429
27.68167	-8.17355	5.43429
27.68573	-8.17355	5.43429
27.68978	-8.17355	5.43429
27.69385	-8.15158	5.43429
27.69790	-8.17355	5.43429
27.70196	-8.17355	5.43429
27.70602	-8.17355	5.43429
27.71030	-8.17355	5.43429
27.71436	-8.17355	5.43429
27.71842	-8.15158	5.43429
27.72247	-8.15158	5.43429
27.72653	-8.15158	5.43429
27.73059	-8.17355	5.43429
27.73465	-8.15158	5.43429
27.73874	-8.15158	5.43429
27.74280	-8.15158	5.43429
27.74686	-8.15158	5.43429
27.75092	-8.15158	5.43429
27.75498	-8.15158	5.43429
27.75904	-8.15158	5.43429
27.76310	-8.15158	5.43429
27.76715	-8.15158	5.43429
27.77121	-8.15158	5.43429
27.77527	-8.15158	5.43429
27.77933	-8.15158	5.43429
27.78338	-8.15158	5.43429
27.78744	-8.15158	5.43429
27.79150	-8.15158	5.43429
27.79557	-8.15158	5.43429
27.79962	-8.15158	5.43429
27.80368	-8.15158	5.43429
27.80774	-8.15158	5.43429
27.81200	-8.12961	5.43429
27.81606	-8.12961	5.43429
27.82012	-8.15158	5.43429
27.82418	-8.12961	5.43429
27.82823	-8.12961	5.43429
27.83229	-8.12961	5.43429
27.83635	-8.12961	5.43429
27.84043	-8.12961	5.43429
27.84449	-8.12961	5.43429
27.84855	-8.12961	5.43429
27.85261	-8.12961	5.43429
27.85667	-8.12961	5.43429
27.86073	-8.10763	5.43429
27.86478	-8.12961	5.43429
27.86884	-8.10763	5.43429
27.87290	-8.10763	5.43429
27.87696	-8.10763	5.43429
27.88101	-8.10763	5.43429
27.88507	-8.10763	5.43429
27.88913	-8.10763	5.43429
27.89318	-8.10763	5.43429
27.89724	-8.10763	5.43429
27.90130	-8.08566	5.43429
27.90536	-8.08566	5.43429
27.90942	-8.08566	5.43429
27.91370	-8.08566	5.43429
27.91776	-8.08566	5.43429
27.92182	-8.08566	5.43429
27.92587	-8.06369	5.43429
27.92993	-8.06369	5.43429
27.93399	-8.06369	5.43429
27.93805	-8.06369	5.43429
27.94213	-8.06369	5.43429
27.94619	-8.06369	5.43429
27.95025	-8.04172	5.43429
27.95431	-8.04172	5.43429
27.95837	-8.04172	5.43429
27.96242	-8.04172	5.43429
27.96648	-8.04172	5.43429
27.97054	-8.04172	5.43429
27.97460	-8.04172	5.43429
27.97865	-8.01974	5.43429
27.98271	-8.01974	5.43429
27.98677	-8.01974	5.43429
27.99082	-8.01974	5.43429
27.99488	-8.01974	5.43429
27.99895	-7.99777	5.43429
28.00301	-7.99777	5.43429
28.00706	-7.99777	5.43429
28.01112	-7.99777	5.43429
28.01541	-7.99777	5.43429
28.01946	-7.97580	5.43429
28.02352	-7.97580	5.43429
28.02758	-7.97580	5.43429
28.03164	-7.97580	5.43429
28.03569	-7.97580	5.43429
28.03975	-7.95382	5.43429
28.04381	-7.95382	5.43429
28.04787	-7.95382	5.43429
28.05193	-7.95382	5.43429
28.05599	-7.93185	5.43429
28.06004	-7.93185	5.43429
28.06410	-7.93185	5.43429
28.06816	-7.93185	5.43429
28.07222	-7.90988	5.43429
28.07627	-7.90988	5.43429
28.08033	-7.90988	5.43429
28.08439	-7.90988	5.43429
28.08845	-7.90988	5.43429
28.09250	-7.90988	5.43429
28.09656	-7.88791	5.43429
28.10063	-7.88791	5.43429
28.10468	-7.86593	5.43429
28.10874	-7.86593	5.43429
28.11280	-7.86593	5.43429
28.11710	-7.86593	5.43429
28.12116	-7.86593	5.43429
28.12522	-7.84396	5.43429
28.12928	-7.84396	5.43429
28.13333	-7.84396	5.43429
28.13739	-7.84396	5.43429
28.14145	-7.82199	5.43429
28.14551	-7.82199	5.43429
28.14957	-7.82199	5.43429
28.15363	-7.82199	5.43429
28.15769	-7.80002	5.43429
28.16174	-7.80002	5.43429
28.16580	-7.80002	5.43429
28.16986	-7.80002	5.43429
28.17392	-7.77804	5.43429
28.17797	-7.77804	5.43429
28.18203	-7.77804	5.43429
28.18609	-7.77804	5.43429
28.19015	-7.75607	5.43429
28.19421	-7.75607	5.43429
28.19826	-7.75607	5.43429
28.20232	-7.75607	5.43429
28.20638	-7.73410	5.43429
28.21044	-7.73410	5.43429
28.21450	-7.73410	5.43429
28.21880	-7.71213	5.43429
28.22286	-7.71213	5.43429
28.22691	-7.71213	5.43429
28.23097	-7.69015	5.43429
28.23503	-7.71213	5.43429
28.23909	-7.69015	5.43429
28.24314	-7.69015	5.43429
28.24721	-7.69015	5.43429
28.25127	-7.69015	5.43429
28.25533	-7.66818	5.43429
28.25938	-7.66818	5.43429
28.26344	-7.66818	5.43429
28.26750	-7.66818	5.43429
28.27155	-7.64621	5.43429
28.27561	-7.64621	5.43429
28.27967	-7.64621	5.43429
28.28374	-7.64621	5.43429
28.28777	-7.62423	5.43429
28.29183	-7.62423	5.43429
28.29589	-7.62423	5.43429
28.29994	-7.62423	5.43429
28.30400	-7.62423	5.43429
28.30806	-7.60226	5.43429
28.31212	-7.60226	5.43429
28.31617	-7.58029	5.43429
28.32047	-7.58029	5.43429
28.32453	-7.58029	5.43429
28.32858	-7.55832	5.43429
28.33264	-7.58029	5.43429
28.33670	-7.55832	5.43429
28.34076	-7.53634	5.43429
28.34482	-7.55832	5.43429
28.34884	-7.55832	5.43429
28.35290	-7.53634	5.43429
28.35696	-7.53634	5.43429
28.36102	-7.53634	5.43429
28.36508	-7.51437	5.43429
28.36913	-7.51437	5.43429
28.37319	-7.51437	5.43429
28.37725	-7.51437	5.43429
28.38131	-7.49240	5.43429
28.38536	-7.49240	5.43429
28.38942	-7.49240	5.43429
28.39348	-7.49240	5.43429
28.39754	-7.47043	5.43429
28.40159	-7.47043	5.43429
28.40565	-7.47043	5.43429
28.40971	-7.47043	5.43429
28.41377	-7.47043	5.43429
28.41782	-7.44845	5.43429
28.42212	-7.44845	5.43429
28.42618	-7.44845	5.43429
28.43024	-7.44845	5.43429
28.43429	-7.44845	5.43429
28.43835	-7.42648	5.43429
28.44241	-7.42648	5.43429
28.44647	-7.42648	5.43429
28.45053	-7.42648	5.43429
28.45459	-7.40451	5.43429
28.45865	-7.40451	5.43429
28.46271	-7.40451	5.43429
28.46676	-7.40451	5.43429
28.47082	-7.40451	5.43429
28.47488	-7.38254	5.43429
28.47893	-7.38254	5.43429
28.48299	-7.38254	5.43429
28.48705	-7.38254	5.43429
28.49111	-7.38254	5.43429
28.49516	-7.36056	5.43429
28.49922	-7.36056	5.43429
28.50328	-7.36056	5.43429
28.50734	-7.36056	5.43429
28.51139	-7.36056	5.43429
28.51545	-7.36056	5.43429
28.51951	-7.36056	5.43429
28.52382	-7.36056	5.43429
28.52788	-7.33859	5.43429
28.53193	-7.36056	5.43429
28.53599	-7.33859	5.43429
28.54005	-7.33859	5.43429
28.54410	-7.33859	5.43429
28.54816	-7.33859	5.43429
28.55223	-7.33859	5.43429
28.55628	-7.33859	5.43429
28.56034	-7.33859	5.43429
28.56440	-7.33859	5.43429
28.56846	-7.31662	5.43429
28.57251	-7.31662	5.43429
28.57657	-7.31662	5.43429
28.58063	-7.31662	5.43429
28.58468	-7.31662	5.43429
28.58874	-7.31662	5.43429
28.59280	-7.31662	5.43429
28.59685	-7.31662	5.43429
28.60091	-7.31662	5.43429
28.60497	-7.31662	5.43429
28.60903	-7.31662	5.43429
28.61308	-7.29464	5.43429
28.61714	-7.29464	5.43429
28.62120	-7.29464	5.43429
28.62549	-7.29464	5.43429
28.62954	-7.29464	5.43429
28.63360	-7.31662	5.43429
28.63766	-7.29464	5.43429
28.64172	-7.29464	5.43429
28.64577	-7.29464	5.43429
28.64983	-7.29464	5.43429
28.65389	-7.29464	5.43429
28.65795	-7.29464	5.43429
28.66201	-7.29464	5.43429
28.66607	-7.29464	5.43429
28.67012	-7.29464	5.43429
28.67418	-7.29464	5.43429
28.67824	-7.29464	5.43429
28.68229	-7.29464	5.43429
28.68635	-7.29464	5.43429
28.69041	-7.29464	5.43429
28.69447	-7.29464	5.43429
28.69852	-7.29464	5.43429
28.70258	-7.29464	5.43429
28.70664	-7.29464	5.43429
28.71070	-7.31662	5.43429
28.71476	-7.31662	5.43429
28.71881	-7.29464	5.43429
28.72287	-7.29464	5.43429
28.72716	-7.29464	5.43429
28.73122	-7.29464	5.43429
28.73528	-7.29464	5.43429
28.73934	-7.31662	5.43429
28.74339	-7.29464	5.43429
28.74745	-7.31662	5.43429
28.75151	-7.31662	5.43429
28.75557	-7.31662	5.43429
28.75963	-7.31662	5.43429
28.76369	-7.31662	5.43429
28.76775	-7.31662	5.43429
28.77177	-7.31662	5.43429
28.77582	-7.31662	5.43429
28.77988	-7.31662	5.43429
28.78394	-7.31662	5.43429
28.78799	-7.33859	5.43429
28.79205	-7.33859	5.43429
28.79611	-7.33859	5.43429
28.80017	-7.33859	5.43429
28.80422	-7.33859	5.43429
28.80828	-7.31662	5.43429
28.81234	-7.33859	5.43429
28.81639	-7.33859	5.43429
28.82045	-7.33859	5.43429
28.82451	-7.33859	5.43429
28.82880	-7.36056	5.43429
28.83286	-7.36056	5.43429
28.83691	-7.36056	5.43429
28.84097	-7.36056	5.43429
28.84503	-7.36056	5.43429
28.84909	-7.36056	5.43429
28.85314	-7.38254	5.43429
28.85721	-7.38254	5.43429
28.86126	-7.38254	5.43429
28.86532	-7.38254	5.43429
28.86938	-7.38254	5.43429
28.87344	-7.38254	5.43429
28.87750	-7.38254	5.43429
28.88155	-7.40451	5.43429
28.88561	-7.40451	5.43429
28.88967	-7.40451	5.43429
28.89372	-7.40451	5.43429
28.89778	-7.42648	5.43429
28.90184	-7.42648	5.43429
28.90589	-7.42648	5.43429
28.90996	-7.42648	5.43429
28.91402	-7.42648	5.43429
28.91808	-7.42648	5.43429
28.92213	-7.44845	5.43429
28.92619	-7.44845	5.43429
28.93048	-7.44845	5.43429
28.93454	-7.44845	5.43429
28.93859	-7.44845	5.43429
28.94265	-7.47043	5.43429
28.94671	-7.47043	5.43429
28.95077	-7.47043	5.43429
28.95482	-7.47043	5.43429
28.95889	-7.47043	5.43429
28.96295	-7.49240	5.43429
28.96701	-7.49240	5.43429
28.97106	-7.49240	5.43429
28.97512	-7.49240	5.43429
28.97918	-7.49240	5.43429
28.98324	-7.49240	5.43429
28.98729	-7.51437	5.43429
28.99135	-7.51437	5.43429
28.99541	-7.51437	5.43429
28.99947	-7.51437	5.43429
29.00352	-7.51437	5.43429
29.00758	-7.53634	5.43429
29.01164	-7.53634	5.43429
29.01570	-7.53634	5.43429
29.01975	-7.53634	5.43429
29.02377	-7.53634	5.43429
29.02784	-7.55832	5.43429
29.03213	-7.55832	5.43429
29.03619	-7.55832	5.43429
29.04025	-7.55832	5.43429
29.04431	-7.55832	5.43429
29.04837	-7.58029	5.43429
29.05242	-7.58029	5.43429
29.05648	-7.58029	5.43429
29.06054	-7.58029	5.43429
29.06460	-7.58029	5.43429
29.06866	-7.60226	5.43429
29.07272	-7.60226	5.43429
29.07678	-7.60226	5.43429
29.08083	-7.60226	5.43429
29.08489	-7.60226	5.43429
29.08895	-7.62423	5.43429
29.09300	-7.62423	5.43429
29.09706	-7.62423	5.43429
29.10112	-7.62423	5.43429
29.10518	-7.62423	5.43429
29.10923	-7.62423	5.43429
29.11329	-7.64621	5.43429
29.11735	-7.64621	5.43429
29.12140	-7.64621	5.43429
29.12546	-7.64621	5.43429
29.12952	-7.64621	5.43429
29.13381	-7.64621	5.43429
29.13787	-7.66818	5.43429
29.14193	-7.66818	5.43429
29.14598	-7.66818	5.43429
29.15004	-7.66818	5.43429
29.15410	-7.69015	5.43429
29.15816	-7.66818	5.43429
29.16222	-7.66818	5.43429
29.16628	-7.69015	5.43429
29.17034	-7.69015	5.43429
29.17439	-7.69015	5.43429
29.17845	-7.69015	5.43429
29.18251	-7.69015	5.43429
29.18656	-7.69015	5.43429
29.19062	-7.69015	5.43429
29.19468	-7.71213	5.43429
29.19874	-7.71213	5.43429
29.20279	-7.71213	5.43429
29.20685	-7.71213	5.43429
29.21091	-7.71213	5.43429
29.21497	-7.71213	5.43429
29.21903	-7.73410	5.43429
29.22309	-7.73410	5.43429
29.22715	-7.73410	5.43429
29.23120	-7.73410	5.43429
29.23550	-7.73410	5.43429
29.23955	-7.73410	5.43429
29.24361	-7.73410	5.43429
29.24767	-7.73410	5.43429
29.25173	-7.73410	5.43429
29.25577	-7.73410	5.43429
29.25983	-7.75607	5.43429
29.26389	-7.75607	5.43429
29.26795	-7.75607	5.43429
29.27201	-7.75607	5.43429
29.27607	-7.75607	5.43429
29.28012	-7.75607	5.43429
29.28419	-7.75607	5.43429
29.28825	-7.75607	5.43429
29.29230	-7.75607	5.43429
29.29636	-7.75607	5.43429
29.30042	-7.75607	5.43429
29.30448	-7.77804	5.43429
29.30853	-7.75607	5.43429
29.31259	-7.75607	5.43429
29.31665	-7.77804	5.43429
29.32071	-7.77804	5.43429
29.32477	-7.77804	5.43429
29.32882	-7.77804	5.43429
29.33288	-7.77804	5.43429
29.33717	-7.77804	5.43429
29.34123	-7.77804	5.43429
29.34528	-7.77804	5.43429
29.34934	-7.80002	5.43429
29.35340	-7.77804	5.43429
29.35746	-7.77804	5.43429
29.36151	-7.77804	5.43429
29.36559	-7.77804	5.43429
29.36965	-7.77804	5.43429
29.37370	-7.77804	5.43429
29.37776	-7.77804	5.43429
29.38182	-7.80002	5.43429
29.38587	-7.80002	5.43429
29.38993	-7.77804	5.43429
29.39399	-7.77804	5.43429
29.39805	-7.77804	5.43429
29.40210	-7.80002	5.43429
29.40616	-7.80002	5.43429
29.41022	-7.80002	5.43429
29.41427	-7.80002	5.43429
29.41834	-7.80002	5.43429
29.42240	-7.80002	5.43429
29.42645	-7.80002	5.43429
29.43051	-7.80002	5.43429
29.43457	-7.80002	5.43429
29.43886	-7.80002	5.43429
29.44291	-7.80002	5.43429
29.44697	-7.80002	5.43429
29.45103	-7.80002	5.43429
29.45509	-7.80002	5.43429
29.45914	-7.80002	5.43429
29.46320	-7.80002	5.43429
29.46727	-7.80002	5.43429
29.47133	-7.80002	5.43429
29.47539	-7.80002	5.43429
29.47945	-7.80002	5.43429
29.48350	-7.80002	5.43429
29.48756	-7.80002	5.43429
29.49162	-7.80002	5.43429
29.49568	-7.80002	5.43429
29.49973	-7.80002	5.43429
29.50377	-7.80002	5.43429
29.50783	-7.80002	5.43429
29.51189	-7.80002	5.43429
29.51594	-7.80002	5.43429
29.52000	-7.80002	5.43429
29.52406	-7.80002	5.43429
29.52811	-7.80002	5.43429
29.53217	-7.80002	5.43429
29.53623	-7.80002	5.43429
29.54052	-7.80002	5.43429
29.54458	-7.82199	5.43429
29.54863	-7.82199	5.43429
29.55269	-7.80002	5.43429
29.55675	-7.80002	5.43429
29.56081	-7.82199	5.43429
29.56486	-7.80002	5.43429
29.56893	-7.80002	5.43429
29.57298	-7.82199	5.43429
29.57704	-7.82199	5.43429
29.58110	-7.82199	5.43429
29.58516	-7.82199	5.43429
29.58921	-7.82199	5.43429
29.59327	-7.82199	5.43429
29.59733	-7.82199	5.43429
29.60139	-7.82199	5.43429
29.60544	-7.82199	5.43429
29.60950	-7.84396	5.43429
29.61356	-7.84396	5.43429
29.61761	-7.82199	5.43429
29.62168	-7.82199	5.43429
29.62574	-7.82199	5.43429
29.62979	-7.82199	5.43429
29.63385	-7.82199	5.43429
29.63791	-7.84396	5.43429
29.64219	-7.82199	5.43429
29.64625	-7.84396	5.43429
29.65031	-7.82199	5.43429
29.65437	-7.82199	5.43429
29.65842	-7.82199	5.43429
29.66248	-7.84396	5.43429
29.66654	-7.82199	5.43429
29.67060	-7.84396	5.43429
29.67466	-7.84396	5.43429
29.67872	-7.82199	5.43429
29.68277	-7.84396	5.43429
29.68683	-7.84396	5.43429
29.69089	-7.84396	5.43429
29.69495	-7.84396	5.43429
29.69900	-7.84396	5.43429
29.70306	-7.82199	5.43429
29.70712	-7.84396	5.43429
29.71117	-7.84396	5.43429
29.71523	-7.84396	5.43429
29.71929	-7.84396	5.43429
29.72335	-7.84396	5.43429
29.72740	-7.84396	5.43429
29.73146	-7.84396	5.43429
29.73552	-7.84396	5.43429
29.73958	-7.84396	5.43429
29.74390	-7.84396	5.43429
29.74796	-7.84396	5.43429
29.75202	-7.82199	5.43429
29.75607	-7.84396	5.43429
29.76013	-7.84396	5.43429
29.76419	-7.84396	5.43429
29.76825	-7.84396	5.43429
29.77232	-7.84396	5.43429
29.77637	-7.84396	5.43429
29.78043	-7.84396	5.43429
29.78449	-7.84396	5.43429
29.78855	-7.84396	5.43429
29.79260	-7.84396	5.43429
29.79666	-7.84396	5.43429
29.80072	-7.84396	5.43429
29.80477	-7.84396	5.43429
29.80883	-7.84396	5.43429
29.81289	-7.84396	5.43429
29.81695	-7.84396	5.43429
29.82100	-7.84396	5.43429
29.82506	-7.84396	5.43429
29.82912	-7.84396	5.43429
29.83317	-7.82199	5.43429
29.83723	-7.84396	5.43429
29.84129	-7.84396	5.43429
29.84558	-7.84396	5.43429
29.84963	-7.82199	5.43429
29.85369	-7.82199	5.43429
29.85775	-7.84396	5.43429
29.86181	-7.82199	5.43429
29.86586	-7.82199	5.43429
29.86992	-7.82199	5.43429
29.87398	-7.82199	5.43429
29.87804	-7.82199	5.43429
29.88210	-7.82199	5.43429
29.88616	-7.82199	5.43429
29.89021	-7.82199	5.43429
29.89427	-7.82199	5.43429
29.89833	-7.80002	5.43429
29.90239	-7.82199	5.43429
29.90644	-7.82199	5.43429
29.91050	-7.82199	5.43429
29.91456	-7.82199	5.43429
29.91861	-7.82199	5.43429
29.92267	-7.82199	5.43429
29.92673	-7.80002	5.43429
29.93079	-7.80002	5.43429
29.93484	-7.82199	5.43429
29.93890	-7.80002	5.43429
29.94296	-7.82199	5.43429
29.94724	-7.80002	5.43429
29.95130	-7.80002	5.43429
29.95536	-7.80002	5.43429
29.95942	-7.80002	5.43429
29.96347	-7.80002	5.43429
29.96753	-7.80002	5.43429
29.97159	-7.80002	5.43429
29.97566	-7.80002	5.43429
29.97972	-7.80002	5.43429
29.98379	-7.80002	5.43429
29.98785	-7.80002	5.43429
29.99191	-7.80002	5.43429
29.99597	-7.80002	5.43429
