Time (s)   roll (deg)   Delta
0.00037	4.54862	11.27051
0.00459	4.54862	11.27051
0.00878	4.54862	11.27051
0.01299	4.54862	11.27051
0.01718	4.54862	11.27051
0.02149	4.52664	11.27051
0.02574	4.54862	11.27051
0.02999	4.52664	11.27051
0.03418	4.52664	11.27051
0.03836	4.52664	11.27051
0.04254	4.52664	11.27051
0.04674	4.52664	11.27051
0.05092	4.52664	11.27051
0.05521	4.50467	11.27051
0.05943	4.50467	11.27051
0.06365	4.50467	11.27051
0.06784	4.50467	11.27051
0.07201	4.50467	11.27051
0.07618	4.48270	11.27051
0.08035	4.46073	11.27051
0.08475	4.46073	11.27051
0.08893	4.46073	11.27051
0.09310	4.46073	11.27051
0.09728	4.43875	11.27051
0.10155	4.41678	11.27051
0.10573	4.39481	11.27051
0.11006	4.39481	11.27051
0.11444	4.37284	11.27051
0.11874	4.37284	11.27051
0.12297	4.35086	11.27051
0.12721	4.32889	11.27051
0.13155	4.30692	11.27051
0.13583	4.28494	11.27051
0.14005	4.28494	11.27051
0.14433	4.21903	11.27051
0.14872	4.21903	11.27051
0.15311	4.19705	11.27051
0.15736	4.17508	11.27051
0.16201	4.13114	11.27051
0.16649	4.08719	11.27051
0.17084	4.06522	11.27051
0.17520	4.02127	11.27051
0.17959	4.02127	11.27051
0.18386	3.97733	11.27051
0.18810	3.93338	11.27051
0.19341	3.88944	11.27051
0.19912	3.80155	11.27051
0.20355	3.80155	11.27051
0.20796	3.75760	11.27051
0.21231	3.71366	11.27051
0.21667	3.64774	11.27051
0.22091	3.58182	11.27051
0.22507	3.58182	11.27051
0.22952	3.49393	11.27051
0.23383	3.49393	11.27051
0.23808	3.42801	11.27051
0.24311	3.36209	11.27051
0.24857	3.29618	11.27051
0.25315	3.23026	11.27051
0.25751	3.16434	11.27051
0.26188	3.09842	11.27051
0.26621	3.03250	11.27051
0.27048	2.94461	11.27051
0.27573	2.87869	11.27051
0.28033	2.81278	11.27051
0.28535	2.72489	11.27051
0.28968	2.72489	11.27051
0.29407	2.63700	11.27051
0.29889	2.57108	11.27051
0.30313	2.48319	11.27051
0.30729	2.39530	11.27051
0.31161	2.30741	11.27051
0.31598	2.24149	11.27051
0.32020	2.24149	11.27051
0.32535	2.04373	11.27051
0.32983	2.04373	11.27051
0.33424	1.95584	11.27051
0.33866	1.84598	11.27051
0.34294	1.75809	11.27051
0.34739	1.64823	11.27051
0.35162	1.56034	11.27051
0.35587	1.47244	11.27051
0.36055	1.36258	11.27051
0.36574	1.25272	11.27051
0.37006	1.25272	11.27051
0.37438	1.14286	11.27051
0.37867	1.03299	11.27051
0.38294	0.92313	11.27051
0.38714	0.81327	11.27051
0.39222	0.70340	11.27051
0.39685	0.59354	11.27051
0.40120	0.48368	11.27051
0.40556	0.37381	11.27051
0.40981	0.37381	11.27051
0.41407	0.24198	11.27051
0.41835	0.13211	11.27051
0.42372	0.00028	11.27051
0.42838	-0.13156	11.27051
0.43271	-0.24142	11.27051
0.43708	-0.37326	11.27051
0.44133	-0.48312	11.27051
0.44593	-0.61496	11.27051
0.45018	-0.61496	11.27051
0.45522	-0.87863	11.27051
0.45955	-0.87863	11.27051
0.46397	-1.01047	11.27051
0.46823	-1.14230	11.27051
0.47262	-1.27414	11.27051
0.47686	-1.42795	11.27051
0.48504	-1.66964	11.27051
0.48944	-1.66964	11.27051
0.49381	-1.82345	11.27051
0.49809	-1.97726	11.27051
0.50228	-2.10910	11.27051
0.50645	-2.26291	11.27051
0.51064	-2.26291	11.27051
0.51752	-2.54855	11.27051
0.52187	-2.72433	11.27051
0.52632	-2.85617	11.27051
0.53069	-2.85617	11.27051
0.53493	-3.00998	11.27051
0.53918	-3.16379	11.27051
0.54337	-3.31759	11.27051
0.54906	-3.47140	11.27051
0.55340	-3.62521	11.27051
0.55779	-3.80099	11.27051
0.56218	-3.95480	11.27051
0.56640	-3.95480	11.27051
0.57055	-4.13058	11.27051
0.57470	-4.24045	11.27051
0.57885	-4.41623	11.27051
0.58308	-4.57004	11.27051
0.58730	-4.74582	11.27051
0.59145	-4.74582	11.27051
0.59561	-4.89963	11.27051
0.59977	-5.07541	11.27051
0.60392	-5.25119	11.27051
0.60806	-5.40500	11.27051
0.61221	-5.53683	11.27051
0.61644	-5.71261	11.27051
0.62060	-5.71261	11.27051
0.62475	-5.88839	11.27051
0.62909	-6.06418	11.27051
0.63328	-6.23996	11.27051
0.63743	-6.39377	11.27051
0.64157	-6.39377	11.27051
0.64572	-6.56955	11.27051
0.64986	-6.74533	11.27051
0.65400	-6.92111	11.27051
0.65820	-7.07492	11.27051
0.66243	-7.25070	11.27051
0.66659	-7.42648	11.27051
0.67074	-7.42648	11.27051
0.67488	-7.60226	11.27051
0.67902	-7.77804	11.27051
0.68316	-7.95382	11.27051
0.68731	-8.12961	11.27051
0.69156	-8.12961	11.27051
0.69573	-8.32736	11.27051
0.69987	-8.45920	11.27051
0.70401	-8.63498	11.27051
0.70815	-8.81076	11.27051
0.71229	-9.00851	11.27051
0.71643	-9.00851	11.27051
0.72070	-9.16232	11.27051
0.72490	-9.36007	11.27051
0.72912	-9.53586	11.27051
0.73327	-9.73361	11.27051
0.73742	-9.90939	11.27051
0.74156	-10.04123	11.27051
0.74570	-10.04123	11.27051
0.74989	-10.23898	11.27051
0.75412	-10.41476	11.27051
0.75827	-10.59054	11.27051
0.76242	-10.78830	11.27051
0.76656	-10.78830	11.27051
0.77070	-10.96408	11.27051
0.77484	-11.13986	11.27051
0.77898	-11.33761	11.27051
0.78326	-11.51339	11.27051
0.78742	-11.68918	11.27051
0.79156	-11.68918	11.27051
0.79570	-11.86496	11.27051
0.79985	-12.06271	11.27051
0.80399	-12.23849	11.27051
0.80813	-12.41427	11.27051
0.81240	-12.41427	11.27051
0.81660	-12.59006	11.27051
0.82075	-12.76584	11.27051
0.82489	-12.96359	11.27051
0.82904	-13.11740	11.27051
0.83325	-13.27121	11.27051
0.83740	-13.27121	11.27051
0.84159	-13.46896	11.27051
0.84582	-13.64474	11.27051
0.84997	-13.82052	11.27051
0.85411	-13.99631	11.27051
0.85825	-14.17209	11.27051
0.86240	-14.17209	11.27051
0.86654	-14.36984	11.27051
0.87068	-14.50168	11.27051
0.87500	-14.67746	11.27051
0.87983	-14.85324	11.27051
0.88412	-15.02902	11.27051
0.88835	-15.20480	11.27051
0.89258	-15.20480	11.27051
0.89674	-15.38058	11.27051
0.90088	-15.55636	11.27051
0.90514	-15.73214	11.27051
0.91006	-15.90793	11.27051
0.91435	-16.03976	11.27051
0.91862	-16.23752	11.27051
0.92298	-16.39132	11.27051
0.92724	-16.39132	11.27051
0.93140	-16.56711	11.27051
0.93572	-16.74289	11.27051
0.93991	-16.91867	11.27051
0.94413	-17.07248	11.27051
0.94829	-17.24826	11.27051
0.95243	-17.38009	11.27051
0.95658	-17.38009	11.27051
0.96073	-17.55588	11.27051
0.96499	-17.70968	11.27051
0.96916	-17.88547	11.27051
0.97331	-18.06125	11.27051
0.97746	-18.06125	11.27051
0.98160	-18.21506	11.27051
0.98574	-18.36886	11.27051
0.98988	-18.54464	11.27051
0.99407	-18.69845	11.27051
0.99830	-18.83029	11.27051
1.00245	-18.98410	11.27051
1.00659	-18.98410	11.27051
1.01074	-19.13791	11.27051
1.01488	-19.29172	11.27051
1.01902	-19.46750	11.27051
1.02316	-19.62131	11.27051
1.02739	-19.62131	11.27051
1.03154	-19.77511	11.27051
1.03576	-19.92892	11.27051
1.03990	-20.08273	11.27051
1.04404	-20.23654	11.27051
1.04818	-20.23654	11.27051
1.05232	-20.36838	11.27051
1.05651	-20.52218	11.27051
1.06078	-20.67599	11.27051
1.06494	-20.80783	11.27051
1.06909	-20.96164	11.27051
1.07324	-20.96164	11.27051
1.07738	-21.07150	11.27051
1.08153	-21.22531	11.27051
1.08567	-21.31320	11.27051
1.08993	-21.42306	11.27051
1.09410	-21.53293	11.27051
1.09825	-21.53293	11.27051
1.10240	-21.62082	11.27051
1.10654	-21.70871	11.27051
1.11069	-21.79660	11.27051
1.11483	-21.86252	11.27051
1.11916	-21.92843	11.27051
1.12331	-21.95041	11.27051
1.12745	-21.95041	11.27051
1.13160	-21.99435	11.27051
1.13582	-22.01632	11.27051
1.13996	-22.01632	11.27051
1.14411	-22.01632	11.27051
1.14830	-22.01632	11.27051
1.15253	-22.01632	11.27051
1.15668	-21.97238	11.27051
1.16083	-21.95041	11.27051
1.16497	-21.88449	11.27051
1.16911	-21.84054	11.27051
1.17325	-21.84054	11.27051
1.17739	-21.79660	11.27051
1.18163	-21.70871	11.27051
1.18580	-21.64279	11.27051
1.18994	-21.55490	11.27051
1.19408	-21.46701	11.27051
1.19822	-21.46701	11.27051
1.20236	-21.35714	11.27051
1.20650	-21.24728	11.27051
1.21080	-21.15939	11.27051
1.21498	-21.07150	11.27051
1.21913	-20.96164	11.27051
1.22326	-20.96164	11.27051
1.22740	-20.82980	11.27051
1.23154	-20.71994	11.27051
1.23568	-20.61007	11.27051
1.23989	-20.50021	11.27051
1.24413	-20.39035	11.27051
1.24829	-20.39035	11.27051
1.25243	-20.28048	11.27051
1.25657	-20.17062	11.27051
1.26071	-20.06076	11.27051
1.26486	-19.95089	11.27051
1.26900	-19.84103	11.27051
1.27325	-19.84103	11.27051
1.27743	-19.73117	11.27051
1.28158	-19.59933	11.27051
1.28572	-19.48947	11.27051
1.28986	-19.35763	11.27051
1.29400	-19.35763	11.27051
1.29814	-19.24777	11.27051
1.30232	-19.13791	11.27051
1.30654	-19.02804	11.27051
1.31070	-18.89621	11.27051
1.31484	-18.78634	11.27051
1.31898	-18.78634	11.27051
1.32312	-18.67648	11.27051
1.32726	-18.54464	11.27051
1.33140	-18.43478	11.27051
1.33564	-18.30295	11.27051
1.33981	-18.23703	11.27051
1.34402	-18.23703	11.27051
1.34817	-18.10519	11.27051
1.35231	-17.99533	11.27051
1.35647	-17.88547	11.27051
1.36061	-17.75363	11.27051
1.36486	-17.64377	11.27051
1.36903	-17.64377	11.27051
1.37318	-17.53390	11.27051
1.37732	-17.42404	11.27051
1.38147	-17.31418	11.27051
1.38561	-17.20431	11.27051
1.38975	-17.09445	11.27051
1.39393	-17.09445	11.27051
1.39814	-16.96261	11.27051
1.40230	-16.85275	11.27051
1.40714	-16.74289	11.27051
1.41141	-16.63302	11.27051
1.41565	-16.52316	11.27051
1.41986	-16.52316	11.27051
1.42401	-16.41330	11.27051
1.42826	-16.30343	11.27051
1.43243	-16.19357	11.27051
1.43658	-16.08371	11.27051
1.44072	-15.97384	11.27051
1.44494	-15.86398	11.27051
1.44908	-15.86398	11.27051
1.45408	-15.75412	11.27051
1.45863	-15.62228	11.27051
1.46295	-15.51242	11.27051
1.46728	-15.42453	11.27051
1.47148	-15.31466	11.27051
1.47563	-15.20480	11.27051
1.47977	-15.09494	11.27051
1.48397	-15.09494	11.27051
1.48836	-14.98507	11.27051
1.49254	-14.87521	11.27051
1.49671	-14.76535	11.27051
1.50086	-14.65548	11.27051
1.50500	-14.65548	11.27051
1.50915	-14.54562	11.27051
1.51329	-14.45773	11.27051
1.51748	-14.34787	11.27051
1.52170	-14.25998	11.27051
1.52585	-14.15011	11.27051
1.53000	-14.04025	11.27051
1.53414	-14.04025	11.27051
1.53828	-13.93039	11.27051
1.54242	-13.82052	11.27051
1.54663	-13.73263	11.27051
1.55087	-13.62277	11.27051
1.55505	-13.62277	11.27051
1.55920	-13.51291	11.27051
1.56334	-13.42502	11.27051
1.56749	-13.31515	11.27051
1.57163	-13.20529	11.27051
1.57577	-13.20529	11.27051
1.58002	-13.11740	11.27051
1.58421	-13.00754	11.27051
1.58836	-12.91964	11.27051
1.59251	-12.83175	11.27051
1.59665	-12.74386	11.27051
1.60080	-12.65597	11.27051
1.60494	-12.65597	11.27051
1.60908	-12.56808	11.27051
1.61332	-12.45822	11.27051
1.61748	-12.37033	11.27051
1.62162	-12.26047	11.27051
1.62576	-12.26047	11.27051
1.62990	-12.17257	11.27051
1.63404	-12.08468	11.27051
1.63818	-12.01877	11.27051
1.64242	-11.93088	11.27051
1.64667	-11.84298	11.27051
1.65081	-11.75509	11.27051
1.65495	-11.75509	11.27051
1.65909	-11.66720	11.27051
1.66324	-11.57931	11.27051
1.66738	-11.49142	11.27051
1.67156	-11.40353	11.27051
1.67577	-11.40353	11.27051
1.67993	-11.31564	11.27051
1.68407	-11.24972	11.27051
1.68821	-11.18381	11.27051
1.69235	-11.07394	11.27051
1.69649	-11.00802	11.27051
1.70063	-11.00802	11.27051
1.70487	-10.92013	11.27051
1.70906	-10.83224	11.27051
1.71322	-10.76632	11.27051
1.71737	-10.67843	11.27051
1.72151	-10.63449	11.27051
1.72566	-10.54660	11.27051
1.72981	-10.54660	11.27051
1.73405	-10.48068	11.27051
1.73823	-10.39279	11.27051
1.74239	-10.32687	11.27051
1.74655	-10.26095	11.27051
1.75077	-10.26095	11.27051
1.75492	-10.19504	11.27051
1.75907	-10.10714	11.27051
1.76340	-10.04123	11.27051
1.76758	-9.97531	11.27051
1.77176	-9.93136	11.27051
1.77591	-9.86545	11.27051
1.78007	-9.86545	11.27051
1.78422	-9.79953	11.27051
1.78837	-9.73361	11.27051
1.79259	-9.66769	11.27051
1.79681	-9.60177	11.27051
1.80100	-9.60177	11.27051
1.80516	-9.53586	11.27051
1.80932	-9.46994	11.27051
1.81349	-9.42599	11.27051
1.81763	-9.36007	11.27051
1.82179	-9.29416	11.27051
1.82604	-9.29416	11.27051
1.83025	-9.25021	11.27051
1.83440	-9.18429	11.27051
1.83856	-9.14035	11.27051
1.84271	-9.09640	11.27051
1.84687	-9.09640	11.27051
1.85111	-9.03048	11.27051
1.85538	-8.98654	11.27051
1.85956	-8.94259	11.27051
1.86373	-8.89865	11.27051
1.86790	-8.85470	11.27051
1.87205	-8.81076	11.27051
1.87620	-8.81076	11.27051
1.88035	-8.76681	11.27051
1.88466	-8.72287	11.27051
1.88884	-8.67892	11.27051
1.89300	-8.63498	11.27051
1.89716	-8.59103	11.27051
1.90132	-8.59103	11.27051
1.90547	-8.56906	11.27051
1.90961	-8.52511	11.27051
1.91384	-8.50314	11.27051
1.91806	-8.45920	11.27051
1.92222	-8.41525	11.27051
1.92637	-8.41525	11.27051
1.93053	-8.39328	11.27051
1.93468	-8.34933	11.27051
1.93883	-8.34933	11.27051
1.94297	-8.30539	11.27051
1.94724	-8.28341	11.27051
1.95149	-8.28341	11.27051
1.95564	-8.26144	11.27051
1.95978	-8.23947	11.27051
1.96393	-8.19552	11.27051
1.96808	-8.19552	11.27051
1.97222	-8.17355	11.27051
1.97646	-8.15158	11.27051
1.98068	-8.15158	11.27051
1.98483	-8.12961	11.27051
1.98898	-8.10763	11.27051
1.99312	-8.10763	11.27051
1.99727	-8.08566	11.27051
2.00142	-8.08566	11.27051
2.00573	-8.06369	11.27051
2.00992	-8.06369	11.27051
2.01411	-8.04172	11.27051
2.01826	-8.04172	11.27051
2.02241	-8.04172	11.27051
2.02657	-8.01974	11.27051
2.03074	-8.01974	11.27051
2.03496	-8.01974	11.27051
2.03918	-7.99777	11.27051
2.04344	-8.01974	11.27051
2.04761	-7.99777	11.27051
2.05184	-7.99777	11.27051
2.05612	-7.99777	11.27051
2.06031	-7.99777	11.27051
2.06447	-7.99777	11.27051
2.06872	-8.01974	11.27051
2.07289	-8.01974	11.27051
2.07712	-8.01974	11.27051
2.08127	-8.01974	11.27051
2.08542	-8.01974	11.27051
2.08957	-8.01974	11.27051
2.09373	-8.04172	11.27051
2.09799	-8.04172	11.27051
2.10217	-8.04172	11.27051
2.10633	-8.06369	11.27051
2.11050	-8.06369	11.27051
2.11465	-8.08566	11.27051
2.11879	-8.08566	11.27051
2.12295	-8.10763	11.27051
2.12723	-8.10763	11.27051
2.13146	-8.12961	11.27051
2.13563	-8.12961	11.27051
2.13979	-8.17355	11.27051
2.14396	-8.17355	11.27051
2.14811	-8.19552	11.27051
2.15233	-8.19552	11.27051
2.15649	-8.21750	11.27051
2.16074	-8.23947	11.27051
2.16490	-8.26144	11.27051
2.16907	-8.28341	11.27051
2.17323	-8.32736	11.27051
2.17739	-8.32736	11.27051
2.18154	-8.34933	11.27051
2.18569	-8.37131	11.27051
2.18994	-8.39328	11.27051
2.19416	-8.41525	11.27051
2.19831	-8.45920	11.27051
2.20246	-8.45920	11.27051
2.20661	-8.48117	11.27051
2.21076	-8.52511	11.27051
2.21491	-8.54709	11.27051
2.21928	-8.59103	11.27051
2.22346	-8.63498	11.27051
2.22763	-8.63498	11.27051
2.23178	-8.65695	11.27051
2.23593	-8.70089	11.27051
2.24008	-8.72287	11.27051
2.24423	-8.76681	11.27051
2.24846	-8.81076	11.27051
2.25276	-8.85470	11.27051
2.25692	-8.85470	11.27051
2.26108	-8.89865	11.27051
2.26523	-8.94259	11.27051
2.26938	-8.98654	11.27051
2.27353	-9.03048	11.27051
2.27769	-9.05246	11.27051
2.28192	-9.05246	11.27051
2.28613	-9.11838	11.27051
2.29028	-9.14035	11.27051
2.29444	-9.20627	11.27051
2.29859	-9.25021	11.27051
2.30275	-9.25021	11.27051
2.30689	-9.31613	11.27051
2.31115	-9.36007	11.27051
2.31532	-9.40402	11.27051
2.31948	-9.46994	11.27051
2.32362	-9.51388	11.27051
2.32779	-9.51388	11.27051
2.33194	-9.57980	11.27051
2.33609	-9.62375	11.27051
2.34031	-9.66769	11.27051
2.34453	-9.73361	11.27051
2.34872	-9.73361	11.27051
2.35298	-9.77756	11.27051
2.35713	-9.84347	11.27051
2.36128	-9.90939	11.27051
2.36543	-9.95334	11.27051
2.36958	-9.99728	11.27051
2.37382	-10.06320	11.27051
2.37803	-10.06320	11.27051
2.38219	-10.12912	11.27051
2.38633	-10.19504	11.27051
2.39048	-10.26095	11.27051
2.39462	-10.30490	11.27051
2.39876	-10.30490	11.27051
2.40301	-10.37082	11.27051
2.40719	-10.43673	11.27051
2.41134	-10.48068	11.27051
2.41548	-10.56857	11.27051
2.41963	-10.63449	11.27051
2.42377	-10.63449	11.27051
2.42791	-10.70041	11.27051
2.43210	-10.76632	11.27051
2.43631	-10.83224	11.27051
2.44046	-10.89816	11.27051
2.44461	-10.94211	11.27051
2.44875	-11.00802	11.27051
2.45289	-11.00802	11.27051
2.45710	-11.07394	11.27051
2.46124	-11.13986	11.27051
2.46548	-11.22775	11.27051
2.46965	-11.27170	11.27051
2.47379	-11.27170	11.27051
2.47794	-11.35959	11.27051
2.48208	-11.42550	11.27051
2.48622	-11.49142	11.27051
2.49036	-11.55734	11.27051
2.49465	-11.62326	11.27051
2.49885	-11.68918	11.27051
2.50300	-11.68918	11.27051
2.50714	-11.75509	11.27051
2.51127	-11.84298	11.27051
2.51541	-11.90890	11.27051
2.51956	-11.97482	11.27051
2.52370	-11.97482	11.27051
2.52795	-12.06271	11.27051
2.53211	-12.12863	11.27051
2.53626	-12.19455	11.27051
2.54040	-12.26047	11.27051
2.54454	-12.34836	11.27051
2.54868	-12.34836	11.27051
2.55282	-12.41427	11.27051
2.55713	-12.48019	11.27051
2.56131	-12.56808	11.27051
2.56545	-12.63400	11.27051
2.56959	-12.72189	11.27051
2.57374	-12.72189	11.27051
2.57788	-12.78781	11.27051
2.58202	-12.87570	11.27051
2.58620	-12.94162	11.27051
2.59041	-13.00754	11.27051
2.59457	-13.00754	11.27051
2.59872	-13.09543	11.27051
2.60286	-13.16134	11.27051
2.60700	-13.24923	11.27051
2.61114	-13.31515	11.27051
2.61526	-13.31515	11.27051
2.61950	-13.46896	11.27051
2.62366	-13.46896	11.27051
2.62781	-13.53488	11.27051
2.63195	-13.62277	11.27051
2.63680	-13.68869	11.27051
2.64108	-13.77658	11.27051
2.64532	-13.84250	11.27051
2.64978	-13.84250	11.27051
2.65399	-13.93039	11.27051
2.65821	-13.99631	11.27051
2.66236	-14.06222	11.27051
2.66650	-14.12814	11.27051
2.67132	-14.21603	11.27051
2.67556	-14.30392	11.27051
2.68000	-14.36984	11.27051
2.68425	-14.36984	11.27051
2.68841	-14.43576	11.27051
2.69255	-14.52365	11.27051
2.69671	-14.58957	11.27051
2.70085	-14.67746	11.27051
2.70500	-14.74338	11.27051
2.70922	-14.74338	11.27051
2.71344	-14.80929	11.27051
2.71760	-14.89718	11.27051
2.72175	-14.96310	11.27051
2.72589	-15.05099	11.27051
2.73003	-15.11691	11.27051
2.73484	-15.18283	11.27051
2.73972	-15.18283	11.27051
2.74408	-15.27072	11.27051
2.74833	-15.33664	11.27051
2.75249	-15.40256	11.27051
2.75664	-15.46847	11.27051
2.76087	-15.55636	11.27051
2.76502	-15.62228	11.27051
2.76917	-15.62228	11.27051
2.77342	-15.71017	11.27051
2.77760	-15.77609	11.27051
2.78242	-15.86398	11.27051
2.78672	-15.92990	11.27051
2.79098	-15.99582	11.27051
2.79522	-16.06173	11.27051
2.79938	-16.06173	11.27051
2.80363	-16.12765	11.27051
2.80780	-16.19357	11.27051
2.81197	-16.28146	11.27051
2.81612	-16.34738	11.27051
2.82026	-16.41330	11.27051
2.82441	-16.41330	11.27051
2.82856	-16.47922	11.27051
2.83290	-16.54513	11.27051
2.83709	-16.63302	11.27051
2.84123	-16.69894	11.27051
2.84538	-16.69894	11.27051
2.84953	-16.76486	11.27051
2.85368	-16.83078	11.27051
2.85782	-16.89670	11.27051
2.86210	-16.96261	11.27051
2.86631	-17.02853	11.27051
2.87047	-17.02853	11.27051
2.87461	-17.09445	11.27051
2.87876	-17.13839	11.27051
2.88290	-17.22629	11.27051
2.88704	-17.27023	11.27051
2.89119	-17.33615	11.27051
2.89543	-17.33615	11.27051
2.89959	-17.40207	11.27051
2.90373	-17.46798	11.27051
2.90788	-17.53390	11.27051
2.91202	-17.59982	11.27051
2.91616	-17.64377	11.27051
2.92030	-17.64377	11.27051
2.92454	-17.70968	11.27051
2.92871	-17.77560	11.27051
2.93286	-17.81955	11.27051
2.93700	-17.88547	11.27051
2.94114	-17.95138	11.27051
2.94528	-17.95138	11.27051
2.94942	-18.01730	11.27051
2.95361	-18.06125	11.27051
2.95782	-18.12716	11.27051
2.96201	-18.17111	11.27051
2.96623	-18.21506	11.27051
2.97038	-18.21506	11.27051
2.97452	-18.28097	11.27051
2.97867	-18.34689	11.27051
2.98281	-18.39084	11.27051
2.98706	-18.45675	11.27051
2.99124	-18.50070	11.27051
2.99539	-18.50070	11.27051
2.99953	-18.54464	11.27051
3.00368	-18.58859	11.27051
3.00782	-18.65451	11.27051
3.01196	-18.69845	11.27051
3.01620	-18.76437	11.27051
3.02038	-18.76437	11.27051
3.02452	-18.80832	11.27051
3.02867	-18.85226	11.27051
3.03281	-18.89621	11.27051
3.03695	-18.96213	11.27051
3.04109	-18.96213	11.27051
3.04528	-18.98410	11.27051
3.04949	-19.02804	11.27051
3.05364	-19.07199	11.27051
3.05782	-19.11593	11.27051
3.06197	-19.18185	11.27051
3.06612	-19.20382	11.27051
3.07035	-19.20382	11.27051
3.07449	-19.26974	11.27051
3.07873	-19.29172	11.27051
3.08290	-19.33566	11.27051
3.08705	-19.37961	11.27051
3.09120	-19.37961	11.27051
3.09534	-19.42355	11.27051
3.09949	-19.46750	11.27051
3.10363	-19.48947	11.27051
3.10787	-19.53341	11.27051
3.11204	-19.57736	11.27051
3.11619	-19.57736	11.27051
3.12033	-19.59933	11.27051
3.12447	-19.64328	11.27051
3.12861	-19.66525	11.27051
3.13275	-19.70920	11.27051
3.13694	-19.73117	11.27051
3.14115	-19.73117	11.27051
3.14531	-19.77511	11.27051
3.14945	-19.79709	11.27051
3.15359	-19.81906	11.27051
3.15774	-19.86300	11.27051
3.16188	-19.86300	11.27051
3.16602	-19.88498	11.27051
3.17026	-19.92892	11.27051
3.17449	-19.92892	11.27051
3.17864	-19.95089	11.27051
3.18278	-19.99484	11.27051
3.18692	-19.99484	11.27051
3.19107	-19.99484	11.27051
3.19521	-20.03879	11.27051
3.19946	-20.06076	11.27051
3.20362	-20.08273	11.27051
3.20777	-20.10470	11.27051
3.21191	-20.10470	11.27051
3.21605	-20.10470	11.27051
3.22020	-20.12668	11.27051
3.22434	-20.12668	11.27051
3.22852	-20.17062	11.27051
3.23273	-20.17062	11.27051
3.23689	-20.19259	11.27051
3.24104	-20.19259	11.27051
3.24519	-20.21457	11.27051
3.24934	-20.21457	11.27051
3.25348	-20.23654	11.27051
3.25762	-20.21457	11.27051
3.26186	-20.23654	11.27051
3.26604	-20.23654	11.27051
3.27019	-20.25851	11.27051
3.27434	-20.25851	11.27051
3.27856	-20.25851	11.27051
3.28270	-20.25851	11.27051
3.28685	-20.25851	11.27051
3.29110	-20.28048	11.27051
3.29529	-20.28048	11.27051
3.29944	-20.28048	11.27051
3.30358	-20.28048	11.27051
3.30772	-20.28048	11.27051
3.31186	-20.28048	11.27051
3.31600	-20.28048	11.27051
3.32020	-20.28048	11.27051
3.32441	-20.28048	11.27051
3.32857	-20.28048	11.27051
3.33272	-20.25851	11.27051
3.33686	-20.25851	11.27051
3.34102	-20.25851	11.27051
3.34517	-20.23654	11.27051
3.34932	-20.25851	11.27051
3.35361	-20.23654	11.27051
3.35780	-20.23654	11.27051
3.36196	-20.23654	11.27051
3.36611	-20.23654	11.27051
3.37025	-20.19259	11.27051
3.37440	-20.21457	11.27051
3.37863	-20.19259	11.27051
3.38288	-20.19259	11.27051
3.38705	-20.19259	11.27051
3.39121	-20.17062	11.27051
3.39536	-20.14865	11.27051
3.39951	-20.12668	11.27051
3.40366	-20.10470	11.27051
3.40781	-20.10470	11.27051
3.41204	-20.10470	11.27051
3.41625	-20.08273	11.27051
3.42041	-20.06076	11.27051
3.42455	-20.03879	11.27051
3.42871	-20.01681	11.27051
3.43285	-20.01681	11.27051
3.43699	-20.01681	11.27051
3.44113	-19.97287	11.27051
3.44538	-19.97287	11.27051
3.44954	-19.95089	11.27051
3.45369	-19.92892	11.27051
3.45783	-19.92892	11.27051
3.46197	-19.90695	11.27051
3.46612	-19.88498	11.27051
3.47096	-19.86300	11.27051
3.47553	-19.81906	11.27051
3.47991	-19.79709	11.27051
3.48413	-19.77511	11.27051
3.48829	-19.75314	11.27051
3.49244	-19.75314	11.27051
3.49659	-19.73117	11.27051
3.50074	-19.68722	11.27051
3.50510	-19.66525	11.27051
3.50928	-19.64328	11.27051
3.51345	-19.59933	11.27051
3.51760	-19.57736	11.27051
3.52175	-19.57736	11.27051
3.52590	-19.55539	11.27051
3.53004	-19.51144	11.27051
3.53424	-19.48947	11.27051
3.53847	-19.44552	11.27051
3.54263	-19.44552	11.27051
3.54679	-19.42355	11.27051
3.55093	-19.40158	11.27051
3.55508	-19.35763	11.27051
3.55923	-19.33566	11.27051
3.56338	-19.29172	11.27051
3.56763	-19.24777	11.27051
3.57179	-19.24777	11.27051
3.57594	-19.22580	11.27051
3.58016	-19.20382	11.27051
3.58431	-19.15988	11.27051
3.58845	-19.11593	11.27051
3.59260	-19.11593	11.27051
3.59685	-19.07199	11.27051
3.60102	-19.05002	11.27051
3.60517	-19.00607	11.27051
3.60932	-18.96213	11.27051
3.61428	-18.94015	11.27051
3.61854	-18.94015	11.27051
3.62282	-18.89621	11.27051
3.62730	-18.85226	11.27051
3.63151	-18.80832	11.27051
3.63567	-18.78634	11.27051
3.63981	-18.74240	11.27051
3.64398	-18.72043	11.27051
3.64813	-18.72043	11.27051
3.65227	-18.67648	11.27051
3.65647	-18.63254	11.27051
3.66068	-18.61056	11.27051
3.66484	-18.54464	11.27051
3.66898	-18.54464	11.27051
3.67312	-18.52267	11.27051
3.67727	-18.47873	11.27051
3.68148	-18.43478	11.27051
3.68562	-18.41281	11.27051
3.68986	-18.36886	11.27051
3.69403	-18.32492	11.27051
3.69818	-18.32492	11.27051
3.70232	-18.28097	11.27051
3.70646	-18.25900	11.27051
3.71060	-18.21506	11.27051
3.71474	-18.17111	11.27051
3.71904	-18.17111	11.27051
3.72324	-18.12716	11.27051
3.72739	-18.08322	11.27051
3.73154	-18.06125	11.27051
3.73568	-18.01730	11.27051
3.73982	-17.97336	11.27051
3.74396	-17.92941	11.27051
3.74811	-17.92941	11.27051
3.75234	-17.88547	11.27051
3.75733	-17.86349	11.27051
3.76161	-17.81955	11.27051
3.76589	-17.77560	11.27051
3.77020	-17.73166	11.27051
3.77437	-17.70968	11.27051
3.77852	-17.70968	11.27051
3.78284	-17.66574	11.27051
3.78702	-17.62179	11.27051
3.79116	-17.57785	11.27051
3.79526	-17.53390	11.27051
3.79940	-17.51193	11.27051
3.80355	-17.51193	11.27051
3.80769	-17.46798	11.27051
3.81194	-17.42404	11.27051
3.81612	-17.38009	11.27051
3.82026	-17.35812	11.27051
3.82440	-17.31418	11.27051
3.82855	-17.31418	11.27051
3.83269	-17.27023	11.27051
3.83684	-17.22629	11.27051
3.84103	-17.18234	11.27051
3.84524	-17.16037	11.27051
3.84940	-17.11642	11.27051
3.85354	-17.11642	11.27051
3.85768	-17.07248	11.27051
3.86182	-17.02853	11.27051
3.86596	-16.98459	11.27051
3.87010	-16.94064	11.27051
3.87434	-16.94064	11.27051
3.87852	-16.91867	11.27051
3.88266	-16.87472	11.27051
3.88687	-16.83078	11.27051
3.89101	-16.80881	11.27051
3.89516	-16.80881	11.27051
3.89926	-16.76486	11.27051
3.90351	-16.72091	11.27051
3.90771	-16.69894	11.27051
3.91187	-16.65500	11.27051
3.91601	-16.61105	11.27051
3.92016	-16.56711	11.27051
3.92430	-16.56711	11.27051
3.92844	-16.52316	11.27051
3.93259	-16.50119	11.27051
3.93682	-16.45724	11.27051
3.94098	-16.41330	11.27051
3.94513	-16.39132	11.27051
3.94927	-16.39132	11.27051
3.95341	-16.34738	11.27051
3.95755	-16.30343	11.27051
3.96169	-16.28146	11.27051
3.96593	-16.23752	11.27051
3.97010	-16.19357	11.27051
3.97425	-16.19357	11.27051
3.97839	-16.17160	11.27051
3.98253	-16.12765	11.27051
3.98667	-16.10568	11.27051
3.99088	-16.06173	11.27051
3.99507	-16.01779	11.27051
3.99929	-16.01779	11.27051
4.00345	-15.99582	11.27051
4.00759	-15.95187	11.27051
4.01173	-15.90793	11.27051
4.01587	-15.88595	11.27051
4.02002	-15.88595	11.27051
4.02416	-15.84201	11.27051
4.02839	-15.82004	11.27051
4.03255	-15.77609	11.27051
4.03670	-15.73214	11.27051
4.04084	-15.71017	11.27051
4.04498	-15.68820	11.27051
4.04912	-15.68820	11.27051
4.05326	-15.64425	11.27051
4.05771	-15.60031	11.27051
4.06190	-15.57834	11.27051
4.06604	-15.53439	11.27051
4.07018	-15.51242	11.27051
4.07432	-15.51242	11.27051
4.07847	-15.49045	11.27051
4.08261	-15.44650	11.27051
4.08679	-15.42453	11.27051
4.09107	-15.38058	11.27051
4.09524	-15.35861	11.27051
4.09939	-15.35861	11.27051
4.10353	-15.31466	11.27051
4.10767	-15.29269	11.27051
4.11181	-15.24875	11.27051
4.11595	-15.22677	11.27051
4.12020	-15.22677	11.27051
4.12437	-15.20480	11.27051
4.12853	-15.16086	11.27051
4.13267	-15.13888	11.27051
4.13682	-15.09494	11.27051
4.14096	-15.09494	11.27051
4.14510	-15.07297	11.27051
4.14937	-15.05099	11.27051
4.15357	-15.02902	11.27051
4.15773	-15.00705	11.27051
4.16187	-14.96310	11.27051
4.16601	-14.94113	11.27051
4.17015	-14.94113	11.27051
4.17429	-14.91916	11.27051
4.17844	-14.87521	11.27051
4.18268	-14.85324	11.27051
4.18685	-14.83127	11.27051
4.19099	-14.83127	11.27051
4.19521	-14.78732	11.27051
4.19936	-14.78732	11.27051
4.20350	-14.76535	11.27051
4.20764	-14.72140	11.27051
4.21188	-14.69943	11.27051
4.21605	-14.67746	11.27051
4.22019	-14.67746	11.27051
4.22434	-14.65548	11.27051
4.22848	-14.61154	11.27051
4.23262	-14.58957	11.27051
4.23676	-14.56759	11.27051
4.24095	-14.56759	11.27051
4.24516	-14.56759	11.27051
4.24932	-14.52365	11.27051
4.25348	-14.52365	11.27051
4.25763	-14.47970	11.27051
4.26179	-14.45773	11.27051
4.26593	-14.45773	11.27051
4.27009	-14.43576	11.27051
4.27433	-14.41379	11.27051
4.27854	-14.39181	11.27051
4.28269	-14.36984	11.27051
4.28683	-14.34787	11.27051
4.29097	-14.32589	11.27051
4.29512	-14.32589	11.27051
4.29945	-14.32589	11.27051
4.30373	-14.30392	11.27051
4.30795	-14.28195	11.27051
4.31219	-14.25998	11.27051
4.31636	-14.23800	11.27051
4.32052	-14.23800	11.27051
4.32467	-14.21603	11.27051
4.32884	-14.19406	11.27051
4.33363	-14.19406	11.27051
4.33782	-14.17209	11.27051
4.34197	-14.15011	11.27051
4.34611	-14.12814	11.27051
4.35026	-14.12814	11.27051
4.35443	-14.10617	11.27051
4.35858	-14.08420	11.27051
4.36277	-14.08420	11.27051
4.36699	-14.06222	11.27051
4.37115	-14.06222	11.27051
4.37526	-14.04025	11.27051
4.37941	-14.04025	11.27051
4.38355	-14.01828	11.27051
4.38769	-13.99631	11.27051
4.39183	-13.99631	11.27051
4.39608	-13.99631	11.27051
4.40032	-13.97433	11.27051
4.40446	-13.95236	11.27051
4.40861	-13.95236	11.27051
4.41275	-13.95236	11.27051
4.41689	-13.93039	11.27051
4.42103	-13.93039	11.27051
4.42528	-13.90841	11.27051
4.42945	-13.90841	11.27051
4.43359	-13.88644	11.27051
4.43774	-13.88644	11.27051
4.44188	-13.88644	11.27051
4.44602	-13.86447	11.27051
4.45016	-13.86447	11.27051
4.45435	-13.84250	11.27051
4.45856	-13.84250	11.27051
4.46272	-13.84250	11.27051
4.46687	-13.84250	11.27051
4.47101	-13.84250	11.27051
4.47515	-13.82052	11.27051
4.47926	-13.82052	11.27051
4.48340	-13.82052	11.27051
4.48764	-13.79855	11.27051
4.49257	-13.79855	11.27051
4.49698	-13.77658	11.27051
4.50134	-13.77658	11.27051
4.50564	-13.79855	11.27051
4.51044	-13.77658	11.27051
4.51499	-13.77658	11.27051
4.51956	-13.77658	11.27051
4.52387	-13.77658	11.27051
4.52913	-13.77658	11.27051
4.53346	-13.75461	11.27051
4.53768	-13.75461	11.27051
4.54190	-13.75461	11.27051
4.54729	-13.75461	11.27051
4.55159	-13.75461	11.27051
4.55588	-13.77658	11.27051
4.56025	-13.75461	11.27051
4.56502	-13.75461	11.27051
4.56932	-13.75461	11.27051
4.57363	-13.75461	11.27051
4.57943	-13.75461	11.27051
4.58408	-13.77658	11.27051
4.58839	-13.77658	11.27051
4.59272	-13.75461	11.27051
4.59694	-13.77658	11.27051
4.60110	-13.77658	11.27051
4.60525	-13.75461	11.27051
4.60982	-13.77658	11.27051
4.61464	-13.77658	11.27051
4.61895	-13.77658	11.27051
4.62325	-13.79855	11.27051
4.62748	-13.79855	11.27051
4.63163	-13.79855	11.27051
4.63578	-13.82052	11.27051
4.64003	-13.82052	11.27051
4.64425	-13.82052	11.27051
4.64841	-13.82052	11.27051
4.65257	-13.82052	11.27051
4.65672	-13.84250	11.27051
4.66087	-13.84250	11.27051
4.66502	-13.84250	11.27051
4.66918	-13.86447	11.27051
4.67341	-13.86447	11.27051
4.67762	-13.86447	11.27051
4.68178	-13.88644	11.27051
4.68593	-13.88644	11.27051
4.69008	-13.88644	11.27051
4.69423	-13.90841	11.27051
4.69838	-13.93039	11.27051
4.70263	-13.93039	11.27051
4.70681	-13.93039	11.27051
4.71105	-13.95236	11.27051
4.71522	-13.95236	11.27051
4.71937	-13.97433	11.27051
4.72352	-13.97433	11.27051
4.72767	-13.97433	11.27051
4.73204	-13.99631	11.27051
4.73622	-14.01828	11.27051
4.74038	-14.01828	11.27051
4.74453	-14.04025	11.27051
4.74868	-14.04025	11.27051
4.75282	-14.06222	11.27051
4.75696	-14.06222	11.27051
4.76116	-14.06222	11.27051
4.76539	-14.08420	11.27051
4.76954	-14.10617	11.27051
4.77369	-14.12814	11.27051
4.77783	-14.12814	11.27051
4.78197	-14.15011	11.27051
4.78611	-14.15011	11.27051
4.79025	-14.17209	11.27051
4.79450	-14.19406	11.27051
4.79867	-14.19406	11.27051
4.80281	-14.21603	11.27051
4.80695	-14.21603	11.27051
4.81120	-14.23800	11.27051
4.81588	-14.25998	11.27051
4.82013	-14.25998	11.27051
4.82470	-14.28195	11.27051
4.82895	-14.30392	11.27051
4.83312	-14.30392	11.27051
4.83728	-14.32589	11.27051
4.84143	-14.32589	11.27051
4.84622	-14.34787	11.27051
4.85051	-14.36984	11.27051
4.85493	-14.39181	11.27051
4.85927	-14.41379	11.27051
4.86346	-14.43576	11.27051
4.86761	-14.43576	11.27051
4.87175	-14.45773	11.27051
4.87590	-14.47970	11.27051
4.88005	-14.47970	11.27051
4.88442	-14.50168	11.27051
4.88863	-14.50168	11.27051
4.89279	-14.52365	11.27051
4.89694	-14.54562	11.27051
4.90109	-14.56759	11.27051
4.90523	-14.58957	11.27051
4.90937	-14.61154	11.27051
4.91365	-14.61154	11.27051
4.91787	-14.63351	11.27051
4.92203	-14.65548	11.27051
4.92622	-14.67746	11.27051
4.93038	-14.69943	11.27051
4.93452	-14.72140	11.27051
4.93867	-14.72140	11.27051
4.94284	-14.72140	11.27051
4.94708	-14.76535	11.27051
4.95127	-14.76535	11.27051
4.95542	-14.80929	11.27051
4.95958	-14.80929	11.27051
4.96373	-14.83127	11.27051
4.96788	-14.83127	11.27051
4.97202	-14.85324	11.27051
4.97635	-14.87521	11.27051
4.98053	-14.89718	11.27051
4.98467	-14.91916	11.27051
4.98882	-14.91916	11.27051
4.99297	-14.94113	11.27051
4.99712	-14.96310	11.27051
5.00126	-14.98507	11.27051
5.00562	-15.00705	11.27051
5.00980	-15.02902	11.27051
5.01403	-15.05099	11.27051
5.01817	-15.05099	11.27051
5.02233	-15.07297	11.27051
5.02649	-15.09494	11.27051
5.03063	-15.11691	11.27051
5.03486	-15.13888	11.27051
5.03908	-15.13888	11.27051
5.04325	-15.16086	11.27051
5.04740	-15.18283	11.27051
5.05155	-15.20480	11.27051
5.05569	-15.22677	11.27051
5.05985	-15.24875	11.27051
5.06400	-15.27072	11.27051
5.06825	-15.27072	11.27051
5.07242	-15.29269	11.27051
5.07657	-15.31466	11.27051
5.08071	-15.33664	11.27051
5.08485	-15.35861	11.27051
5.08900	-15.35861	11.27051
5.09314	-15.38058	11.27051
5.09739	-15.40256	11.27051
5.10156	-15.42453	11.27051
5.10570	-15.44650	11.27051
5.10985	-15.46847	11.27051
5.11406	-15.49045	11.27051
5.11820	-15.49045	11.27051
5.12234	-15.51242	11.27051
5.12653	-15.53439	11.27051
5.13074	-15.55636	11.27051
5.13491	-15.57834	11.27051
5.13905	-15.57834	11.27051
5.14320	-15.60031	11.27051
5.14735	-15.62228	11.27051
5.15149	-15.64425	11.27051
5.15563	-15.66623	11.27051
5.15986	-15.66623	11.27051
5.16407	-15.68820	11.27051
5.16825	-15.71017	11.27051
5.17244	-15.73214	11.27051
5.17663	-15.75412	11.27051
5.18083	-15.77609	11.27051
5.18502	-15.79806	11.27051
5.18931	-15.79806	11.27051
5.19357	-15.82004	11.27051
5.19778	-15.84201	11.27051
5.20197	-15.86398	11.27051
5.20616	-15.88595	11.27051
5.21035	-15.90793	11.27051
5.21466	-15.90793	11.27051
5.21894	-15.92990	11.27051
5.22319	-15.95187	11.27051
5.22744	-15.97384	11.27051
5.23163	-15.99582	11.27051
5.23582	-16.01779	11.27051
5.24000	-16.03976	11.27051
5.24420	-16.03976	11.27051
5.24850	-16.06173	11.27051
5.25275	-16.08371	11.27051
5.25696	-16.10568	11.27051
5.26118	-16.12765	11.27051
5.26537	-16.14963	11.27051
5.26956	-16.14963	11.27051
5.27374	-16.14963	11.27051
5.27794	-16.17160	11.27051
5.28223	-16.19357	11.27051
5.28644	-16.23752	11.27051
5.29063	-16.25949	11.27051
5.29484	-16.25949	11.27051
5.29903	-16.25949	11.27051
5.30323	-16.30343	11.27051
5.30742	-16.30343	11.27051
5.31173	-16.32541	11.27051
5.31606	-16.34738	11.27051
5.32025	-16.36935	11.27051
5.32445	-16.36935	11.27051
5.32865	-16.39132	11.27051
5.33284	-16.41330	11.27051
5.33703	-16.43527	11.27051
5.34132	-16.45724	11.27051
5.34558	-16.47922	11.27051
5.34978	-16.50119	11.27051
5.35401	-16.50119	11.27051
5.35821	-16.50119	11.27051
5.36241	-16.52316	11.27051
5.36659	-16.54513	11.27051
5.37092	-16.56711	11.27051
5.37520	-16.58908	11.27051
5.37945	-16.58908	11.27051
5.38364	-16.61105	11.27051
5.38783	-16.63302	11.27051
5.39202	-16.65500	11.27051
5.39622	-16.67697	11.27051
5.40041	-16.67697	11.27051
5.40471	-16.67697	11.27051
5.40899	-16.69894	11.27051
5.41320	-16.72091	11.27051
5.41750	-16.74289	11.27051
5.42170	-16.76486	11.27051
5.42592	-16.76486	11.27051
5.43012	-16.76486	11.27051
5.43442	-16.78683	11.27051
5.43867	-16.80881	11.27051
5.44293	-16.83078	11.27051
5.44713	-16.85275	11.27051
5.45131	-16.85275	11.27051
5.45550	-16.85275	11.27051
5.45970	-16.89670	11.27051
5.46398	-16.89670	11.27051
5.46824	-16.91867	11.27051
5.47244	-16.94064	11.27051
5.47665	-16.94064	11.27051
5.48084	-16.96261	11.27051
5.48503	-16.96261	11.27051
5.48922	-16.96261	11.27051
5.49354	-17.00656	11.27051
5.49780	-17.00656	11.27051
5.50203	-17.02853	11.27051
5.50623	-17.02853	11.27051
5.51042	-17.02853	11.27051
5.51461	-17.05050	11.27051
5.51891	-17.07248	11.27051
5.52310	-17.09445	11.27051
5.52741	-17.09445	11.27051
5.53164	-17.11642	11.27051
5.53584	-17.11642	11.27051
5.54002	-17.11642	11.27051
5.54422	-17.13839	11.27051
5.54842	-17.13839	11.27051
5.55260	-17.18234	11.27051
5.55689	-17.18234	11.27051
5.56115	-17.18234	11.27051
5.56536	-17.18234	11.27051
5.56955	-17.22629	11.27051
5.57375	-17.22629	11.27051
5.57794	-17.24826	11.27051
5.58214	-17.24826	11.27051
5.58643	-17.24826	11.27051
5.59066	-17.24826	11.27051
5.59490	-17.27023	11.27051
5.59911	-17.29220	11.27051
5.60330	-17.29220	11.27051
5.60749	-17.29220	11.27051
5.61169	-17.31418	11.27051
5.61598	-17.33615	11.27051
5.62033	-17.33615	11.27051
5.62453	-17.33615	11.27051
5.62875	-17.33615	11.27051
5.63294	-17.35812	11.27051
5.63713	-17.38009	11.27051
5.64132	-17.38009	11.27051
5.64552	-17.38009	11.27051
5.64980	-17.38009	11.27051
5.65402	-17.40207	11.27051
5.65821	-17.40207	11.27051
5.66242	-17.42404	11.27051
5.66661	-17.42404	11.27051
5.67080	-17.42404	11.27051
5.67500	-17.42404	11.27051
5.67933	-17.42404	11.27051
5.68355	-17.44601	11.27051
5.68774	-17.44601	11.27051
5.69194	-17.44601	11.27051
5.69614	-17.44601	11.27051
5.70033	-17.46798	11.27051
5.70451	-17.46798	11.27051
5.70885	-17.46798	11.27051
5.71310	-17.46798	11.27051
5.71730	-17.48996	11.27051
5.72160	-17.48996	11.27051
5.72586	-17.51193	11.27051
5.73006	-17.48996	11.27051
5.73425	-17.51193	11.27051
5.73853	-17.48996	11.27051
5.74287	-17.51193	11.27051
5.74708	-17.51193	11.27051
5.75128	-17.51193	11.27051
5.75547	-17.51193	11.27051
5.75967	-17.53390	11.27051
5.76386	-17.51193	11.27051
5.76804	-17.53390	11.27051
5.77234	-17.53390	11.27051
5.77658	-17.53390	11.27051
5.78078	-17.53390	11.27051
5.78496	-17.53390	11.27051
5.78916	-17.53390	11.27051
5.79336	-17.53390	11.27051
5.79754	-17.53390	11.27051
5.80183	-17.53390	11.27051
5.80608	-17.53390	11.27051
5.81030	-17.55588	11.27051
5.81449	-17.55588	11.27051
5.81868	-17.55588	11.27051
5.82298	-17.53390	11.27051
5.82719	-17.55588	11.27051
5.83148	-17.55588	11.27051
5.83573	-17.53390	11.27051
5.83994	-17.53390	11.27051
5.84414	-17.55588	11.27051
5.84833	-17.53390	11.27051
5.85252	-17.55588	11.27051
5.85670	-17.55588	11.27051
5.86099	-17.53390	11.27051
5.86526	-17.55588	11.27051
5.86946	-17.55588	11.27051
5.87365	-17.53390	11.27051
5.87783	-17.55588	11.27051
5.88202	-17.53390	11.27051
5.88620	-17.53390	11.27051
5.89038	-17.53390	11.27051
5.89467	-17.53390	11.27051
5.89889	-17.55588	11.27051
5.90307	-17.53390	11.27051
5.90726	-17.53390	11.27051
5.91145	-17.51193	11.27051
5.91563	-17.53390	11.27051
5.91982	-17.51193	11.27051
5.92435	-17.51193	11.27051
5.92857	-17.51193	11.27051
5.93276	-17.51193	11.27051
5.93695	-17.51193	11.27051
5.94114	-17.51193	11.27051
5.94533	-17.51193	11.27051
5.94954	-17.51193	11.27051
5.95384	-17.48996	11.27051
5.95808	-17.48996	11.27051
5.96231	-17.48996	11.27051
5.96650	-17.48996	11.27051
5.97069	-17.46798	11.27051
5.97487	-17.48996	11.27051
5.97906	-17.44601	11.27051
5.98333	-17.46798	11.27051
5.98762	-17.44601	11.27051
5.99181	-17.44601	11.27051
5.99600	-17.44601	11.27051
6.00018	-17.44601	11.27051
6.00437	-17.42404	11.27051
6.00855	-17.44601	11.27051
6.01273	-17.44601	11.27051
6.01703	-17.42404	11.27051
6.02123	-17.42404	11.27051
6.02552	-17.40207	11.27051
6.02970	-17.40207	11.27051
6.03388	-17.40207	11.27051
6.03806	-17.38009	11.27051
6.04225	-17.38009	11.27051
6.04668	-17.38009	11.27051
6.05088	-17.38009	11.27051
6.05507	-17.35812	11.27051
6.05941	-17.35812	11.27051
6.06361	-17.33615	11.27051
6.06780	-17.33615	11.27051
6.07199	-17.33615	11.27051
6.07627	-17.33615	11.27051
6.08053	-17.33615	11.27051
6.08473	-17.31418	11.27051
6.08891	-17.29220	11.27051
6.09310	-17.29220	11.27051
6.09728	-17.29220	11.27051
6.10147	-17.29220	11.27051
6.10571	-17.29220	11.27051
6.10997	-17.27023	11.27051
6.11418	-17.27023	11.27051
6.11837	-17.24826	11.27051
6.12255	-17.24826	11.27051
6.12690	-17.22629	11.27051
6.13166	-17.22629	11.27051
6.13644	-17.20431	11.27051
6.14089	-17.20431	11.27051
6.14527	-17.18234	11.27051
6.14961	-17.18234	11.27051
6.15381	-17.18234	11.27051
6.15800	-17.18234	11.27051
6.16219	-17.16037	11.27051
6.16639	-17.16037	11.27051
6.17075	-17.13839	11.27051
6.17497	-17.13839	11.27051
6.17921	-17.11642	11.27051
6.18340	-17.11642	11.27051
6.18758	-17.11642	11.27051
6.19176	-17.09445	11.27051
6.19594	-17.09445	11.27051
6.20032	-17.09445	11.27051
6.20456	-17.07248	11.27051
6.20882	-17.07248	11.27051
6.21301	-17.07248	11.27051
6.21720	-17.05050	11.27051
6.22141	-17.02853	11.27051
6.22562	-17.02853	11.27051
6.23007	-17.00656	11.27051
6.23429	-17.00656	11.27051
6.23848	-17.00656	11.27051
6.24268	-16.98459	11.27051
6.24687	-16.98459	11.27051
6.25105	-16.96261	11.27051
6.25524	-16.94064	11.27051
6.25949	-16.94064	11.27051
6.26375	-16.94064	11.27051
6.26795	-16.91867	11.27051
6.27214	-16.91867	11.27051
6.27633	-16.89670	11.27051
6.28052	-16.89670	11.27051
6.28471	-16.87472	11.27051
6.28891	-16.85275	11.27051
6.29320	-16.85275	11.27051
6.29742	-16.85275	11.27051
6.30164	-16.83078	11.27051
6.30636	-16.83078	11.27051
6.31076	-16.80881	11.27051
6.31501	-16.78683	11.27051
6.31930	-16.78683	11.27051
6.32362	-16.78683	11.27051
6.32789	-16.76486	11.27051
6.33220	-16.76486	11.27051
6.33639	-16.74289	11.27051
6.34058	-16.72091	11.27051
6.34478	-16.72091	11.27051
6.34897	-16.69894	11.27051
6.35340	-16.69894	11.27051
6.35763	-16.69894	11.27051
6.36182	-16.65500	11.27051
6.36600	-16.65500	11.27051
6.37019	-16.63302	11.27051
6.37437	-16.63302	11.27051
6.37855	-16.63302	11.27051
6.38281	-16.61105	11.27051
6.38706	-16.58908	11.27051
6.39126	-16.58908	11.27051
6.39545	-16.56711	11.27051
6.39963	-16.54513	11.27051
6.40382	-16.54513	11.27051
6.40800	-16.54513	11.27051
6.41234	-16.52316	11.27051
6.41665	-16.50119	11.27051
6.42086	-16.50119	11.27051
6.42505	-16.47922	11.27051
6.42924	-16.47922	11.27051
6.43353	-16.45724	11.27051
6.43771	-16.43527	11.27051
6.44189	-16.43527	11.27051
6.44619	-16.41330	11.27051
6.45039	-16.39132	11.27051
6.45458	-16.39132	11.27051
6.45876	-16.36935	11.27051
6.46294	-16.36935	11.27051
6.46712	-16.34738	11.27051
6.47130	-16.32541	11.27051
6.47573	-16.32541	11.27051
6.47998	-16.32541	11.27051
6.48417	-16.28146	11.27051
6.48837	-16.28146	11.27051
6.49256	-16.25949	11.27051
6.49676	-16.25949	11.27051
6.50095	-16.23752	11.27051
6.50524	-16.21554	11.27051
6.50950	-16.21554	11.27051
6.51371	-16.21554	11.27051
6.51790	-16.19357	11.27051
6.52209	-16.17160	11.27051
6.52628	-16.14963	11.27051
6.53047	-16.14963	11.27051
6.53482	-16.14963	11.27051
6.53908	-16.12765	11.27051
6.54330	-16.10568	11.27051
6.54750	-16.10568	11.27051
6.55169	-16.08371	11.27051
6.55588	-16.06173	11.27051
6.56006	-16.06173	11.27051
6.56425	-16.06173	11.27051
6.56854	-16.03976	11.27051
6.57275	-16.01779	11.27051
6.57695	-15.99582	11.27051
6.58115	-15.99582	11.27051
6.58533	-15.97384	11.27051
6.58952	-15.97384	11.27051
6.59371	-15.95187	11.27051
6.59811	-15.95187	11.27051
6.60233	-15.92990	11.27051
6.60652	-15.90793	11.27051
6.61071	-15.90793	11.27051
6.61490	-15.90793	11.27051
6.61908	-15.88595	11.27051
6.62328	-15.88595	11.27051
6.62759	-15.86398	11.27051
6.63185	-15.86398	11.27051
6.63615	-15.84201	11.27051
6.64034	-15.82004	11.27051
6.64453	-15.82004	11.27051
6.64872	-15.82004	11.27051
6.65291	-15.79806	11.27051
6.65714	-15.79806	11.27051
6.66144	-15.77609	11.27051
6.66565	-15.77609	11.27051
6.66985	-15.77609	11.27051
6.67404	-15.73214	11.27051
6.67824	-15.75412	11.27051
6.68244	-15.71017	11.27051
6.68663	-15.71017	11.27051
6.69093	-15.71017	11.27051
6.69515	-15.68820	11.27051
6.69931	-15.68820	11.27051
6.70350	-15.68820	11.27051
6.70769	-15.66623	11.27051
6.71188	-15.66623	11.27051
6.71607	-15.64425	11.27051
6.72046	-15.64425	11.27051
6.72468	-15.64425	11.27051
6.72887	-15.62228	11.27051
6.73307	-15.62228	11.27051
6.73737	-15.60031	11.27051
6.74156	-15.60031	11.27051
6.74575	-15.60031	11.27051
6.75005	-15.60031	11.27051
6.75431	-15.57834	11.27051
6.75851	-15.57834	11.27051
6.76271	-15.57834	11.27051
6.76690	-15.55636	11.27051
6.77109	-15.55636	11.27051
6.77529	-15.55636	11.27051
6.77953	-15.53439	11.27051
6.78380	-15.53439	11.27051
6.78801	-15.53439	11.27051
6.79220	-15.53439	11.27051
6.79639	-15.53439	11.27051
6.80058	-15.51242	11.27051
6.80477	-15.51242	11.27051
6.80896	-15.51242	11.27051
6.81325	-15.49045	11.27051
6.81746	-15.49045	11.27051
6.82165	-15.51242	11.27051
6.82584	-15.51242	11.27051
6.83003	-15.49045	11.27051
6.83422	-15.49045	11.27051
6.83853	-15.46847	11.27051
6.84292	-15.46847	11.27051
6.84714	-15.46847	11.27051
6.85131	-15.46847	11.27051
6.85550	-15.46847	11.27051
6.85971	-15.46847	11.27051
6.86391	-15.44650	11.27051
6.86810	-15.44650	11.27051
6.87240	-15.44650	11.27051
6.87666	-15.44650	11.27051
6.88087	-15.44650	11.27051
6.88507	-15.44650	11.27051
6.88926	-15.44650	11.27051
6.89345	-15.44650	11.27051
6.89764	-15.44650	11.27051
6.90187	-15.44650	11.27051
6.90614	-15.44650	11.27051
6.91035	-15.44650	11.27051
6.91455	-15.44650	11.27051
6.91874	-15.44650	11.27051
6.92293	-15.42453	11.27051
6.92712	-15.44650	11.27051
6.93130	-15.44650	11.27051
6.93559	-15.44650	11.27051
6.93992	-15.42453	11.27051
6.94411	-15.44650	11.27051
6.94830	-15.42453	11.27051
6.95249	-15.44650	11.27051
6.95668	-15.44650	11.27051
6.96090	-15.44650	11.27051
6.96536	-15.44650	11.27051
6.96959	-15.42453	11.27051
6.97379	-15.44650	11.27051
6.97799	-15.44650	11.27051
6.98219	-15.42453	11.27051
6.98639	-15.42453	11.27051
6.99063	-15.44650	11.27051
6.99496	-15.44650	11.27051
6.99923	-15.44650	11.27051
7.00344	-15.44650	11.27051
7.00763	-15.44650	11.27051
7.01182	-15.44650	11.27051
7.01601	-15.44650	11.27051
7.02020	-15.44650	11.27051
7.02445	-15.44650	11.27051
7.02872	-15.44650	11.27051
7.03293	-15.44650	11.27051
7.03712	-15.44650	11.27051
7.04142	-15.46847	11.27051
7.04561	-15.44650	11.27051
7.04980	-15.46847	11.27051
7.05401	-15.46847	11.27051
7.05836	-15.46847	11.27051
7.06259	-15.46847	11.27051
7.06679	-15.46847	11.27051
7.07098	-15.46847	11.27051
7.07518	-15.46847	11.27051
7.07938	-15.49045	11.27051
7.08356	-15.49045	11.27051
7.08798	-15.49045	11.27051
7.09220	-15.49045	11.27051
7.09639	-15.51242	11.27051
7.10058	-15.49045	11.27051
7.10477	-15.51242	11.27051
7.10896	-15.51242	11.27051
7.11315	-15.53439	11.27051
7.11748	-15.53439	11.27051
7.12175	-15.53439	11.27051
7.12595	-15.53439	11.27051
7.13014	-15.53439	11.27051
7.13546	-15.53439	11.27051
7.14144	-15.55636	11.27051
7.14605	-15.55636	11.27051
7.15045	-15.55636	11.27051
7.15490	-15.55636	11.27051
7.15926	-15.57834	11.27051
7.16350	-15.57834	11.27051
7.16770	-15.57834	11.27051
7.17190	-15.57834	11.27051
7.17610	-15.60031	11.27051
7.18054	-15.60031	11.27051
7.18476	-15.62228	11.27051
7.18899	-15.62228	11.27051
7.19318	-15.62228	11.27051
7.19737	-15.62228	11.27051
7.20155	-15.62228	11.27051
7.20573	-15.62228	11.27051
7.21015	-15.64425	11.27051
7.21436	-15.64425	11.27051
7.21854	-15.66623	11.27051
7.22273	-15.66623	11.27051
7.22691	-15.66623	11.27051
7.23110	-15.68820	11.27051
7.23529	-15.68820	11.27051
7.23962	-15.68820	11.27051
7.24387	-15.68820	11.27051
7.24817	-15.71017	11.27051
7.25236	-15.71017	11.27051
7.25654	-15.73214	11.27051
7.26073	-15.73214	11.27051
7.26500	-15.73214	11.27051
7.26933	-15.73214	11.27051
7.27366	-15.75412	11.27051
7.27797	-15.75412	11.27051
7.28220	-15.75412	11.27051
7.28639	-15.75412	11.27051
7.29060	-15.77609	11.27051
7.29479	-15.79806	11.27051
7.29897	-15.79806	11.27051
7.30329	-15.79806	11.27051
7.30751	-15.79806	11.27051
7.31170	-15.82004	11.27051
7.31588	-15.82004	11.27051
7.32007	-15.84201	11.27051
7.32425	-15.84201	11.27051
7.32844	-15.86398	11.27051
7.33283	-15.86398	11.27051
7.33706	-15.86398	11.27051
7.34125	-15.86398	11.27051
7.34544	-15.88595	11.27051
7.34975	-15.88595	11.27051
7.35394	-15.90793	11.27051
7.35813	-15.90793	11.27051
7.36245	-15.90793	11.27051
7.36671	-15.90793	11.27051
7.37092	-15.92990	11.27051
7.37513	-15.92990	11.27051
7.37932	-15.95187	11.27051
7.38351	-15.95187	11.27051
7.38770	-15.95187	11.27051
7.39198	-15.97384	11.27051
7.39625	-15.97384	11.27051
7.40046	-15.99582	11.27051
7.40465	-15.99582	11.27051
7.40885	-16.01779	11.27051
7.41310	-16.01779	11.27051
7.41734	-16.01779	11.27051
7.42153	-16.03976	11.27051
7.42584	-16.03976	11.27051
7.43005	-16.06173	11.27051
7.43424	-16.06173	11.27051
7.43843	-16.06173	11.27051
7.44261	-16.08371	11.27051
7.44680	-16.08371	11.27051
7.45108	-16.10568	11.27051
7.45549	-16.10568	11.27051
7.45972	-16.12765	11.27051
7.46393	-16.12765	11.27051
7.46813	-16.12765	11.27051
7.47232	-16.14963	11.27051
7.47651	-16.14963	11.27051
7.48070	-16.17160	11.27051
7.48501	-16.19357	11.27051
7.48928	-16.19357	11.27051
7.49349	-16.19357	11.27051
7.49768	-16.21554	11.27051
7.50187	-16.21554	11.27051
7.50606	-16.21554	11.27051
7.51055	-16.23752	11.27051
7.51546	-16.25949	11.27051
7.51976	-16.25949	11.27051
7.52398	-16.25949	11.27051
7.52822	-16.25949	11.27051
7.53242	-16.30343	11.27051
7.53662	-16.30343	11.27051
7.54082	-16.30343	11.27051
7.54502	-16.32541	11.27051
7.54937	-16.34738	11.27051
7.55368	-16.34738	11.27051
7.55789	-16.34738	11.27051
7.56210	-16.36935	11.27051
7.56630	-16.36935	11.27051
7.57049	-16.39132	11.27051
7.57469	-16.39132	11.27051
7.57920	-16.41330	11.27051
7.58342	-16.41330	11.27051
7.58761	-16.43527	11.27051
7.59180	-16.43527	11.27051
7.59598	-16.43527	11.27051
7.60017	-16.47922	11.27051
7.60435	-16.47922	11.27051
7.60862	-16.47922	11.27051
7.61288	-16.47922	11.27051
7.61708	-16.50119	11.27051
7.62126	-16.52316	11.27051
7.62545	-16.52316	11.27051
7.62963	-16.54513	11.27051
7.63382	-16.54513	11.27051
7.63806	-16.56711	11.27051
7.64232	-16.56711	11.27051
7.64659	-16.58908	11.27051
7.65082	-16.61105	11.27051
7.65514	-16.61105	11.27051
7.65931	-16.63302	11.27051
7.66350	-16.63302	11.27051
7.66769	-16.63302	11.27051
7.67201	-16.65500	11.27051
7.67630	-16.65500	11.27051
7.68053	-16.67697	11.27051
7.68474	-16.69894	11.27051
7.68894	-16.69894	11.27051
7.69313	-16.69894	11.27051
7.69732	-16.72091	11.27051
7.70206	-16.72091	11.27051
7.70631	-16.74289	11.27051
7.71056	-16.74289	11.27051
7.71477	-16.74289	11.27051
7.71898	-16.76486	11.27051
7.72318	-16.76486	11.27051
7.72737	-16.78683	11.27051
7.73163	-16.80881	11.27051
7.73590	-16.80881	11.27051
7.74011	-16.83078	11.27051
7.74430	-16.83078	11.27051
7.74849	-16.83078	11.27051
7.75267	-16.85275	11.27051
7.75696	-16.87472	11.27051
7.76165	-16.87472	11.27051
7.76598	-16.87472	11.27051
7.77050	-16.89670	11.27051
7.77474	-16.89670	11.27051
7.77896	-16.89670	11.27051
7.78318	-16.91867	11.27051
7.78738	-16.91867	11.27051
7.79159	-16.94064	11.27051
7.79596	-16.94064	11.27051
7.80023	-16.96261	11.27051
7.80444	-16.96261	11.27051
7.80867	-16.96261	11.27051
7.81287	-16.96261	11.27051
7.81705	-16.98459	11.27051
7.82124	-16.98459	11.27051
7.82570	-17.00656	11.27051
7.82992	-17.02853	11.27051
7.83411	-17.02853	11.27051
7.83829	-17.02853	11.27051
7.84248	-17.05050	11.27051
7.84667	-17.05050	11.27051
7.85085	-17.05050	11.27051
7.85512	-17.05050	11.27051
7.85951	-17.07248	11.27051
7.86370	-17.07248	11.27051
7.86791	-17.09445	11.27051
7.87210	-17.09445	11.27051
7.87629	-17.11642	11.27051
7.88048	-17.11642	11.27051
7.88478	-17.11642	11.27051
7.88908	-17.11642	11.27051
7.89333	-17.11642	11.27051
7.89752	-17.11642	11.27051
7.90172	-17.13839	11.27051
7.90591	-17.13839	11.27051
7.91009	-17.16037	11.27051
7.91428	-17.16037	11.27051
7.91864	-17.16037	11.27051
7.92285	-17.16037	11.27051
7.92706	-17.18234	11.27051
7.93125	-17.18234	11.27051
7.93544	-17.20431	11.27051
7.93963	-17.20431	11.27051
7.94381	-17.20431	11.27051
7.94836	-17.20431	11.27051
7.95259	-17.20431	11.27051
7.95679	-17.22629	11.27051
7.96109	-17.22629	11.27051
7.96528	-17.22629	11.27051
7.96947	-17.22629	11.27051
7.97366	-17.22629	11.27051
7.97792	-17.24826	11.27051
7.98219	-17.24826	11.27051
7.98639	-17.24826	11.27051
7.99058	-17.24826	11.27051
7.99478	-17.24826	11.27051
7.99896	-17.27023	11.27051
8.00315	-17.27023	11.27051
8.00737	-17.27023	11.27051
8.01165	-17.27023	11.27051
8.01585	-17.27023	11.27051
8.02004	-17.29220	11.27051
8.02422	-17.29220	11.27051
8.02841	-17.29220	11.27051
8.03259	-17.31418	11.27051
8.03677	-17.29220	11.27051
8.04106	-17.31418	11.27051
8.04527	-17.31418	11.27051
8.04957	-17.31418	11.27051
8.05382	-17.31418	11.27051
8.05813	-17.31418	11.27051
8.06244	-17.31418	11.27051
8.06662	-17.31418	11.27051
8.07110	-17.31418	11.27051
8.07533	-17.31418	11.27051
8.07952	-17.31418	11.27051
8.08370	-17.33615	11.27051
8.08789	-17.31418	11.27051
8.09207	-17.33615	11.27051
8.09626	-17.31418	11.27051
8.10052	-17.31418	11.27051
8.10479	-17.33615	11.27051
8.10900	-17.33615	11.27051
8.11319	-17.33615	11.27051
8.11739	-17.33615	11.27051
8.12163	-17.31418	11.27051
8.12586	-17.33615	11.27051
8.13014	-17.33615	11.27051
8.13443	-17.33615	11.27051
8.13863	-17.33615	11.27051
8.14282	-17.33615	11.27051
8.14701	-17.33615	11.27051
8.15121	-17.33615	11.27051
8.15540	-17.33615	11.27051
8.15959	-17.33615	11.27051
8.16400	-17.33615	11.27051
8.16820	-17.33615	11.27051
8.17239	-17.31418	11.27051
8.17658	-17.33615	11.27051
8.18079	-17.33615	11.27051
8.18499	-17.31418	11.27051
8.18918	-17.31418	11.27051
8.19361	-17.29220	11.27051
8.19783	-17.31418	11.27051
8.20202	-17.31418	11.27051
8.20621	-17.31418	11.27051
8.21040	-17.29220	11.27051
8.21459	-17.29220	11.27051
8.21878	-17.29220	11.27051
8.22308	-17.29220	11.27051
8.22736	-17.27023	11.27051
8.23155	-17.27023	11.27051
8.23574	-17.27023	11.27051
8.23993	-17.27023	11.27051
8.24412	-17.27023	11.27051
8.24831	-17.27023	11.27051
8.25255	-17.24826	11.27051
8.25684	-17.24826	11.27051
8.26105	-17.24826	11.27051
8.26535	-17.24826	11.27051
8.26954	-17.22629	11.27051
8.27373	-17.22629	11.27051
8.27793	-17.20431	11.27051
8.28212	-17.20431	11.27051
8.28642	-17.22629	11.27051
8.29063	-17.20431	11.27051
8.29483	-17.20431	11.27051
8.29902	-17.18234	11.27051
8.30323	-17.18234	11.27051
8.30742	-17.18234	11.27051
8.31160	-17.18234	11.27051
8.31603	-17.16037	11.27051
8.32024	-17.16037	11.27051
8.32443	-17.16037	11.27051
8.32862	-17.16037	11.27051
8.33281	-17.13839	11.27051
8.33700	-17.13839	11.27051
8.34119	-17.13839	11.27051
8.34548	-17.11642	11.27051
8.34974	-17.09445	11.27051
8.35414	-17.11642	11.27051
8.35834	-17.09445	11.27051
8.36254	-17.07248	11.27051
8.36684	-17.07248	11.27051
8.37103	-17.07248	11.27051
8.37530	-17.05050	11.27051
8.37959	-17.05050	11.27051
8.38379	-17.05050	11.27051
8.38798	-17.02853	11.27051
8.39217	-17.02853	11.27051
8.39637	-17.02853	11.27051
8.40056	-17.00656	11.27051
8.40475	-17.00656	11.27051
8.40905	-16.98459	11.27051
8.41326	-16.98459	11.27051
8.41745	-16.98459	11.27051
8.42164	-16.96261	11.27051
8.42583	-16.96261	11.27051
8.43002	-16.96261	11.27051
8.43421	-16.94064	11.27051
8.43859	-16.94064	11.27051
8.44281	-16.91867	11.27051
8.44701	-16.91867	11.27051
8.45121	-16.91867	11.27051
8.45540	-16.89670	11.27051
8.45959	-16.89670	11.27051
8.46378	-16.87472	11.27051
8.46822	-16.85275	11.27051
8.47247	-16.85275	11.27051
8.47667	-16.85275	11.27051
8.48086	-16.85275	11.27051
8.48510	-16.83078	11.27051
8.48931	-16.83078	11.27051
8.49350	-16.80881	11.27051
8.49780	-16.80881	11.27051
8.50208	-16.80881	11.27051
8.50629	-16.78683	11.27051
8.51048	-16.78683	11.27051
8.51468	-16.76486	11.27051
8.51887	-16.76486	11.27051
8.52306	-16.74289	11.27051
8.52727	-16.74289	11.27051
8.53157	-16.74289	11.27051
8.53577	-16.74289	11.27051
8.53997	-16.72091	11.27051
8.54416	-16.72091	11.27051
8.54835	-16.69894	11.27051
8.55254	-16.69894	11.27051
8.55673	-16.69894	11.27051
8.56111	-16.69894	11.27051
8.56534	-16.67697	11.27051
8.56964	-16.67697	11.27051
8.57383	-16.65500	11.27051
8.57802	-16.65500	11.27051
8.58221	-16.65500	11.27051
8.58639	-16.63302	11.27051
8.59070	-16.63302	11.27051
8.59495	-16.63302	11.27051
8.59916	-16.61105	11.27051
8.60335	-16.61105	11.27051
8.60754	-16.61105	11.27051
8.61175	-16.58908	11.27051
8.61595	-16.58908	11.27051
8.62021	-16.58908	11.27051
8.62455	-16.56711	11.27051
8.62876	-16.56711	11.27051
8.63296	-16.54513	11.27051
8.63715	-16.54513	11.27051
8.64133	-16.54513	11.27051
8.64552	-16.52316	11.27051
8.64970	-16.52316	11.27051
8.65399	-16.52316	11.27051
8.65821	-16.50119	11.27051
8.66240	-16.50119	11.27051
8.66659	-16.50119	11.27051
8.67088	-16.47922	11.27051
8.67507	-16.47922	11.27051
8.67926	-16.47922	11.27051
8.68365	-16.45724	11.27051
8.68786	-16.45724	11.27051
8.69205	-16.45724	11.27051
8.69623	-16.43527	11.27051
8.70042	-16.43527	11.27051
8.70460	-16.41330	11.27051
8.70878	-16.41330	11.27051
8.71305	-16.41330	11.27051
8.71731	-16.41330	11.27051
8.72151	-16.39132	11.27051
8.72570	-16.39132	11.27051
8.72988	-16.36935	11.27051
8.73407	-16.36935	11.27051
8.73825	-16.36935	11.27051
8.74249	-16.34738	11.27051
8.74675	-16.34738	11.27051
8.75096	-16.34738	11.27051
8.75515	-16.32541	11.27051
8.75931	-16.32541	11.27051
8.76349	-16.32541	11.27051
8.76768	-16.30343	11.27051
8.77197	-16.30343	11.27051
8.77626	-16.28146	11.27051
8.78046	-16.28146	11.27051
8.78464	-16.28146	11.27051
8.78883	-16.28146	11.27051
8.79301	-16.25949	11.27051
8.79719	-16.25949	11.27051
8.80138	-16.25949	11.27051
8.80576	-16.23752	11.27051
8.80999	-16.23752	11.27051
8.81417	-16.23752	11.27051
8.81836	-16.23752	11.27051
8.82254	-16.21554	11.27051
8.82672	-16.21554	11.27051
8.83091	-16.21554	11.27051
8.83526	-16.19357	11.27051
8.83950	-16.19357	11.27051
8.84371	-16.19357	11.27051
8.84789	-16.19357	11.27051
8.85208	-16.19357	11.27051
8.85626	-16.19357	11.27051
8.86045	-16.17160	11.27051
8.86470	-16.17160	11.27051
8.86896	-16.17160	11.27051
8.87327	-16.14963	11.27051
8.87745	-16.14963	11.27051
8.88164	-16.14963	11.27051
8.88582	-16.12765	11.27051
8.89000	-16.14963	11.27051
8.89419	-16.12765	11.27051
8.89847	-16.12765	11.27051
8.90269	-16.12765	11.27051
8.90687	-16.12765	11.27051
8.91106	-16.12765	11.27051
8.91525	-16.10568	11.27051
8.91943	-16.10568	11.27051
8.92362	-16.10568	11.27051
8.92802	-16.10568	11.27051
8.93222	-16.10568	11.27051
8.93641	-16.08371	11.27051
8.94059	-16.08371	11.27051
8.94478	-16.08371	11.27051
8.94896	-16.08371	11.27051
8.95315	-16.08371	11.27051
8.95741	-16.08371	11.27051
8.96165	-16.08371	11.27051
8.96584	-16.06173	11.27051
8.97003	-16.06173	11.27051
8.97432	-16.06173	11.27051
8.97850	-16.06173	11.27051
8.98269	-16.06173	11.27051
8.98693	-16.06173	11.27051
8.99120	-16.06173	11.27051
8.99540	-16.06173	11.27051
8.99960	-16.06173	11.27051
9.00378	-16.03976	11.27051
9.00797	-16.06173	11.27051
9.01215	-16.03976	11.27051
9.01633	-16.03976	11.27051
9.02062	-16.06173	11.27051
9.02483	-16.03976	11.27051
9.02901	-16.03976	11.27051
9.03320	-16.03976	11.27051
9.03738	-16.03976	11.27051
9.04156	-16.03976	11.27051
9.04574	-16.03976	11.27051
9.05013	-16.03976	11.27051
9.05435	-16.03976	11.27051
9.05854	-16.03976	11.27051
9.06273	-16.03976	11.27051
9.06691	-16.03976	11.27051
9.07109	-16.03976	11.27051
9.07539	-16.03976	11.27051
9.07965	-16.03976	11.27051
9.08390	-16.03976	11.27051
9.08809	-16.03976	11.27051
9.09228	-16.06173	11.27051
9.09646	-16.06173	11.27051
9.10065	-16.06173	11.27051
9.10483	-16.06173	11.27051
9.10907	-16.06173	11.27051
9.11333	-16.06173	11.27051
9.11753	-16.06173	11.27051
9.12172	-16.06173	11.27051
9.12590	-16.06173	11.27051
9.13009	-16.06173	11.27051
9.13427	-16.06173	11.27051
9.13845	-16.06173	11.27051
9.14279	-16.08371	11.27051
9.14700	-16.06173	11.27051
9.15120	-16.08371	11.27051
9.15539	-16.08371	11.27051
9.15958	-16.08371	11.27051
9.16377	-16.08371	11.27051
9.16796	-16.08371	11.27051
9.17225	-16.10568	11.27051
9.17661	-16.10568	11.27051
9.18080	-16.10568	11.27051
9.18498	-16.10568	11.27051
9.18917	-16.10568	11.27051
9.19335	-16.10568	11.27051
9.19754	-16.10568	11.27051
9.20182	-16.12765	11.27051
9.20607	-16.12765	11.27051
9.21026	-16.12765	11.27051
9.21446	-16.12765	11.27051
9.21865	-16.12765	11.27051
9.22284	-16.14963	11.27051
9.22702	-16.14963	11.27051
9.23130	-16.14963	11.27051
9.23557	-16.14963	11.27051
9.23978	-16.17160	11.27051
9.24397	-16.17160	11.27051
9.24815	-16.17160	11.27051
9.25234	-16.17160	11.27051
9.25652	-16.19357	11.27051
9.26070	-16.19357	11.27051
9.26499	-16.19357	11.27051
9.26920	-16.19357	11.27051
9.27339	-16.19357	11.27051
9.27769	-16.19357	11.27051
9.28187	-16.21554	11.27051
9.28630	-16.21554	11.27051
9.29051	-16.21554	11.27051
9.29496	-16.21554	11.27051
9.29919	-16.23752	11.27051
9.30338	-16.23752	11.27051
9.30757	-16.23752	11.27051
9.31175	-16.23752	11.27051
9.31594	-16.23752	11.27051
9.32012	-16.23752	11.27051
9.32438	-16.23752	11.27051
9.32864	-16.25949	11.27051
9.33286	-16.25949	11.27051
9.33705	-16.28146	11.27051
9.34125	-16.28146	11.27051
9.34544	-16.28146	11.27051
9.34962	-16.28146	11.27051
9.35389	-16.28146	11.27051
9.35821	-16.30343	11.27051
9.36243	-16.30343	11.27051
9.36662	-16.30343	11.27051
9.37082	-16.30343	11.27051
9.37502	-16.30343	11.27051
9.37934	-16.30343	11.27051
9.38353	-16.32541	11.27051
9.38784	-16.32541	11.27051
9.39207	-16.32541	11.27051
9.39626	-16.32541	11.27051
9.40045	-16.34738	11.27051
9.40470	-16.34738	11.27051
9.40895	-16.34738	11.27051
9.41315	-16.36935	11.27051
9.41761	-16.36935	11.27051
9.42183	-16.36935	11.27051
9.42603	-16.36935	11.27051
9.43023	-16.39132	11.27051
9.43443	-16.39132	11.27051
9.43862	-16.39132	11.27051
9.44281	-16.39132	11.27051
9.44712	-16.39132	11.27051
9.45138	-16.41330	11.27051
9.45558	-16.41330	11.27051
9.45977	-16.41330	11.27051
9.46397	-16.43527	11.27051
9.46815	-16.43527	11.27051
9.47234	-16.43527	11.27051
9.47673	-16.43527	11.27051
9.48113	-16.43527	11.27051
9.48534	-16.45724	11.27051
9.48953	-16.45724	11.27051
9.49372	-16.45724	11.27051
9.49791	-16.45724	11.27051
9.50210	-16.45724	11.27051
9.50628	-16.45724	11.27051
9.51058	-16.47922	11.27051
9.51480	-16.47922	11.27051
9.51899	-16.47922	11.27051
9.52319	-16.50119	11.27051
9.52739	-16.50119	11.27051
9.53158	-16.50119	11.27051
9.53577	-16.50119	11.27051
9.54020	-16.50119	11.27051
9.54442	-16.52316	11.27051
9.54861	-16.52316	11.27051
9.55279	-16.52316	11.27051
9.55697	-16.52316	11.27051
9.56116	-16.52316	11.27051
9.56534	-16.54513	11.27051
9.56961	-16.54513	11.27051
9.57388	-16.54513	11.27051
9.57809	-16.54513	11.27051
9.58239	-16.54513	11.27051
9.58658	-16.54513	11.27051
9.59077	-16.56711	11.27051
9.59496	-16.56711	11.27051
9.59948	-16.56711	11.27051
9.60376	-16.56711	11.27051
9.60807	-16.58908	11.27051
9.61227	-16.58908	11.27051
9.61646	-16.58908	11.27051
9.62065	-16.58908	11.27051
9.62484	-16.58908	11.27051
9.62903	-16.58908	11.27051
9.63332	-16.61105	11.27051
9.63753	-16.61105	11.27051
9.64173	-16.61105	11.27051
9.64593	-16.61105	11.27051
9.65013	-16.61105	11.27051
9.65432	-16.61105	11.27051
9.65851	-16.63302	11.27051
9.66294	-16.63302	11.27051
9.66718	-16.63302	11.27051
9.67137	-16.63302	11.27051
9.67557	-16.63302	11.27051
9.67976	-16.63302	11.27051
9.68406	-16.65500	11.27051
9.68825	-16.65500	11.27051
9.69255	-16.65500	11.27051
9.69680	-16.65500	11.27051
9.70099	-16.65500	11.27051
9.70520	-16.65500	11.27051
9.70938	-16.65500	11.27051
9.71357	-16.67697	11.27051
9.71777	-16.67697	11.27051
9.72200	-16.67697	11.27051
9.72627	-16.67697	11.27051
9.73048	-16.67697	11.27051
9.73467	-16.67697	11.27051
9.73885	-16.67697	11.27051
9.74304	-16.67697	11.27051
9.74724	-16.67697	11.27051
9.75143	-16.67697	11.27051
9.75572	-16.69894	11.27051
9.75993	-16.69894	11.27051
9.76413	-16.69894	11.27051
9.76832	-16.69894	11.27051
9.77250	-16.69894	11.27051
9.77669	-16.69894	11.27051
9.78088	-16.69894	11.27051
9.78537	-16.69894	11.27051
9.78958	-16.69894	11.27051
9.79378	-16.69894	11.27051
9.79797	-16.69894	11.27051
9.80215	-16.69894	11.27051
9.80635	-16.72091	11.27051
9.81054	-16.72091	11.27051
9.81484	-16.72091	11.27051
9.81909	-16.72091	11.27051
9.82330	-16.72091	11.27051
9.82749	-16.72091	11.27051
9.83167	-16.72091	11.27051
9.83585	-16.72091	11.27051
9.84003	-16.72091	11.27051
9.84582	-16.72091	11.27051
9.85019	-16.72091	11.27051
9.85450	-16.72091	11.27051
9.85882	-16.72091	11.27051
9.86306	-16.72091	11.27051
9.86726	-16.72091	11.27051
9.87146	-16.72091	11.27051
9.87575	-16.72091	11.27051
9.88003	-16.72091	11.27051
9.88424	-16.72091	11.27051
9.88858	-16.72091	11.27051
9.89278	-16.72091	11.27051
9.89698	-16.72091	11.27051
9.90117	-16.72091	11.27051
9.90536	-16.72091	11.27051
9.90966	-16.72091	11.27051
9.91388	-16.72091	11.27051
9.91807	-16.72091	11.27051
9.92226	-16.72091	11.27051
9.92645	-16.72091	11.27051
9.93064	-16.72091	11.27051
9.93483	-16.72091	11.27051
9.93924	-16.72091	11.27051
9.94347	-16.72091	11.27051
9.94766	-16.72091	11.27051
9.95186	-16.72091	11.27051
9.95605	-16.72091	11.27051
9.96024	-16.72091	11.27051
9.96443	-16.72091	11.27051
9.96873	-16.72091	11.27051
9.97299	-16.72091	11.27051
9.97724	-16.72091	11.27051
9.98143	-16.69894	11.27051
9.98562	-16.69894	11.27051
9.98993	-16.69894	11.27051
9.99412	-16.72091	11.27051
9.99838	-16.72091	11.27051
10.00273	-16.69894	11.27051
10.00695	-16.69894	11.27051
10.01115	-16.69894	11.27051
10.01531	-16.69894	11.27051
10.01951	-16.69894	11.27051
10.02380	-16.69894	11.27051
10.02802	-16.69894	11.27051
10.03238	-16.69894	11.27051
10.03662	-16.69894	11.27051
10.04084	-16.69894	11.27051
10.04505	-16.69894	11.27051
10.04927	-16.67697	11.27051
10.05347	-16.67697	11.27051
10.05768	-16.67697	11.27051
10.06225	-16.67697	11.27051
10.06649	-16.67697	11.27051
10.07068	-16.67697	11.27051
10.07488	-16.67697	11.27051
10.07907	-16.67697	11.27051
10.08327	-16.65500	11.27051
10.08746	-16.65500	11.27051
10.09185	-16.65500	11.27051
10.09612	-16.65500	11.27051
10.10031	-16.65500	11.27051
10.10450	-16.65500	11.27051
10.10871	-16.65500	11.27051
10.11290	-16.65500	11.27051
10.11708	-16.65500	11.27051
10.12132	-16.65500	11.27051
10.12560	-16.65500	11.27051
10.12980	-16.63302	11.27051
10.13399	-16.63302	11.27051
10.13817	-16.63302	11.27051
10.14236	-16.63302	11.27051
10.14654	-16.63302	11.27051
10.15072	-16.63302	11.27051
10.15501	-16.63302	11.27051
10.15924	-16.63302	11.27051
10.16342	-16.63302	11.27051
10.16761	-16.61105	11.27051
10.17179	-16.61105	11.27051
10.17597	-16.61105	11.27051
10.18016	-16.61105	11.27051
10.18458	-16.61105	11.27051
10.18878	-16.61105	11.27051
10.19308	-16.61105	11.27051
10.19727	-16.61105	11.27051
10.20145	-16.61105	11.27051
10.20563	-16.61105	11.27051
10.20982	-16.58908	11.27051
10.21408	-16.58908	11.27051
10.21834	-16.58908	11.27051
10.22253	-16.58908	11.27051
10.22672	-16.58908	11.27051
10.23091	-16.58908	11.27051
10.23509	-16.58908	11.27051
10.23929	-16.58908	11.27051
10.24354	-16.56711	11.27051
10.24783	-16.58908	11.27051
10.25203	-16.56711	11.27051
10.25621	-16.56711	11.27051
10.26040	-16.56711	11.27051
10.26458	-16.56711	11.27051
10.26876	-16.56711	11.27051
10.27305	-16.56711	11.27051
10.27744	-16.56711	11.27051
10.28176	-16.54513	11.27051
10.28597	-16.54513	11.27051
10.29016	-16.54513	11.27051
10.29448	-16.54513	11.27051
10.29867	-16.54513	11.27051
10.30286	-16.54513	11.27051
10.30716	-16.54513	11.27051
10.31139	-16.54513	11.27051
10.31560	-16.52316	11.27051
10.31981	-16.52316	11.27051
10.32403	-16.52316	11.27051
10.32824	-16.52316	11.27051
10.33245	-16.52316	11.27051
10.33731	-16.52316	11.27051
10.34162	-16.52316	11.27051
10.34583	-16.50119	11.27051
10.35003	-16.50119	11.27051
10.35424	-16.50119	11.27051
10.35845	-16.50119	11.27051
10.36265	-16.50119	11.27051
10.36747	-16.47922	11.27051
10.37177	-16.50119	11.27051
10.37599	-16.47922	11.27051
10.38018	-16.47922	11.27051
10.38437	-16.47922	11.27051
10.38856	-16.47922	11.27051
10.39275	-16.47922	11.27051
10.39705	-16.47922	11.27051
10.40134	-16.45724	11.27051
10.40554	-16.45724	11.27051
10.40973	-16.45724	11.27051
10.41393	-16.45724	11.27051
10.41812	-16.45724	11.27051
10.42241	-16.43527	11.27051
10.42662	-16.43527	11.27051
10.43110	-16.43527	11.27051
10.43629	-16.43527	11.27051
10.44070	-16.41330	11.27051
10.44502	-16.41330	11.27051
10.44949	-16.41330	11.27051
10.45379	-16.41330	11.27051
10.45812	-16.41330	11.27051
10.46271	-16.39132	11.27051
10.46719	-16.39132	11.27051
10.47142	-16.39132	11.27051
10.47572	-16.36935	11.27051
10.47992	-16.36935	11.27051
10.48411	-16.36935	11.27051
10.48830	-16.36935	11.27051
10.49291	-16.34738	11.27051
10.49714	-16.34738	11.27051
10.50145	-16.34738	11.27051
10.50564	-16.34738	11.27051
10.50987	-16.34738	11.27051
10.51410	-16.32541	11.27051
10.51827	-16.32541	11.27051
10.52265	-16.32541	11.27051
10.52692	-16.30343	11.27051
10.53110	-16.30343	11.27051
10.53528	-16.30343	11.27051
10.53945	-16.30343	11.27051
10.54365	-16.30343	11.27051
10.54782	-16.28146	11.27051
10.55206	-16.28146	11.27051
10.55629	-16.28146	11.27051
10.56054	-16.28146	11.27051
10.56472	-16.25949	11.27051
10.56889	-16.25949	11.27051
10.57306	-16.25949	11.27051
10.57731	-16.23752	11.27051
10.58150	-16.23752	11.27051
10.58576	-16.23752	11.27051
10.58997	-16.23752	11.27051
10.59421	-16.21554	11.27051
10.59839	-16.21554	11.27051
10.60266	-16.21554	11.27051
10.60683	-16.21554	11.27051
10.61105	-16.21554	11.27051
10.61534	-16.19357	11.27051
10.61958	-16.19357	11.27051
10.62380	-16.17160	11.27051
10.62803	-16.17160	11.27051
10.63223	-16.14963	11.27051
10.63643	-16.14963	11.27051
10.64065	-16.14963	11.27051
10.64501	-16.14963	11.27051
10.64925	-16.12765	11.27051
10.65347	-16.12765	11.27051
10.65773	-16.12765	11.27051
10.66195	-16.10568	11.27051
10.66615	-16.10568	11.27051
10.67034	-16.10568	11.27051
10.67490	-16.10568	11.27051
10.67920	-16.08371	11.27051
10.68344	-16.08371	11.27051
10.68764	-16.06173	11.27051
10.69189	-16.06173	11.27051
10.69609	-16.06173	11.27051
10.70029	-16.06173	11.27051
10.70460	-16.03976	11.27051
10.70895	-16.03976	11.27051
10.71320	-16.01779	11.27051
10.71740	-16.01779	11.27051
10.72160	-16.01779	11.27051
10.72584	-15.99582	11.27051
10.73004	-15.99582	11.27051
10.73423	-15.99582	11.27051
10.73854	-15.97384	11.27051
10.74283	-15.97384	11.27051
10.74704	-15.95187	11.27051
10.75125	-15.95187	11.27051
10.75544	-15.95187	11.27051
10.75968	-15.95187	11.27051
10.76388	-15.92990	11.27051
10.76819	-15.92990	11.27051
10.77243	-15.90793	11.27051
10.77670	-15.90793	11.27051
10.78094	-15.90793	11.27051
10.78514	-15.88595	11.27051
10.78933	-15.88595	11.27051
10.79359	-15.86398	11.27051
10.79795	-15.86398	11.27051
10.80223	-15.86398	11.27051
10.80655	-15.84201	11.27051
10.81083	-15.84201	11.27051
10.81508	-15.82004	11.27051
10.81930	-15.82004	11.27051
10.82349	-15.82004	11.27051
10.82779	-15.79806	11.27051
10.83208	-15.79806	11.27051
10.83629	-15.79806	11.27051
10.84050	-15.77609	11.27051
10.84479	-15.77609	11.27051
10.84899	-15.75412	11.27051
10.85318	-15.73214	11.27051
10.85740	-15.73214	11.27051
10.86173	-15.73214	11.27051
10.86595	-15.71017	11.27051
10.87015	-15.71017	11.27051
10.87441	-15.71017	11.27051
10.87869	-15.68820	11.27051
10.88290	-15.66623	11.27051
10.88709	-15.66623	11.27051
10.89169	-15.66623	11.27051
10.89599	-15.64425	11.27051
10.90021	-15.64425	11.27051
10.90441	-15.62228	11.27051
10.90884	-15.62228	11.27051
10.91306	-15.60031	11.27051
10.91726	-15.60031	11.27051
10.92154	-15.60031	11.27051
10.92586	-15.57834	11.27051
10.93008	-15.57834	11.27051
10.93428	-15.55636	11.27051
10.93848	-15.55636	11.27051
10.94275	-15.53439	11.27051
10.94696	-15.53439	11.27051
10.95116	-15.53439	11.27051
10.95542	-15.51242	11.27051
10.95972	-15.51242	11.27051
10.96397	-15.49045	11.27051
10.96818	-15.46847	11.27051
10.97237	-15.46847	11.27051
10.97666	-15.46847	11.27051
10.98087	-15.44650	11.27051
10.98517	-15.44650	11.27051
10.98943	-15.42453	11.27051
10.99372	-15.42453	11.27051
10.99793	-15.40256	11.27051
11.00213	-15.40256	11.27051
11.00634	-15.38058	11.27051
11.01076	-15.38058	11.27051
11.01508	-15.35861	11.27051
11.01938	-15.35861	11.27051
11.02359	-15.33664	11.27051
11.02786	-15.33664	11.27051
11.03208	-15.33664	11.27051
11.03631	-15.31466	11.27051
11.04056	-15.29269	11.27051
11.04638	-15.29269	11.27051
11.05065	-15.27072	11.27051
11.05494	-15.27072	11.27051
11.05929	-15.24875	11.27051
11.06353	-15.24875	11.27051
11.06775	-15.24875	11.27051
11.07196	-15.22677	11.27051
11.07723	-15.22677	11.27051
11.08149	-15.20480	11.27051
11.08577	-15.18283	11.27051
11.09000	-15.18283	11.27051
11.09431	-15.18283	11.27051
11.09854	-15.16086	11.27051
11.10276	-15.16086	11.27051
11.10782	-15.13888	11.27051
11.11214	-15.13888	11.27051
11.11651	-15.11691	11.27051
11.12071	-15.11691	11.27051
11.12500	-15.11691	11.27051
11.12922	-15.09494	11.27051
11.13341	-15.09494	11.27051
11.13768	-15.09494	11.27051
11.14204	-15.07297	11.27051
11.14625	-15.07297	11.27051
11.15044	-15.05099	11.27051
11.15462	-15.05099	11.27051
11.15890	-15.05099	11.27051
11.16311	-15.02902	11.27051
11.16741	-15.02902	11.27051
11.17168	-15.02902	11.27051
11.17598	-15.00705	11.27051
11.18019	-15.00705	11.27051
11.18438	-15.00705	11.27051
11.18857	-15.00705	11.27051
11.19285	-14.98507	11.27051
11.19706	-14.98507	11.27051
11.20134	-14.98507	11.27051
11.20554	-14.96310	11.27051
11.20983	-14.96310	11.27051
11.21403	-14.96310	11.27051
11.21835	-14.94113	11.27051
11.22254	-14.94113	11.27051
11.22683	-14.94113	11.27051
11.23114	-14.94113	11.27051
11.23534	-14.94113	11.27051
11.23954	-14.94113	11.27051
11.24383	-14.91916	11.27051
11.24804	-14.91916	11.27051
11.25223	-14.91916	11.27051
11.25642	-14.89718	11.27051
11.26078	-14.91916	11.27051
11.26503	-14.91916	11.27051
11.26925	-14.89718	11.27051
11.27344	-14.89718	11.27051
11.27775	-14.89718	11.27051
11.28198	-14.87521	11.27051
11.28618	-14.89718	11.27051
11.29158	-14.89718	11.27051
11.29592	-14.87521	11.27051
11.30015	-14.87521	11.27051
11.30436	-14.87521	11.27051
11.30871	-14.87521	11.27051
11.31294	-14.87521	11.27051
11.31716	-14.87521	11.27051
11.32311	-14.87521	11.27051
11.32744	-14.87521	11.27051
11.33165	-14.87521	11.27051
11.33585	-14.87521	11.27051
11.34004	-14.87521	11.27051
11.34432	-14.85324	11.27051
11.34853	-14.85324	11.27051
11.35281	-14.85324	11.27051
11.35718	-14.87521	11.27051
11.36147	-14.85324	11.27051
11.36574	-14.87521	11.27051
11.36994	-14.85324	11.27051
11.37427	-14.85324	11.27051
11.37857	-14.85324	11.27051
11.38305	-14.85324	11.27051
11.38740	-14.85324	11.27051
11.39183	-14.85324	11.27051
11.39611	-14.87521	11.27051
11.40033	-14.87521	11.27051
11.40455	-14.87521	11.27051
11.40886	-14.87521	11.27051
11.41309	-14.87521	11.27051
11.41744	-14.87521	11.27051
11.42175	-14.87521	11.27051
11.42619	-14.87521	11.27051
11.43041	-14.89718	11.27051
11.43461	-14.89718	11.27051
11.43882	-14.89718	11.27051
11.44314	-14.89718	11.27051
11.44745	-14.89718	11.27051
11.45175	-14.89718	11.27051
11.45595	-14.89718	11.27051
11.46028	-14.89718	11.27051
11.46450	-14.89718	11.27051
11.46872	-14.89718	11.27051
11.47292	-14.89718	11.27051
11.47737	-14.91916	11.27051
11.48163	-14.91916	11.27051
11.48588	-14.91916	11.27051
11.49008	-14.94113	11.27051
11.49437	-14.94113	11.27051
11.49859	-14.94113	11.27051
11.50280	-14.94113	11.27051
11.50804	-14.94113	11.27051
11.51237	-14.94113	11.27051
11.51662	-14.96310	11.27051
11.52084	-14.96310	11.27051
11.52514	-14.96310	11.27051
11.52951	-14.96310	11.27051
11.53375	-14.96310	11.27051
11.53944	-14.96310	11.27051
11.54377	-14.98507	11.27051
11.54799	-14.98507	11.27051
11.55220	-14.98507	11.27051
11.55642	-15.00705	11.27051
11.56066	-15.00705	11.27051
11.56486	-15.00705	11.27051
11.56920	-15.00705	11.27051
11.57348	-15.00705	11.27051
11.57776	-15.02902	11.27051
11.58197	-15.02902	11.27051
11.58616	-15.02902	11.27051
11.59040	-15.02902	11.27051
11.59463	-15.02902	11.27051
11.59883	-15.05099	11.27051
11.60312	-15.05099	11.27051
11.60747	-15.05099	11.27051
11.61174	-15.07297	11.27051
11.61594	-15.07297	11.27051
11.62014	-15.07297	11.27051
11.62437	-15.07297	11.27051
11.62860	-15.09494	11.27051
11.63302	-15.07297	11.27051
11.63725	-15.09494	11.27051
11.64151	-15.09494	11.27051
11.64573	-15.11691	11.27051
11.64993	-15.11691	11.27051
11.65412	-15.11691	11.27051
11.65836	-15.11691	11.27051
11.66267	-15.11691	11.27051
11.66692	-15.11691	11.27051
11.67112	-15.13888	11.27051
11.67539	-15.13888	11.27051
11.67959	-15.13888	11.27051
11.68378	-15.13888	11.27051
11.68796	-15.13888	11.27051
11.69250	-15.16086	11.27051
11.69680	-15.16086	11.27051
11.70104	-15.18283	11.27051
11.70527	-15.18283	11.27051
11.70964	-15.18283	11.27051
11.71401	-15.18283	11.27051
11.71830	-15.18283	11.27051
11.72254	-15.18283	11.27051
11.72690	-15.20480	11.27051
11.73119	-15.20480	11.27051
11.73567	-15.20480	11.27051
11.73991	-15.20480	11.27051
11.74435	-15.20480	11.27051
11.74868	-15.22677	11.27051
11.75293	-15.22677	11.27051
11.75730	-15.22677	11.27051
11.76219	-15.22677	11.27051
11.76649	-15.24875	11.27051
11.77068	-15.24875	11.27051
11.77569	-15.24875	11.27051
11.77998	-15.24875	11.27051
11.78422	-15.24875	11.27051
11.78843	-15.27072	11.27051
11.79304	-15.27072	11.27051
11.79737	-15.27072	11.27051
11.80171	-15.27072	11.27051
11.80597	-15.27072	11.27051
11.81030	-15.27072	11.27051
11.81481	-15.29269	11.27051
11.81910	-15.29269	11.27051
11.82334	-15.29269	11.27051
11.82787	-15.29269	11.27051
11.83211	-15.29269	11.27051
11.83629	-15.29269	11.27051
11.84073	-15.29269	11.27051
11.84502	-15.29269	11.27051
11.84934	-15.31466	11.27051
11.85359	-15.31466	11.27051
11.85808	-15.31466	11.27051
11.86249	-15.31466	11.27051
11.86667	-15.31466	11.27051
11.87082	-15.31466	11.27051
11.87529	-15.33664	11.27051
11.87955	-15.33664	11.27051
11.88375	-15.33664	11.27051
11.88791	-15.33664	11.27051
11.89267	-15.33664	11.27051
11.89723	-15.33664	11.27051
11.90148	-15.33664	11.27051
11.90573	-15.33664	11.27051
11.91046	-15.35861	11.27051
11.91472	-15.35861	11.27051
11.91889	-15.35861	11.27051
11.92304	-15.35861	11.27051
11.92734	-15.35861	11.27051
11.93154	-15.35861	11.27051
11.93570	-15.35861	11.27051
11.93990	-15.35861	11.27051
11.94454	-15.35861	11.27051
11.94915	-15.38058	11.27051
11.95339	-15.38058	11.27051
11.95805	-15.35861	11.27051
11.96231	-15.35861	11.27051
11.96649	-15.38058	11.27051
11.97064	-15.38058	11.27051
11.97486	-15.35861	11.27051
11.97914	-15.38058	11.27051
11.98333	-15.38058	11.27051
11.98824	-15.38058	11.27051
11.99292	-15.38058	11.27051
11.99721	-15.38058	11.27051
12.00152	-15.38058	11.27051
12.00599	-15.38058	11.27051
12.01044	-15.38058	11.27051
12.01470	-15.38058	11.27051
12.01889	-15.38058	11.27051
12.02431	-15.38058	11.27051
12.02915	-15.38058	11.27051
12.03348	-15.38058	11.27051
12.03793	-15.38058	11.27051
12.04229	-15.38058	11.27051
12.04647	-15.38058	11.27051
12.05069	-15.38058	11.27051
12.05483	-15.38058	11.27051
12.05908	-15.38058	11.27051
12.06412	-15.38058	11.27051
12.06839	-15.38058	11.27051
12.07276	-15.38058	11.27051
12.07726	-15.38058	11.27051
12.08144	-15.38058	11.27051
12.08558	-15.38058	11.27051
12.08972	-15.38058	11.27051
12.09399	-15.38058	11.27051
12.09817	-15.38058	11.27051
12.10232	-15.38058	11.27051
12.10646	-15.38058	11.27051
12.11069	-15.38058	11.27051
12.11484	-15.38058	11.27051
12.11898	-15.38058	11.27051
12.12321	-15.35861	11.27051
12.12745	-15.35861	11.27051
12.13161	-15.38058	11.27051
12.13576	-15.38058	11.27051
12.13991	-15.38058	11.27051
12.14406	-15.38058	11.27051
12.14820	-15.38058	11.27051
12.15241	-15.38058	11.27051
12.15667	-15.38058	11.27051
12.16087	-15.35861	11.27051
12.16502	-15.35861	11.27051
12.16916	-15.35861	11.27051
12.17331	-15.35861	11.27051
12.17746	-15.35861	11.27051
12.18160	-15.35861	11.27051
12.18585	-15.35861	11.27051
12.19003	-15.35861	11.27051
12.19419	-15.35861	11.27051
12.19833	-15.35861	11.27051
12.20248	-15.35861	11.27051
12.20662	-15.35861	11.27051
12.21076	-15.35861	11.27051
12.21498	-15.35861	11.27051
12.21921	-15.33664	11.27051
12.22339	-15.33664	11.27051
12.22754	-15.35861	11.27051
12.23169	-15.35861	11.27051
12.23583	-15.33664	11.27051
12.23997	-15.33664	11.27051
12.24411	-15.33664	11.27051
12.24835	-15.33664	11.27051
12.25259	-15.33664	11.27051
12.25674	-15.33664	11.27051
12.26088	-15.33664	11.27051
12.26503	-15.33664	11.27051
12.26917	-15.33664	11.27051
12.27331	-15.33664	11.27051
12.27758	-15.33664	11.27051
12.28175	-15.33664	11.27051
12.28590	-15.33664	11.27051
12.29004	-15.31466	11.27051
12.29419	-15.33664	11.27051
12.29833	-15.31466	11.27051
12.30247	-15.31466	11.27051
12.30666	-15.33664	11.27051
12.31088	-15.33664	11.27051
12.31504	-15.31466	11.27051
12.31920	-15.31466	11.27051
12.32334	-15.33664	11.27051
12.32749	-15.33664	11.27051
12.33163	-15.33664	11.27051
12.33577	-15.31466	11.27051
12.34001	-15.31466	11.27051
12.34417	-15.31466	11.27051
12.34832	-15.33664	11.27051
12.35246	-15.33664	11.27051
12.35668	-15.31466	11.27051
12.36082	-15.31466	11.27051
12.36496	-15.31466	11.27051
12.36921	-15.31466	11.27051
12.37339	-15.31466	11.27051
12.37754	-15.31466	11.27051
12.38168	-15.31466	11.27051
12.38582	-15.31466	11.27051
12.39001	-15.31466	11.27051
12.39415	-15.31466	11.27051
12.39835	-15.31466	11.27051
12.40257	-15.31466	11.27051
12.40674	-15.33664	11.27051
12.41089	-15.31466	11.27051
12.41503	-15.31466	11.27051
12.41919	-15.31466	11.27051
12.42333	-15.31466	11.27051
12.42747	-15.33664	11.27051
12.43171	-15.31466	11.27051
12.43588	-15.31466	11.27051
12.44003	-15.31466	11.27051
12.44417	-15.31466	11.27051
12.44831	-15.31466	11.27051
12.45245	-15.31466	11.27051
12.45660	-15.31466	11.27051
12.46099	-15.31466	11.27051
12.46517	-15.31466	11.27051
12.46932	-15.33664	11.27051
12.47346	-15.31466	11.27051
12.47761	-15.31466	11.27051
12.48175	-15.33664	11.27051
12.48589	-15.33664	11.27051
12.49008	-15.33664	11.27051
12.49429	-15.33664	11.27051
12.49845	-15.33664	11.27051
12.50259	-15.33664	11.27051
12.50674	-15.33664	11.27051
12.51088	-15.33664	11.27051
12.51503	-15.33664	11.27051
12.51918	-15.33664	11.27051
12.52343	-15.33664	11.27051
12.52765	-15.33664	11.27051
12.53181	-15.33664	11.27051
12.53596	-15.33664	11.27051
12.54011	-15.33664	11.27051
12.54427	-15.33664	11.27051
12.54841	-15.33664	11.27051
12.55265	-15.33664	11.27051
12.55697	-15.35861	11.27051
12.56129	-15.35861	11.27051
12.56545	-15.35861	11.27051
12.56959	-15.35861	11.27051
12.57380	-15.35861	11.27051
12.57797	-15.35861	11.27051
12.58216	-15.35861	11.27051
12.58634	-15.35861	11.27051
12.59060	-15.35861	11.27051
12.59477	-15.35861	11.27051
12.59892	-15.35861	11.27051
12.60307	-15.38058	11.27051
12.60725	-15.35861	11.27051
12.61140	-15.35861	11.27051
12.61563	-15.35861	11.27051
12.61980	-15.38058	11.27051
12.62407	-15.38058	11.27051
12.62823	-15.38058	11.27051
12.63238	-15.38058	11.27051
12.63652	-15.38058	11.27051
12.64070	-15.38058	11.27051
12.64494	-15.38058	11.27051
12.64911	-15.38058	11.27051
12.65326	-15.38058	11.27051
12.65746	-15.38058	11.27051
12.66169	-15.38058	11.27051
12.66583	-15.38058	11.27051
12.66997	-15.40256	11.27051
12.67444	-15.40256	11.27051
12.67865	-15.40256	11.27051
12.68283	-15.40256	11.27051
12.68699	-15.40256	11.27051
12.69121	-15.40256	11.27051
12.69537	-15.40256	11.27051
12.69953	-15.40256	11.27051
12.70491	-15.42453	11.27051
12.70918	-15.42453	11.27051
12.71336	-15.40256	11.27051
12.71752	-15.42453	11.27051
12.72167	-15.42453	11.27051
12.72586	-15.42453	11.27051
12.73003	-15.42453	11.27051
12.73537	-15.42453	11.27051
12.73958	-15.42453	11.27051
12.74380	-15.42453	11.27051
12.74797	-15.42453	11.27051
12.75213	-15.44650	11.27051
12.75629	-15.44650	11.27051
12.76048	-15.44650	11.27051
12.76590	-15.44650	11.27051
12.77010	-15.44650	11.27051
12.77433	-15.44650	11.27051
12.77850	-15.44650	11.27051
12.78266	-15.44650	11.27051
12.78683	-15.44650	11.27051
12.79102	-15.44650	11.27051
12.79641	-15.44650	11.27051
12.80062	-15.46847	11.27051
12.80479	-15.46847	11.27051
12.80900	-15.46847	11.27051
12.81316	-15.46847	11.27051
12.81732	-15.46847	11.27051
12.82148	-15.46847	11.27051
12.82675	-15.46847	11.27051
12.83097	-15.46847	11.27051
12.83515	-15.46847	11.27051
12.83927	-15.46847	11.27051
12.84345	-15.46847	11.27051
12.84760	-15.46847	11.27051
12.85174	-15.46847	11.27051
12.85596	-15.49045	11.27051
12.86025	-15.49045	11.27051
12.86443	-15.49045	11.27051
12.86864	-15.49045	11.27051
12.87280	-15.49045	11.27051
12.87702	-15.49045	11.27051
12.88117	-15.49045	11.27051
12.88531	-15.49045	11.27051
12.88958	-15.49045	11.27051
12.89385	-15.49045	11.27051
12.89801	-15.51242	11.27051
12.90216	-15.51242	11.27051
12.90655	-15.51242	11.27051
12.91074	-15.51242	11.27051
12.91490	-15.51242	11.27051
12.91921	-15.51242	11.27051
12.92361	-15.51242	11.27051
12.92781	-15.51242	11.27051
12.93196	-15.53439	11.27051
12.93611	-15.51242	11.27051
12.94029	-15.51242	11.27051
12.94446	-15.53439	11.27051
12.94878	-15.53439	11.27051
12.95296	-15.53439	11.27051
12.95720	-15.53439	11.27051
12.96137	-15.53439	11.27051
12.96551	-15.53439	11.27051
12.96974	-15.53439	11.27051
12.97392	-15.53439	11.27051
12.97815	-15.53439	11.27051
12.98237	-15.53439	11.27051
12.98652	-15.53439	11.27051
12.99072	-15.55636	11.27051
12.99487	-15.55636	11.27051
12.99901	-15.53439	11.27051
13.00316	-15.53439	11.27051
13.00729	-15.55636	11.27051
13.01153	-15.55636	11.27051
13.01570	-15.55636	11.27051
13.01984	-15.55636	11.27051
13.02402	-15.55636	11.27051
13.02817	-15.55636	11.27051
13.03232	-15.55636	11.27051
13.03646	-15.55636	11.27051
13.04084	-15.55636	11.27051
13.04504	-15.55636	11.27051
13.04921	-15.55636	11.27051
13.05336	-15.55636	11.27051
13.05758	-15.55636	11.27051
13.06178	-15.55636	11.27051
13.06594	-15.55636	11.27051
13.07049	-15.55636	11.27051
13.07478	-15.55636	11.27051
13.07896	-15.55636	11.27051
13.08312	-15.57834	11.27051
13.08726	-15.55636	11.27051
13.09149	-15.57834	11.27051
13.09565	-15.57834	11.27051
13.09986	-15.57834	11.27051
13.10407	-15.57834	11.27051
13.10833	-15.57834	11.27051
13.11249	-15.57834	11.27051
13.11664	-15.57834	11.27051
13.12079	-15.57834	11.27051
13.12500	-15.57834	11.27051
13.12916	-15.57834	11.27051
13.13339	-15.57834	11.27051
13.13756	-15.57834	11.27051
13.14179	-15.57834	11.27051
13.14595	-15.57834	11.27051
13.15010	-15.57834	11.27051
13.15425	-15.57834	11.27051
13.15845	-15.57834	11.27051
13.16271	-15.57834	11.27051
13.16689	-15.57834	11.27051
13.17112	-15.57834	11.27051
13.17534	-15.57834	11.27051
13.17950	-15.57834	11.27051
13.18365	-15.57834	11.27051
13.18780	-15.60031	11.27051
13.19236	-15.57834	11.27051
13.19656	-15.57834	11.27051
13.20070	-15.60031	11.27051
13.20485	-15.60031	11.27051
13.20909	-15.57834	11.27051
13.21326	-15.60031	11.27051
13.21741	-15.57834	11.27051
13.22159	-15.57834	11.27051
13.22589	-15.57834	11.27051
13.23007	-15.60031	11.27051
13.23424	-15.60031	11.27051
13.23839	-15.60031	11.27051
13.24259	-15.60031	11.27051
13.24676	-15.60031	11.27051
13.25092	-15.60031	11.27051
13.25522	-15.60031	11.27051
13.25948	-15.60031	11.27051
13.26366	-15.60031	11.27051
13.26782	-15.60031	11.27051
13.27209	-15.60031	11.27051
13.27628	-15.60031	11.27051
13.28046	-15.60031	11.27051
13.28475	-15.60031	11.27051
13.28896	-15.60031	11.27051
13.29320	-15.60031	11.27051
13.29736	-15.60031	11.27051
13.30152	-15.60031	11.27051
13.30567	-15.60031	11.27051
13.30987	-15.60031	11.27051
13.31432	-15.60031	11.27051
13.31856	-15.60031	11.27051
13.32272	-15.60031	11.27051
13.32693	-15.60031	11.27051
13.33110	-15.60031	11.27051
13.33526	-15.60031	11.27051
13.33942	-15.60031	11.27051
13.34470	-15.60031	11.27051
13.34892	-15.60031	11.27051
13.35309	-15.60031	11.27051
13.35730	-15.60031	11.27051
13.36147	-15.60031	11.27051
13.36563	-15.60031	11.27051
13.36978	-15.60031	11.27051
13.37473	-15.60031	11.27051
13.37896	-15.60031	11.27051
13.38313	-15.60031	11.27051
13.38726	-15.60031	11.27051
13.39151	-15.60031	11.27051
13.39567	-15.60031	11.27051
13.39982	-15.60031	11.27051
13.40396	-15.60031	11.27051
13.40828	-15.60031	11.27051
13.41245	-15.60031	11.27051
13.41660	-15.60031	11.27051
13.42074	-15.60031	11.27051
13.42498	-15.60031	11.27051
13.42914	-15.60031	11.27051
13.43328	-15.60031	11.27051
13.43754	-15.60031	11.27051
13.44180	-15.60031	11.27051
13.44596	-15.60031	11.27051
13.45011	-15.60031	11.27051
13.45425	-15.60031	11.27051
13.45848	-15.60031	11.27051
13.46264	-15.60031	11.27051
13.46706	-15.60031	11.27051
13.47124	-15.60031	11.27051
13.47556	-15.60031	11.27051
13.47972	-15.60031	11.27051
13.48386	-15.60031	11.27051
13.48800	-15.60031	11.27051
13.49223	-15.60031	11.27051
13.49646	-15.60031	11.27051
13.50069	-15.57834	11.27051
13.50485	-15.57834	11.27051
13.50910	-15.60031	11.27051
13.51326	-15.57834	11.27051
13.51740	-15.60031	11.27051
13.52155	-15.60031	11.27051
13.52573	-15.57834	11.27051
13.52998	-15.57834	11.27051
13.53416	-15.57834	11.27051
13.53831	-15.57834	11.27051
13.54249	-15.60031	11.27051
13.54664	-15.60031	11.27051
13.55078	-15.57834	11.27051
13.55493	-15.60031	11.27051
13.55925	-15.60031	11.27051
13.56343	-15.60031	11.27051
13.56757	-15.60031	11.27051
13.57171	-15.60031	11.27051
13.57594	-15.60031	11.27051
13.58009	-15.60031	11.27051
13.58423	-15.57834	11.27051
13.58895	-15.60031	11.27051
13.59316	-15.60031	11.27051
13.59731	-15.60031	11.27051
13.60145	-15.60031	11.27051
13.60559	-15.60031	11.27051
13.60975	-15.60031	11.27051
13.61390	-15.60031	11.27051
13.61810	-15.60031	11.27051
13.62236	-15.60031	11.27051
13.62656	-15.60031	11.27051
13.63074	-15.60031	11.27051
13.63490	-15.60031	11.27051
13.63906	-15.60031	11.27051
13.64322	-15.60031	11.27051
13.64736	-15.60031	11.27051
13.65162	-15.62228	11.27051
13.65581	-15.60031	11.27051
13.65999	-15.60031	11.27051
13.66415	-15.60031	11.27051
13.66830	-15.60031	11.27051
13.67245	-15.60031	11.27051
13.67667	-15.62228	11.27051
13.68093	-15.60031	11.27051
13.68513	-15.62228	11.27051
13.68930	-15.62228	11.27051
13.69346	-15.62228	11.27051
13.69762	-15.62228	11.27051
13.70176	-15.62228	11.27051
13.70591	-15.62228	11.27051
13.71010	-15.62228	11.27051
13.71432	-15.62228	11.27051
13.71850	-15.62228	11.27051
13.72268	-15.62228	11.27051
13.72683	-15.62228	11.27051
13.73098	-15.62228	11.27051
13.73513	-15.62228	11.27051
13.73926	-15.62228	11.27051
13.74351	-15.62228	11.27051
13.74770	-15.62228	11.27051
13.75187	-15.62228	11.27051
13.75604	-15.62228	11.27051
13.76019	-15.62228	11.27051
13.76434	-15.64425	11.27051
13.76848	-15.64425	11.27051
13.77276	-15.64425	11.27051
13.77703	-15.64425	11.27051
13.78119	-15.64425	11.27051
13.78534	-15.64425	11.27051
13.78948	-15.64425	11.27051
13.79362	-15.64425	11.27051
13.79777	-15.64425	11.27051
13.80204	-15.64425	11.27051
13.80623	-15.64425	11.27051
13.81038	-15.64425	11.27051
13.81452	-15.66623	11.27051
13.81866	-15.66623	11.27051
13.82281	-15.66623	11.27051
13.82695	-15.66623	11.27051
13.83109	-15.66623	11.27051
13.83535	-15.66623	11.27051
13.83952	-15.66623	11.27051
13.84366	-15.66623	11.27051
13.84781	-15.66623	11.27051
13.85195	-15.66623	11.27051
13.85609	-15.68820	11.27051
13.86023	-15.68820	11.27051
13.86448	-15.68820	11.27051
13.86864	-15.68820	11.27051
13.87280	-15.68820	11.27051
13.87695	-15.68820	11.27051
13.88117	-15.68820	11.27051
13.88531	-15.68820	11.27051
13.88945	-15.68820	11.27051
13.89366	-15.68820	11.27051
13.89788	-15.68820	11.27051
13.90204	-15.71017	11.27051
13.90618	-15.68820	11.27051
13.91033	-15.71017	11.27051
13.91447	-15.71017	11.27051
13.91861	-15.68820	11.27051
13.92275	-15.71017	11.27051
13.92700	-15.71017	11.27051
13.93116	-15.73214	11.27051
13.93526	-15.73214	11.27051
13.93941	-15.73214	11.27051
13.94355	-15.73214	11.27051
13.94769	-15.73214	11.27051
13.95183	-15.73214	11.27051
13.95612	-15.73214	11.27051
13.96031	-15.73214	11.27051
13.96446	-15.73214	11.27051
13.96860	-15.75412	11.27051
13.97275	-15.73214	11.27051
13.97690	-15.73214	11.27051
13.98105	-15.75412	11.27051
13.98526	-15.75412	11.27051
13.98951	-15.75412	11.27051
13.99367	-15.75412	11.27051
13.99782	-15.77609	11.27051
14.00196	-15.75412	11.27051
14.00610	-15.77609	11.27051
14.01024	-15.77609	11.27051
14.01438	-15.77609	11.27051
14.01863	-15.77609	11.27051
14.02280	-15.77609	11.27051
14.02695	-15.77609	11.27051
14.03109	-15.77609	11.27051
14.03524	-15.77609	11.27051
14.03938	-15.77609	11.27051
14.04352	-15.79806	11.27051
14.04772	-15.77609	11.27051
14.05194	-15.79806	11.27051
14.05610	-15.79806	11.27051
14.06030	-15.79806	11.27051
14.06445	-15.79806	11.27051
14.06859	-15.79806	11.27051
14.07275	-15.79806	11.27051
14.07690	-15.82004	11.27051
14.08116	-15.79806	11.27051
14.08539	-15.82004	11.27051
14.08955	-15.82004	11.27051
14.09370	-15.82004	11.27051
14.09785	-15.82004	11.27051
14.10199	-15.84201	11.27051
14.10613	-15.82004	11.27051
14.11039	-15.82004	11.27051
14.11456	-15.82004	11.27051
14.11871	-15.82004	11.27051
14.12287	-15.84201	11.27051
14.12711	-15.84201	11.27051
14.13128	-15.84201	11.27051
14.13542	-15.84201	11.27051
14.13977	-15.84201	11.27051
14.14396	-15.84201	11.27051
14.14811	-15.86398	11.27051
14.15225	-15.86398	11.27051
14.15641	-15.86398	11.27051
14.16056	-15.86398	11.27051
14.16471	-15.86398	11.27051
14.16890	-15.86398	11.27051
14.17321	-15.86398	11.27051
14.17739	-15.86398	11.27051
14.18153	-15.86398	11.27051
14.18574	-15.88595	11.27051
14.18989	-15.88595	11.27051
14.19403	-15.88595	11.27051
14.19817	-15.88595	11.27051
14.20242	-15.88595	11.27051
14.20659	-15.90793	11.27051
14.21074	-15.90793	11.27051
14.21489	-15.90793	11.27051
14.21903	-15.90793	11.27051
14.22318	-15.90793	11.27051
14.22732	-15.90793	11.27051
14.23156	-15.92990	11.27051
14.23573	-15.90793	11.27051
14.23988	-15.90793	11.27051
14.24402	-15.92990	11.27051
14.24816	-15.92990	11.27051
14.25231	-15.92990	11.27051
14.25645	-15.92990	11.27051
14.26063	-15.92990	11.27051
14.26484	-15.95187	11.27051
14.26900	-15.95187	11.27051
14.27316	-15.95187	11.27051
14.27731	-15.95187	11.27051
14.28145	-15.95187	11.27051
14.28560	-15.97384	11.27051
14.28981	-15.97384	11.27051
14.29404	-15.97384	11.27051
14.29821	-15.97384	11.27051
14.30236	-15.97384	11.27051
14.30651	-15.99582	11.27051
14.31065	-15.99582	11.27051
14.31479	-15.99582	11.27051
14.31894	-15.99582	11.27051
14.32320	-15.99582	11.27051
14.32739	-15.99582	11.27051
14.33154	-16.01779	11.27051
14.33568	-16.01779	11.27051
14.33983	-16.01779	11.27051
14.34397	-16.01779	11.27051
14.34811	-16.01779	11.27051
14.35226	-16.01779	11.27051
14.35650	-16.03976	11.27051
14.36066	-16.03976	11.27051
14.36481	-16.03976	11.27051
14.36895	-16.03976	11.27051
14.37310	-16.03976	11.27051
14.37725	-16.06173	11.27051
14.38139	-16.06173	11.27051
14.38563	-16.06173	11.27051
14.38988	-16.06173	11.27051
14.39403	-16.06173	11.27051
14.39818	-16.08371	11.27051
14.40232	-16.08371	11.27051
14.40646	-16.08371	11.27051
14.41060	-16.08371	11.27051
14.41479	-16.08371	11.27051
14.41900	-16.10568	11.27051
14.42318	-16.10568	11.27051
14.42733	-16.10568	11.27051
14.43147	-16.10568	11.27051
14.43561	-16.12765	11.27051
14.43975	-16.12765	11.27051
14.44390	-16.12765	11.27051
14.44813	-16.12765	11.27051
14.45230	-16.12765	11.27051
14.45644	-16.14963	11.27051
14.46059	-16.14963	11.27051
14.46473	-16.14963	11.27051
14.46887	-16.14963	11.27051
14.47302	-16.14963	11.27051
14.47729	-16.17160	11.27051
14.48148	-16.17160	11.27051
14.48563	-16.17160	11.27051
14.48977	-16.17160	11.27051
14.49398	-16.17160	11.27051
14.49812	-16.17160	11.27051
14.50227	-16.19357	11.27051
14.50646	-16.19357	11.27051
14.51067	-16.19357	11.27051
14.51483	-16.19357	11.27051
14.51897	-16.19357	11.27051
14.52312	-16.21554	11.27051
14.52726	-16.21554	11.27051
14.53140	-16.21554	11.27051
14.53555	-16.21554	11.27051
14.53978	-16.21554	11.27051
14.54395	-16.21554	11.27051
14.54810	-16.23752	11.27051
14.55224	-16.23752	11.27051
14.55638	-16.23752	11.27051
14.56053	-16.23752	11.27051
14.56467	-16.23752	11.27051
14.56895	-16.23752	11.27051
14.57316	-16.23752	11.27051
14.57732	-16.23752	11.27051
14.58146	-16.25949	11.27051
14.58560	-16.25949	11.27051
14.58974	-16.25949	11.27051
14.59389	-16.25949	11.27051
14.59810	-16.25949	11.27051
14.60234	-16.25949	11.27051
14.60652	-16.25949	11.27051
14.61067	-16.28146	11.27051
14.61481	-16.28146	11.27051
14.61895	-16.28146	11.27051
14.62309	-16.28146	11.27051
14.62724	-16.28146	11.27051
14.63149	-16.28146	11.27051
14.63566	-16.30343	11.27051
14.63981	-16.30343	11.27051
14.64395	-16.30343	11.27051
14.64810	-16.30343	11.27051
14.65224	-16.30343	11.27051
14.65638	-16.30343	11.27051
14.66057	-16.30343	11.27051
14.66480	-16.32541	11.27051
14.66896	-16.32541	11.27051
14.67312	-16.32541	11.27051
14.67726	-16.32541	11.27051
14.68141	-16.32541	11.27051
14.68556	-16.32541	11.27051
14.68970	-16.32541	11.27051
14.69394	-16.34738	11.27051
14.69818	-16.34738	11.27051
14.70232	-16.34738	11.27051
14.70647	-16.34738	11.27051
14.71061	-16.34738	11.27051
14.71475	-16.34738	11.27051
14.71889	-16.34738	11.27051
14.72314	-16.34738	11.27051
14.72729	-16.34738	11.27051
14.73144	-16.36935	11.27051
14.73558	-16.34738	11.27051
14.73972	-16.36935	11.27051
14.74387	-16.36935	11.27051
14.74801	-16.36935	11.27051
14.75220	-16.36935	11.27051
14.75642	-16.36935	11.27051
14.76057	-16.36935	11.27051
14.76472	-16.39132	11.27051
14.76886	-16.36935	11.27051
14.77302	-16.39132	11.27051
14.77717	-16.39132	11.27051
14.78131	-16.39132	11.27051
14.78555	-16.39132	11.27051
14.78975	-16.39132	11.27051
14.79390	-16.39132	11.27051
14.79805	-16.39132	11.27051
14.80226	-16.39132	11.27051
14.80640	-16.39132	11.27051
14.81054	-16.39132	11.27051
14.81478	-16.39132	11.27051
14.81895	-16.39132	11.27051
14.82310	-16.39132	11.27051
14.82725	-16.39132	11.27051
14.83140	-16.39132	11.27051
14.83554	-16.39132	11.27051
14.83968	-16.39132	11.27051
14.84386	-16.39132	11.27051
14.84808	-16.39132	11.27051
14.85223	-16.39132	11.27051
14.85638	-16.39132	11.27051
14.86053	-16.39132	11.27051
14.86467	-16.39132	11.27051
14.86881	-16.39132	11.27051
14.87296	-16.39132	11.27051
14.87720	-16.39132	11.27051
14.88138	-16.39132	11.27051
14.88553	-16.39132	11.27051
14.88968	-16.39132	11.27051
14.89382	-16.39132	11.27051
14.89797	-16.39132	11.27051
14.90212	-16.36935	11.27051
14.90651	-16.39132	11.27051
14.91070	-16.39132	11.27051
14.91485	-16.36935	11.27051
14.91900	-16.39132	11.27051
14.92315	-16.39132	11.27051
14.92727	-16.36935	11.27051
14.93141	-16.36935	11.27051
14.93556	-16.36935	11.27051
14.93980	-16.36935	11.27051
14.94397	-16.36935	11.27051
14.94812	-16.36935	11.27051
14.95226	-16.36935	11.27051
14.95641	-16.36935	11.27051
14.96055	-16.34738	11.27051
14.96470	-16.36935	11.27051
14.96909	-16.36935	11.27051
14.97329	-16.36935	11.27051
14.97745	-16.34738	11.27051
14.98160	-16.34738	11.27051
14.98574	-16.34738	11.27051
14.98989	-16.34738	11.27051
14.99403	-16.32541	11.27051
14.99831	-16.32541	11.27051
15.00282	-16.32541	-4.29274
15.00688	-16.32541	-4.29274
15.01094	-16.32541	-4.29274
15.01499	-16.30343	-4.29274
15.01905	-16.30343	-4.29274
15.02310	-16.30343	-4.29274
15.02716	-16.30343	-4.29274
15.03118	-16.30343	-4.29274
15.03523	-16.30343	-4.29274
15.03929	-16.30343	-4.29274
15.04334	-16.28146	-4.29274
15.04740	-16.28146	-4.29274
15.05145	-16.28146	-4.29274
15.05551	-16.25949	-4.29274
15.05957	-16.25949	-4.29274
15.06362	-16.25949	-4.29274
15.06768	-16.25949	-4.29274
15.07173	-16.23752	-4.29274
15.07579	-16.23752	-4.29274
15.07985	-16.21554	-4.29274
15.08390	-16.21554	-4.29274
15.08796	-16.21554	-4.29274
15.09201	-16.19357	-4.29274
15.09607	-16.17160	-4.29274
15.10012	-16.17160	-4.29274
15.10435	-16.12765	-4.29274
15.10840	-16.12765	-4.29274
15.11246	-16.12765	-4.29274
15.11651	-16.10568	-4.29274
15.12057	-16.08371	-4.29274
15.12462	-16.03976	-4.29274
15.12868	-16.03976	-4.29274
15.13274	-16.01779	-4.29274
15.13679	-15.99582	-4.29274
15.14085	-15.97384	-4.29274
15.14490	-15.92990	-4.29274
15.14896	-15.92990	-4.29274
15.15301	-15.88595	-4.29274
15.15706	-15.86398	-4.29274
15.16112	-15.82004	-4.29274
15.16517	-15.79806	-4.29274
15.16923	-15.75412	-4.29274
15.17329	-15.75412	-4.29274
15.17734	-15.71017	-4.29274
15.18140	-15.66623	-4.29274
15.18545	-15.62228	-4.29274
15.18950	-15.62228	-4.29274
15.19356	-15.57834	-4.29274
15.19761	-15.51242	-4.29274
15.20167	-15.46847	-4.29274
15.20590	-15.40256	-4.29274
15.20996	-15.35861	-4.29274
15.21401	-15.35861	-4.29274
15.21807	-15.31466	-4.29274
15.22212	-15.24875	-4.29274
15.22618	-15.18283	-4.29274
15.23023	-15.11691	-4.29274
15.23429	-15.11691	-4.29274
15.23835	-15.05099	-4.29274
15.24241	-14.98507	-4.29274
15.24646	-14.89718	-4.29274
15.25052	-14.85324	-4.29274
15.25457	-14.78732	-4.29274
15.25863	-14.78732	-4.29274
15.26268	-14.67746	-4.29274
15.26674	-14.61154	-4.29274
15.27079	-14.52365	-4.29274
15.27485	-14.43576	-4.29274
15.27890	-14.43576	-4.29274
15.28296	-14.34787	-4.29274
15.28701	-14.25998	-4.29274
15.29106	-14.19406	-4.29274
15.29512	-14.10617	-4.29274
15.29917	-14.10617	-4.29274
15.30322	-14.01828	-4.29274
15.30747	-13.90841	-4.29274
15.31152	-13.82052	-4.29274
15.31558	-13.71066	-4.29274
15.31963	-13.71066	-4.29274
15.32368	-13.60080	-4.29274
15.32774	-13.51291	-4.29274
15.33179	-13.40304	-4.29274
15.33585	-13.31515	-4.29274
15.33991	-13.20529	-4.29274
15.34396	-13.20529	-4.29274
15.34802	-13.07345	-4.29274
15.35207	-12.96359	-4.29274
15.35613	-12.85373	-4.29274
15.36018	-12.72189	-4.29274
15.36423	-12.72189	-4.29274
15.36829	-12.61203	-4.29274
15.37235	-12.48019	-4.29274
15.37640	-12.37033	-4.29274
15.38046	-12.23849	-4.29274
15.38451	-12.23849	-4.29274
15.38856	-12.10666	-4.29274
15.39262	-11.97482	-4.29274
15.39667	-11.84298	-4.29274
15.40073	-11.71115	-4.29274
15.40478	-11.71115	-4.29274
15.40903	-11.55734	-4.29274
15.41308	-11.42550	-4.29274
15.41714	-11.29367	-4.29274
15.42119	-11.16183	-4.29274
15.42525	-11.03000	-4.29274
15.42930	-11.03000	-4.29274
15.43335	-10.87619	-4.29274
15.43741	-10.72238	-4.29274
15.44147	-10.56857	-4.29274
15.44552	-10.56857	-4.29274
15.44958	-10.41476	-4.29274
15.45363	-10.26095	-4.29274
15.45768	-10.10714	-4.29274
15.46174	-9.97531	-4.29274
15.46579	-9.82150	-4.29274
15.46985	-9.82150	-4.29274
15.47390	-9.66769	-4.29274
15.47796	-9.49191	-4.29274
15.48202	-9.33810	-4.29274
15.48607	-9.16232	-4.29274
15.49012	-9.16232	-4.29274
15.49418	-8.98654	-4.29274
15.49823	-8.83273	-4.29274
15.50229	-8.65695	-4.29274
15.50634	-8.52511	-4.29274
15.51058	-8.34933	-4.29274
15.51463	-8.34933	-4.29274
15.51869	-8.17355	-4.29274
15.52274	-7.97580	-4.29274
15.52680	-7.80002	-4.29274
15.53085	-7.62423	-4.29274
15.53490	-7.62423	-4.29274
15.53896	-7.44845	-4.29274
15.54302	-7.27267	-4.29274
15.54707	-7.11886	-4.29274
15.55113	-6.92111	-4.29274
15.55517	-6.92111	-4.29274
15.55922	-6.74533	-4.29274
15.56328	-6.54757	-4.29274
15.56733	-6.37179	-4.29274
15.57139	-6.17404	-4.29274
15.57544	-6.17404	-4.29274
15.57950	-5.97629	-4.29274
15.58355	-5.80050	-4.29274
15.58761	-5.60275	-4.29274
15.59166	-5.44894	-4.29274
15.59572	-5.25119	-4.29274
15.59977	-5.25119	-4.29274
15.60382	-5.05343	-4.29274
15.60788	-4.85568	-4.29274
15.61212	-4.65793	-4.29274
15.61617	-4.43820	-4.29274
15.62023	-4.43820	-4.29274
15.62428	-4.24045	-4.29274
15.62834	-4.04269	-4.29274
15.63239	-3.84494	-4.29274
15.63645	-3.62521	-4.29274
15.64050	-3.62521	-4.29274
15.64456	-3.42746	-4.29274
15.64861	-3.20773	-4.29274
15.65267	-3.00998	-4.29274
15.65672	-2.79025	-4.29274
15.66078	-2.79025	-4.29274
15.66483	-2.59250	-4.29274
15.66889	-2.37277	-4.29274
15.67294	-2.17502	-4.29274
15.67700	-1.99923	-4.29274
15.68105	-1.99923	-4.29274
15.68511	-1.77951	-4.29274
15.68916	-1.58175	-4.29274
15.69322	-1.36203	-4.29274
15.69727	-1.14230	-4.29274
15.70133	-1.14230	-4.29274
15.70538	-0.94455	-4.29274
15.70944	-0.72482	-4.29274
15.71367	-0.50509	-4.29274
15.71773	-0.32931	-4.29274
15.72178	-0.10959	-4.29274
15.72584	-0.10959	-4.29274
15.72989	0.08817	-4.29274
15.73395	0.32987	-4.29274
15.73800	0.52762	-4.29274
15.74206	0.76932	-4.29274
15.74611	0.76932	-4.29274
15.75017	0.96707	-4.29274
15.75422	1.20877	-4.29274
15.75828	1.40653	-4.29274
15.76233	1.60428	-4.29274
15.76639	1.82401	-4.29274
15.77044	1.82401	-4.29274
15.77450	2.04373	-4.29274
15.77855	2.26346	-4.29274
15.78261	2.48319	-4.29274
15.78666	2.48319	-4.29274
15.79072	2.70291	-4.29274
15.79477	2.92264	-4.29274
15.79882	3.14237	-4.29274
15.80288	3.31815	-4.29274
15.80693	3.53787	-4.29274
15.81099	3.53787	-4.29274
15.81523	3.75760	-4.29274
15.81929	3.97733	-4.29274
15.82334	4.19705	-4.29274
15.82740	4.41678	-4.29274
15.83145	4.41678	-4.29274
15.83551	4.63651	-4.29274
15.83956	4.85623	-4.29274
15.84362	5.07596	-4.29274
15.84767	5.25174	-4.29274
15.85173	5.47147	-4.29274
15.85578	5.47147	-4.29274
15.85984	5.69119	-4.29274
15.86389	5.91092	-4.29274
15.86795	6.13065	-4.29274
15.87200	6.32840	-4.29274
15.87606	6.32840	-4.29274
15.88011	6.54813	-4.29274
15.88417	6.76786	-4.29274
15.88822	6.98758	-4.29274
15.89228	7.18534	-4.29274
15.89633	7.18534	-4.29274
15.90039	7.40506	-4.29274
15.90444	7.62479	-4.29274
15.90850	7.84452	-4.29274
15.91255	7.84452	-4.29274
15.91679	8.04227	-4.29274
15.92084	8.24002	-4.29274
15.92490	8.48172	-4.29274
15.92895	8.67948	-4.29274
15.93301	8.85526	-4.29274
15.93706	8.85526	-4.29274
15.94111	9.05301	-4.29274
15.94517	9.27274	-4.29274
15.94923	9.47049	-4.29274
15.95328	9.66825	-4.29274
15.95734	9.66825	-4.29274
15.96139	9.88797	-4.29274
15.96545	10.08573	-4.29274
15.96950	10.30545	-4.29274
15.97356	10.45926	-4.29274
15.97761	10.65702	-4.29274
15.98167	10.65702	-4.29274
15.98572	10.87674	-4.29274
15.98978	11.07450	-4.29274
15.99383	11.27225	-4.29274
15.99789	11.47000	-4.29274
16.00194	11.47000	-4.29274
16.00600	11.66776	-4.29274
16.01005	11.86551	-4.29274
16.01411	12.06327	-4.29274
16.01833	12.21707	-4.29274
16.02239	12.41483	-4.29274
16.02644	12.41483	-4.29274
16.03050	12.61258	-4.29274
16.03455	12.81034	-4.29274
16.03861	12.98612	-4.29274
16.04266	12.98612	-4.29274
16.04672	13.18387	-4.29274
16.05078	13.38162	-4.29274
16.05483	13.55741	-4.29274
16.05889	13.71121	-4.29274
16.06294	13.90897	-4.29274
16.06700	13.90897	-4.29274
16.07105	14.08475	-4.29274
16.07511	14.26053	-4.29274
16.07917	14.45828	-4.29274
16.08322	14.63407	-4.29274
16.08728	14.63407	-4.29274
16.09133	14.80985	-4.29274
16.09539	14.98563	-4.29274
16.09944	15.16141	-4.29274
16.10349	15.31522	-4.29274
16.10755	15.46903	-4.29274
16.11160	15.46903	-4.29274
16.11563	15.64481	-4.29274
16.11985	15.82059	-4.29274
16.12391	15.99637	-4.29274
16.12796	16.15018	-4.29274
16.13202	16.15018	-4.29274
16.13607	16.32596	-4.29274
16.14013	16.47977	-4.29274
16.14418	16.65555	-4.29274
16.14824	16.80936	-4.29274
16.15230	16.80936	-4.29274
16.15635	16.96317	-4.29274
16.16041	17.11698	-4.29274
16.16446	17.29276	-4.29274
16.16852	17.29276	-4.29274
16.17258	17.44657	-4.29274
16.17663	17.60037	-4.29274
16.18069	17.73221	-4.29274
16.18474	17.90799	-4.29274
16.18879	18.01786	-4.29274
16.19285	18.01786	-4.29274
16.19690	18.14969	-4.29274
16.20096	18.30350	-4.29274
16.20501	18.45731	-4.29274
16.20907	18.58914	-4.29274
16.21312	18.58914	-4.29274
16.21717	18.74295	-4.29274
16.22140	18.87479	-4.29274
16.22546	19.00662	-4.29274
16.22951	19.11649	-4.29274
16.23357	19.24832	-4.29274
16.23762	19.24832	-4.29274
16.24167	19.38016	-4.29274
16.24573	19.51200	-4.29274
16.24979	19.64383	-4.29274
16.25385	19.77567	-4.29274
16.25790	19.77567	-4.29274
16.26195	19.88553	-4.29274
16.26601	20.01737	-4.29274
16.27006	20.12723	-4.29274
16.27412	20.21512	-4.29274
16.27818	20.21512	-4.29274
16.28223	20.34696	-4.29274
16.28628	20.45682	-4.29274
16.29034	20.56668	-4.29274
16.29439	20.65457	-4.29274
16.29845	20.65457	-4.29274
16.30250	20.74246	-4.29274
16.30656	20.83036	-4.29274
16.31061	20.91825	-4.29274
16.31467	20.96219	-4.29274
16.31872	21.02811	-4.29274
16.32295	21.02811	-4.29274
16.32701	21.07205	-4.29274
16.33106	21.11600	-4.29274
16.33512	21.15994	-4.29274
16.33917	21.18192	-4.29274
16.34322	21.18192	-4.29274
16.34728	21.18192	-4.29274
16.35134	21.20389	-4.29274
16.35539	21.18192	-4.29274
16.35945	21.18192	-4.29274
16.36350	21.15994	-4.29274
16.36756	21.15994	-4.29274
16.37161	21.13797	-4.29274
16.37567	21.11600	-4.29274
16.37972	21.07205	-4.29274
16.38378	21.00614	-4.29274
16.38783	21.00614	-4.29274
16.39189	20.96219	-4.29274
16.39594	20.89627	-4.29274
16.39999	20.80838	-4.29274
16.40405	20.80838	-4.29274
16.40810	20.74246	-4.29274
16.41216	20.65457	-4.29274
16.41621	20.56668	-4.29274
16.42027	20.47879	-4.29274
16.42450	20.47879	-4.29274
16.42856	20.41287	-4.29274
16.43261	20.30301	-4.29274
16.43666	20.21512	-4.29274
16.44072	20.10526	-4.29274
16.44478	20.03934	-4.29274
16.44883	20.03934	-4.29274
16.45289	19.95145	-4.29274
16.45695	19.84159	-4.29274
16.46100	19.75369	-4.29274
16.46505	19.64383	-4.29274
16.46911	19.64383	-4.29274
16.47317	19.53397	-4.29274
16.47722	19.44608	-4.29274
16.48128	19.33621	-4.29274
16.48533	19.24832	-4.29274
16.48939	19.13846	-4.29274
16.49344	19.13846	-4.29274
16.49750	19.02860	-4.29274
16.50155	18.91873	-4.29274
16.50560	18.80887	-4.29274
16.50966	18.80887	-4.29274
16.51371	18.67703	-4.29274
16.51777	18.56717	-4.29274
16.52182	18.45731	-4.29274
16.52606	18.32547	-4.29274
16.53012	18.23758	-4.29274
16.53417	18.23758	-4.29274
16.53823	18.10575	-4.29274
16.54228	17.99588	-4.29274
16.54634	17.88602	-4.29274
16.55039	17.75418	-4.29274
16.55445	17.75418	-4.29274
16.55851	17.62235	-4.29274
16.56256	17.51248	-4.29274
16.56662	17.38065	-4.29274
16.57067	17.29276	-4.29274
16.57473	17.16092	-4.29274
16.57878	17.16092	-4.29274
16.58284	17.02909	-4.29274
16.58689	16.89725	-4.29274
16.59095	16.74344	-4.29274
16.59500	16.63358	-4.29274
16.59906	16.63358	-4.29274
16.60311	16.50174	-4.29274
16.60717	16.34793	-4.29274
16.61122	16.21610	-4.29274
16.61528	16.12821	-4.29274
16.61933	15.97440	-4.29274
16.62339	15.97440	-4.29274
16.62761	15.84256	-4.29274
16.63167	15.71073	-4.29274
16.63572	15.57889	-4.29274
16.63978	15.44705	-4.29274
16.64383	15.44705	-4.29274
16.64789	15.29325	-4.29274
16.65194	15.16141	-4.29274
16.65600	15.00760	-4.29274
16.66006	15.00760	-4.29274
16.66411	14.87577	-4.29274
16.66816	14.72196	-4.29274
16.67225	14.59012	-4.29274
16.67630	14.43631	-4.29274
16.68036	14.43631	-4.29274
16.68441	14.30448	-4.29274
16.68847	14.15067	-4.29274
16.69252	14.01883	-4.29274
16.69658	13.86502	-4.29274
16.70063	13.75516	-4.29274
16.70468	13.75516	-4.29274
16.70874	13.60135	-4.29274
16.71279	13.46952	-4.29274
16.71685	13.29373	-4.29274
16.72090	13.16190	-4.29274
16.72496	13.16190	-4.29274
16.72919	13.00809	-4.29274
16.73324	12.85428	-4.29274
16.73730	12.70047	-4.29274
16.74135	12.59061	-4.29274
16.74541	12.43680	-4.29274
16.74946	12.43680	-4.29274
16.75351	12.28299	-4.29274
16.75757	12.15116	-4.29274
16.76163	11.99735	-4.29274
16.76568	11.99735	-4.29274
16.76974	11.84354	-4.29274
16.77380	11.68973	-4.29274
16.77785	11.55789	-4.29274
16.78191	11.40409	-4.29274
16.78596	11.29422	-4.29274
16.79001	11.29422	-4.29274
16.79407	11.14041	-4.29274
16.79812	10.98661	-4.29274
16.80218	10.85477	-4.29274
16.80623	10.67899	-4.29274
16.81029	10.67899	-4.29274
16.81434	10.52518	-4.29274
16.81840	10.39334	-4.29274
16.82245	10.23953	-4.29274
16.82653	10.12967	-4.29274
16.83081	9.97586	-4.29274
16.83487	9.97586	-4.29274
16.83892	9.82205	-4.29274
16.84298	9.66825	-4.29274
16.84704	9.51444	-4.29274
16.85110	9.38260	-4.29274
16.85515	9.38260	-4.29274
16.85919	9.22879	-4.29274
16.86325	9.07498	-4.29274
16.86731	8.92118	-4.29274
16.87136	8.81131	-4.29274
16.87542	8.65750	-4.29274
16.87948	8.65750	-4.29274
16.88354	8.52567	-4.29274
16.88759	8.37186	-4.29274
16.89165	8.21805	-4.29274
16.89571	8.21805	-4.29274
16.89976	8.08621	-4.29274
16.90382	7.93241	-4.29274
16.90788	7.80057	-4.29274
16.91193	7.64676	-4.29274
16.91599	7.64676	-4.29274
16.92005	7.49295	-4.29274
16.92410	7.36112	-4.29274
16.92816	7.20731	-4.29274
16.93245	7.07547	-4.29274
16.93650	7.07547	-4.29274
16.94056	6.94364	-4.29274
16.94462	6.78983	-4.29274
16.94868	6.65799	-4.29274
16.95273	6.50418	-4.29274
16.95679	6.39432	-4.29274
16.96086	6.39432	-4.29274
16.96492	6.26248	-4.29274
16.96897	6.10868	-4.29274
16.97304	5.97684	-4.29274
16.97709	5.84500	-4.29274
16.98115	5.84500	-4.29274
16.98521	5.71317	-4.29274
16.98926	5.58133	-4.29274
16.99332	5.44950	-4.29274
16.99738	5.33963	-4.29274
17.00144	5.20780	-4.29274
17.00549	5.20780	-4.29274
17.00955	5.07596	-4.29274
17.01361	4.94412	-4.29274
17.01766	4.81229	-4.29274
17.02172	4.68045	-4.29274
17.02577	4.68045	-4.29274
17.02984	4.54862	-4.29274
17.03412	4.43875	-4.29274
17.03818	4.30692	-4.29274
17.04224	4.19705	-4.29274
17.04629	4.06522	-4.29274
17.05035	4.06522	-4.29274
17.05441	3.95536	-4.29274
17.05847	3.82352	-4.29274
17.06253	3.69168	-4.29274
17.06659	3.69168	-4.29274
17.07065	3.58182	-4.29274
17.07471	3.44998	-4.29274
17.07877	3.34012	-4.29274
17.08283	3.23026	-4.29274
17.08688	3.12039	-4.29274
17.09094	3.12039	-4.29274
17.09500	3.01053	-4.29274
17.09905	2.90067	-4.29274
17.10311	2.76883	-4.29274
17.10717	2.65897	-4.29274
17.11123	2.65897	-4.29274
17.11529	2.54911	-4.29274
17.11934	2.43924	-4.29274
17.12340	2.32938	-4.29274
17.12746	2.24149	-4.29274
17.13151	2.13162	-4.29274
17.13580	2.13162	-4.29274
17.13986	2.02176	-4.29274
17.14391	1.93387	-4.29274
17.14797	1.82401	-4.29274
17.15203	1.71414	-4.29274
17.15608	1.71414	-4.29274
17.16014	1.60428	-4.29274
17.16420	1.51639	-4.29274
17.16826	1.40653	-4.29274
17.17232	1.31864	-4.29274
17.17638	1.31864	-4.29274
17.18044	1.20877	-4.29274
17.18449	1.12088	-4.29274
17.18855	1.03299	-4.29274
17.19261	1.03299	-4.29274
17.19666	0.92313	-4.29274
17.20072	0.85721	-4.29274
17.20477	0.74735	-4.29274
17.20883	0.65946	-4.29274
17.21289	0.59354	-4.29274
17.21694	0.59354	-4.29274
17.22100	0.50565	-4.29274
17.22506	0.41776	-4.29274
17.22911	0.32987	-4.29274
17.23318	0.26395	-4.29274
17.23747	0.26395	-4.29274
17.24152	0.17606	-4.29274
17.24558	0.11014	-4.29274
17.24964	0.02225	-4.29274
17.25369	-0.04367	-4.29274
17.25775	-0.10959	-4.29274
17.26181	-0.10959	-4.29274
17.26587	-0.19748	-4.29274
17.26993	-0.26339	-4.29274
17.27400	-0.32931	-4.29274
17.27806	-0.39523	-4.29274
17.28212	-0.39523	-4.29274
17.28617	-0.46115	-4.29274
17.29023	-0.52707	-4.29274
17.29429	-0.59298	-4.29274
17.29835	-0.65890	-4.29274
17.30240	-0.72482	-4.29274
17.30646	-0.72482	-4.29274
17.31051	-0.76877	-4.29274
17.31457	-0.83468	-4.29274
17.31863	-0.90060	-4.29274
17.32269	-0.90060	-4.29274
17.32674	-0.94455	-4.29274
17.33080	-0.98849	-4.29274
17.33486	-1.05441	-4.29274
17.33914	-1.09836	-4.29274
17.34318	-1.14230	-4.29274
17.34723	-1.14230	-4.29274
17.35129	-1.18625	-4.29274
17.35535	-1.23019	-4.29274
17.35941	-1.29611	-4.29274
17.36346	-1.34006	-4.29274
17.36753	-1.34006	-4.29274
17.37159	-1.38400	-4.29274
17.37565	-1.40597	-4.29274
17.37971	-1.44992	-4.29274
17.38376	-1.49386	-4.29274
17.38782	-1.51584	-4.29274
17.39188	-1.51584	-4.29274
17.39594	-1.55978	-4.29274
17.40000	-1.60373	-4.29274
17.40405	-1.62570	-4.29274
17.40811	-1.64767	-4.29274
17.41217	-1.64767	-4.29274
17.41622	-1.69162	-4.29274
17.42028	-1.71359	-4.29274
17.42434	-1.73556	-4.29274
17.42839	-1.75754	-4.29274
17.43245	-1.75754	-4.29274
17.43651	-1.77951	-4.29274
17.44080	-1.80148	-4.29274
17.44486	-1.82345	-4.29274
17.44891	-1.84543	-4.29274
17.45297	-1.84543	-4.29274
17.45703	-1.86740	-4.29274
17.46108	-1.86740	-4.29274
17.46514	-1.88937	-4.29274
17.46921	-1.91134	-4.29274
17.47328	-1.91134	-4.29274
17.47733	-1.91134	-4.29274
17.48139	-1.91134	-4.29274
17.48545	-1.93332	-4.29274
17.48951	-1.93332	-4.29274
17.49356	-1.93332	-4.29274
17.49762	-1.95529	-4.29274
17.50168	-1.93332	-4.29274
17.50573	-1.93332	-4.29274
17.50979	-1.95529	-4.29274
17.51385	-1.93332	-4.29274
17.51791	-1.93332	-4.29274
17.52196	-1.93332	-4.29274
17.52602	-1.93332	-4.29274
17.53008	-1.93332	-4.29274
17.53413	-1.93332	-4.29274
17.53819	-1.93332	-4.29274
17.54247	-1.93332	-4.29274
17.54653	-1.91134	-4.29274
17.55059	-1.91134	-4.29274
17.55465	-1.88937	-4.29274
17.55870	-1.86740	-4.29274
17.56276	-1.86740	-4.29274
17.56682	-1.86740	-4.29274
17.57089	-1.84543	-4.29274
17.57495	-1.82345	-4.29274
17.57901	-1.82345	-4.29274
17.58307	-1.82345	-4.29274
17.58712	-1.77951	-4.29274
17.59117	-1.77951	-4.29274
17.59523	-1.75754	-4.29274
17.59929	-1.71359	-4.29274
17.60334	-1.69162	-4.29274
17.60740	-1.69162	-4.29274
17.61146	-1.66964	-4.29274
17.61551	-1.64767	-4.29274
17.61957	-1.60373	-4.29274
17.62363	-1.60373	-4.29274
17.62768	-1.58175	-4.29274
17.63174	-1.55978	-4.29274
17.63580	-1.51584	-4.29274
17.63985	-1.49386	-4.29274
17.64414	-1.44992	-4.29274
17.64820	-1.44992	-4.29274
17.65226	-1.40597	-4.29274
17.65631	-1.38400	-4.29274
17.66037	-1.34006	-4.29274
17.66443	-1.29611	-4.29274
17.66848	-1.29611	-4.29274
17.67255	-1.25216	-4.29274
17.67661	-1.20822	-4.29274
17.68067	-1.16427	-4.29274
17.68473	-1.12033	-4.29274
17.68879	-1.12033	-4.29274
17.69284	-1.07638	-4.29274
17.69690	-1.03244	-4.29274
17.70096	-0.96652	-4.29274
17.70501	-0.92257	-4.29274
17.70907	-0.92257	-4.29274
17.71313	-0.87863	-4.29274
17.71718	-0.81271	-4.29274
17.72124	-0.76877	-4.29274
17.72530	-0.72482	-4.29274
17.72935	-0.65890	-4.29274
17.73341	-0.65890	-4.29274
17.73747	-0.61496	-4.29274
17.74152	-0.54904	-4.29274
17.74582	-0.48312	-4.29274
17.74987	-0.43918	-4.29274
17.75393	-0.43918	-4.29274
17.75799	-0.37326	-4.29274
17.76205	-0.30734	-4.29274
17.76610	-0.26339	-4.29274
17.77016	-0.19748	-4.29274
17.77423	-0.13156	-4.29274
17.77829	-0.13156	-4.29274
17.78235	-0.06564	-4.29274
17.78641	0.00028	-4.29274
17.79047	0.08817	-4.29274
17.79452	0.08817	-4.29274
17.79858	0.15409	-4.29274
17.80264	0.22000	-4.29274
17.80670	0.28592	-4.29274
17.81075	0.35184	-4.29274
17.81481	0.41776	-4.29274
17.81887	0.41776	-4.29274
17.82292	0.48368	-4.29274
17.82698	0.57157	-4.29274
17.83104	0.63748	-4.29274
17.83509	0.70340	-4.29274
17.83915	0.70340	-4.29274
17.84317	0.79129	-4.29274
17.84746	0.85721	-4.29274
17.85151	0.92313	-4.29274
17.85557	1.01102	-4.29274
17.85963	1.07694	-4.29274
17.86368	1.07694	-4.29274
17.86774	1.14286	-4.29274
17.87180	1.25272	-4.29274
17.87586	1.31864	-4.29274
17.87992	1.40653	-4.29274
17.88398	1.40653	-4.29274
17.88804	1.49442	-4.29274
17.89210	1.56034	-4.29274
17.89615	1.64823	-4.29274
17.90021	1.73612	-4.29274
17.90427	1.73612	-4.29274
17.90832	1.80203	-4.29274
17.91238	1.88993	-4.29274
17.91644	1.97782	-4.29274
17.92050	2.06571	-4.29274
17.92455	2.06571	-4.29274
17.92861	2.15360	-4.29274
17.93267	2.24149	-4.29274
17.93673	2.32938	-4.29274
17.94079	2.41727	-4.29274
17.94485	2.41727	-4.29274
17.94914	2.50516	-4.29274
17.95319	2.59305	-4.29274
17.95725	2.68094	-4.29274
17.96131	2.76883	-4.29274
17.96536	2.76883	-4.29274
17.96942	2.85672	-4.29274
17.97348	2.96659	-4.29274
17.97755	3.05448	-4.29274
17.98161	3.12039	-4.29274
17.98566	3.20828	-4.29274
17.98972	3.20828	-4.29274
17.99378	3.31815	-4.29274
17.99784	3.40604	-4.29274
18.00189	3.49393	-4.29274
18.00595	3.58182	-4.29274
18.01001	3.58182	-4.29274
18.01406	3.66971	-4.29274
18.01812	3.77957	-4.29274
18.02218	3.84549	-4.29274
18.02623	3.93338	-4.29274
18.03029	3.93338	-4.29274
18.03435	4.02127	-4.29274
18.03841	4.13114	-4.29274
18.04246	4.21903	-4.29274
18.04652	4.30692	-4.29274
18.05080	4.30692	-4.29274
18.05486	4.41678	-4.29274
18.05892	4.50467	-4.29274
18.06298	4.59256	-4.29274
18.06703	4.68045	-4.29274
18.07109	4.76834	-4.29274
18.07515	4.76834	-4.29274
18.07920	4.85623	-4.29274
18.08326	4.96610	-4.29274
18.08732	5.05399	-4.29274
18.09138	5.14188	-4.29274
18.09543	5.14188	-4.29274
18.09949	5.22977	-4.29274
18.10355	5.33963	-4.29274
18.10760	5.40555	-4.29274
18.11166	5.49344	-4.29274
18.11572	5.60330	-4.29274
18.11977	5.60330	-4.29274
18.12383	5.69119	-4.29274
18.12789	5.77909	-4.29274
18.13194	5.88895	-4.29274
18.13600	5.95487	-4.29274
18.14006	5.95487	-4.29274
18.14411	6.06473	-4.29274
18.14817	6.15262	-4.29274
18.15245	6.21854	-4.29274
18.15651	6.32840	-4.29274
18.16057	6.41629	-4.29274
18.16463	6.41629	-4.29274
18.16869	6.50418	-4.29274
18.17274	6.61405	-4.29274
18.17680	6.70194	-4.29274
18.18088	6.78983	-4.29274
18.18493	6.78983	-4.29274
18.18899	6.87772	-4.29274
18.19305	6.96561	-4.29274
18.19711	7.05350	-4.29274
18.20116	7.05350	-4.29274
18.20522	7.14139	-4.29274
18.20928	7.25125	-4.29274
18.21333	7.33914	-4.29274
18.21739	7.42703	-4.29274
18.22145	7.42703	-4.29274
18.22550	7.51493	-4.29274
18.22956	7.60282	-4.29274
18.23362	7.69071	-4.29274
18.23767	7.75662	-4.29274
18.24174	7.84452	-4.29274
18.24580	7.84452	-4.29274
18.24985	7.93241	-4.29274
18.25414	8.02030	-4.29274
18.25820	8.10819	-4.29274
18.26225	8.19608	-4.29274
18.26631	8.19608	-4.29274
18.27037	8.28397	-4.29274
18.27443	8.37186	-4.29274
18.27849	8.43778	-4.29274
18.28256	8.52567	-4.29274
18.28662	8.59159	-4.29274
18.29068	8.59159	-4.29274
18.29473	8.67948	-4.29274
18.29879	8.76737	-4.29274
18.30285	8.83328	-4.29274
18.30690	8.92118	-4.29274
18.31096	8.92118	-4.29274
18.31502	9.00907	-4.29274
18.31907	9.09696	-4.29274
18.32313	9.14090	-4.29274
18.32717	9.22879	-4.29274
18.33123	9.22879	-4.29274
18.33529	9.29471	-4.29274
18.33934	9.38260	-4.29274
18.34340	9.47049	-4.29274
18.34745	9.53641	-4.29274
18.35151	9.53641	-4.29274
18.35582	9.62430	-4.29274
18.35988	9.69022	-4.29274
18.36394	9.75614	-4.29274
18.36799	9.82205	-4.29274
18.37205	9.88797	-4.29274
18.37611	9.88797	-4.29274
18.38017	9.97586	-4.29274
18.38423	10.04178	-4.29274
18.38829	10.10770	-4.29274
18.39235	10.19559	-4.29274
18.39641	10.19559	-4.29274
18.40047	10.23953	-4.29274
18.40453	10.32743	-4.29274
18.40858	10.37137	-4.29274
18.41264	10.43729	-4.29274
18.41670	10.50321	-4.29274
18.42075	10.50321	-4.29274
18.42481	10.56912	-4.29274
18.42887	10.63504	-4.29274
18.43292	10.70096	-4.29274
18.43698	10.76688	-4.29274
18.44104	10.76688	-4.29274
18.44509	10.83280	-4.29274
18.44915	10.89871	-4.29274
18.45321	10.94266	-4.29274
18.45749	11.00858	-4.29274
18.46155	11.00858	-4.29274
18.46561	11.07450	-4.29274
18.46966	11.14041	-4.29274
18.47372	11.18436	-4.29274
18.47778	11.18436	-4.29274
18.48184	11.25028	-4.29274
18.48591	11.29422	-4.29274
18.48997	11.36014	-4.29274
18.49403	11.40409	-4.29274
18.49808	11.44803	-4.29274
18.50214	11.44803	-4.29274
18.50620	11.51395	-4.29274
18.51025	11.55789	-4.29274
18.51431	11.62381	-4.29274
18.51837	11.66776	-4.29274
18.52242	11.66776	-4.29274
18.52648	11.71170	-4.29274
18.53054	11.75565	-4.29274
18.53459	11.79959	-4.29274
18.53865	11.84354	-4.29274
18.54271	11.90946	-4.29274
18.54676	11.90946	-4.29274
18.55082	11.95340	-4.29274
18.55488	11.97537	-4.29274
18.55917	12.04129	-4.29274
18.56323	12.06327	-4.29274
18.56729	12.06327	-4.29274
18.57134	12.10721	-4.29274
18.57540	12.17313	-4.29274
18.57946	12.19510	-4.29274
18.58352	12.21707	-4.29274
18.58759	12.28299	-4.29274
18.59165	12.28299	-4.29274
18.59570	12.30496	-4.29274
18.59976	12.34891	-4.29274
18.60382	12.39286	-4.29274
18.60787	12.39286	-4.29274
18.61193	12.41483	-4.29274
18.61599	12.45877	-4.29274
18.62004	12.48075	-4.29274
18.62410	12.52469	-4.29274
18.62816	12.54666	-4.29274
18.63221	12.54666	-4.29274
18.63627	12.59061	-4.29274
18.64033	12.61258	-4.29274
18.64438	12.63455	-4.29274
18.64844	12.65653	-4.29274
18.65250	12.65653	-4.29274
18.65655	12.70047	-4.29274
18.66085	12.70047	-4.29274
18.66490	12.72244	-4.29274
18.66896	12.76639	-4.29274
18.67302	12.78836	-4.29274
18.67708	12.78836	-4.29274
18.68114	12.81034	-4.29274
18.68519	12.83231	-4.29274
18.68926	12.83231	-4.29274
18.69332	12.85428	-4.29274
18.69738	12.85428	-4.29274
18.70143	12.89823	-4.29274
18.70549	12.89823	-4.29274
18.70955	12.92020	-4.29274
18.71360	12.92020	-4.29274
18.71766	12.92020	-4.29274
18.72172	12.94217	-4.29274
18.72577	12.96414	-4.29274
18.72983	12.96414	-4.29274
18.73389	12.96414	-4.29274
18.73794	12.98612	-4.29274
18.74200	12.98612	-4.29274
18.74607	12.98612	-4.29274
18.75013	13.00809	-4.29274
18.75418	13.00809	-4.29274
18.75824	13.00809	-4.29274
18.76253	13.03006	-4.29274
18.76659	13.03006	-4.29274
18.77065	13.03006	-4.29274
18.77470	13.03006	-4.29274
18.77876	13.03006	-4.29274
18.78282	13.03006	-4.29274
18.78688	13.03006	-4.29274
18.79095	13.03006	-4.29274
18.79501	13.03006	-4.29274
18.79906	13.03006	-4.29274
18.80312	13.03006	-4.29274
18.80717	13.05203	-4.29274
18.81123	13.03006	-4.29274
18.81529	13.03006	-4.29274
18.81935	13.03006	-4.29274
18.82340	13.03006	-4.29274
18.82746	13.03006	-4.29274
18.83152	13.03006	-4.29274
18.83557	13.00809	-4.29274
18.83963	12.98612	-4.29274
18.84369	12.98612	-4.29274
18.84774	12.98612	-4.29274
18.85180	12.98612	-4.29274
18.85586	12.96414	-4.29274
18.85991	12.96414	-4.29274
18.86489	12.94217	-4.29274
18.86895	12.94217	-4.29274
18.87301	12.92020	-4.29274
18.87707	12.92020	-4.29274
18.88112	12.89823	-4.29274
18.88518	12.89823	-4.29274
18.88924	12.87625	-4.29274
18.89331	12.87625	-4.29274
18.89737	12.85428	-4.29274
18.90142	12.83231	-4.29274
18.90548	12.81034	-4.29274
18.90954	12.81034	-4.29274
18.91360	12.81034	-4.29274
18.91765	12.76639	-4.29274
18.92171	12.76639	-4.29274
18.92577	12.74442	-4.29274
18.92982	12.72244	-4.29274
18.93388	12.70047	-4.29274
18.93794	12.70047	-4.29274
18.94199	12.67850	-4.29274
18.94605	12.65653	-4.29274
18.95012	12.63455	-4.29274
18.95417	12.59061	-4.29274
18.95823	12.59061	-4.29274
18.96229	12.56864	-4.29274
18.96658	12.54666	-4.29274
18.97064	12.52469	-4.29274
18.97470	12.50272	-4.29274
18.97876	12.50272	-4.29274
18.98282	12.45877	-4.29274
18.98687	12.43680	-4.29274
18.99093	12.41483	-4.29274
18.99500	12.37088	-4.29274
18.99906	12.37088	-4.29274
19.00312	12.34891	-4.29274
19.00718	12.30496	-4.29274
19.01123	12.28299	-4.29274
19.01529	12.26102	-4.29274
19.01935	12.26102	-4.29274
19.02341	12.21707	-4.29274
19.02746	12.19510	-4.29274
19.03152	12.15116	-4.29274
19.03557	12.12918	-4.29274
19.03963	12.12918	-4.29274
19.04369	12.08524	-4.29274
19.04774	12.06327	-4.29274
19.05180	12.01932	-4.29274
19.05586	11.99735	-4.29274
19.05992	11.95340	-4.29274
19.06397	11.95340	-4.29274
19.06825	11.90946	-4.29274
19.07231	11.86551	-4.29274
19.07637	11.84354	-4.29274
19.08043	11.79959	-4.29274
19.08449	11.79959	-4.29274
19.08855	11.75565	-4.29274
19.09261	11.73368	-4.29274
19.09667	11.68973	-4.29274
19.10073	11.64578	-4.29274
19.10479	11.60184	-4.29274
19.10885	11.60184	-4.29274
19.11290	11.55789	-4.29274
19.11696	11.51395	-4.29274
19.12102	11.47000	-4.29274
19.12507	11.47000	-4.29274
19.12913	11.42606	-4.29274
19.13319	11.40409	-4.29274
19.13724	11.36014	-4.29274
19.14130	11.31619	-4.29274
19.14536	11.27225	-4.29274
19.14941	11.27225	-4.29274
19.15347	11.22830	-4.29274
19.15753	11.18436	-4.29274
19.16158	11.14041	-4.29274
19.16564	11.09647	-4.29274
19.16994	11.09647	-4.29274
19.17400	11.03055	-4.29274
19.17806	11.00858	-4.29274
19.18212	10.96463	-4.29274
19.18617	10.92069	-4.29274
19.19023	10.85477	-4.29274
19.19429	10.85477	-4.29274
19.19836	10.81082	-4.29274
19.20242	10.76688	-4.29274
19.20647	10.72293	-4.29274
19.21053	10.67899	-4.29274
19.21459	10.67899	-4.29274
19.21865	10.63504	-4.29274
19.22270	10.56912	-4.29274
19.22676	10.52518	-4.29274
19.23082	10.48123	-4.29274
19.23487	10.48123	-4.29274
19.23894	10.43729	-4.29274
19.24299	10.39334	-4.29274
19.24705	10.34940	-4.29274
19.25111	10.30545	-4.29274
19.25517	10.30545	-4.29274
19.25923	10.26151	-4.29274
19.26329	10.19559	-4.29274
19.26734	10.15164	-4.29274
19.27163	10.10770	-4.29274
19.27569	10.06375	-4.29274
19.27975	10.06375	-4.29274
19.28381	10.01981	-4.29274
19.28787	9.95389	-4.29274
19.29192	9.90994	-4.29274
19.29598	9.90994	-4.29274
19.30004	9.86600	-4.29274
19.30410	9.82205	-4.29274
19.30816	9.75614	-4.29274
19.31222	9.71219	-4.29274
19.31628	9.66825	-4.29274
19.32033	9.66825	-4.29274
19.32439	9.62430	-4.29274
19.32845	9.55838	-4.29274
19.33250	9.51444	-4.29274
19.33656	9.47049	-4.29274
19.34062	9.47049	-4.29274
19.34468	9.42655	-4.29274
19.34873	9.38260	-4.29274
19.35279	9.31668	-4.29274
19.35685	9.27274	-4.29274
19.36090	9.22879	-4.29274
19.36496	9.22879	-4.29274
19.36902	9.16287	-4.29274
19.37331	9.11893	-4.29274
19.37737	9.07498	-4.29274
19.38143	9.03104	-4.29274
19.38549	8.98709	-4.29274
19.38954	8.98709	-4.29274
19.39360	8.94315	-4.29274
19.39766	8.89920	-4.29274
19.40173	8.83328	-4.29274
19.40578	8.78934	-4.29274
19.40984	8.78934	-4.29274
19.41390	8.74539	-4.29274
19.41796	8.70145	-4.29274
19.42201	8.63553	-4.29274
19.42607	8.63553	-4.29274
19.43013	8.59159	-4.29274
19.43418	8.54764	-4.29274
19.43824	8.50369	-4.29274
19.44230	8.45975	-4.29274
19.44636	8.41580	-4.29274
19.45041	8.41580	-4.29274
19.45447	8.37186	-4.29274
19.45853	8.32791	-4.29274
19.46258	8.26200	-4.29274
19.46664	8.24002	-4.29274
19.47070	8.24002	-4.29274
19.47498	8.17411	-4.29274
19.47905	8.13016	-4.29274
19.48310	8.08621	-4.29274
19.48716	8.04227	-4.29274
19.49122	8.04227	-4.29274
19.49528	7.99832	-4.29274
19.49933	7.95438	-4.29274
19.50340	7.91043	-4.29274
19.50746	7.86649	-4.29274
19.51151	7.86649	-4.29274
19.51557	7.82254	-4.29274
19.51963	7.77860	-4.29274
19.52368	7.73465	-4.29274
19.52774	7.69071	-4.29274
19.53179	7.64676	-4.29274
19.53585	7.64676	-4.29274
19.53991	7.60282	-4.29274
19.54396	7.55887	-4.29274
19.54802	7.51493	-4.29274
19.55209	7.51493	-4.29274
19.55614	7.47098	-4.29274
19.56020	7.44901	-4.29274
19.56426	7.40506	-4.29274
19.56831	7.36112	-4.29274
19.57237	7.33914	-4.29274
19.57667	7.33914	-4.29274
19.58073	7.29520	-4.29274
19.58478	7.25125	-4.29274
19.58884	7.20731	-4.29274
19.59290	7.18534	-4.29274
19.59695	7.18534	-4.29274
19.60101	7.11942	-4.29274
19.60508	7.09744	-4.29274
19.60914	7.05350	-4.29274
19.61319	7.03153	-4.29274
19.61725	6.98758	-4.29274
19.62131	6.98758	-4.29274
19.62537	6.96561	-4.29274
19.62942	6.92166	-4.29274
19.63348	6.87772	-4.29274
19.63753	6.85575	-4.29274
19.64159	6.81180	-4.29274
19.64565	6.81180	-4.29274
19.64970	6.78983	-4.29274
19.65376	6.74588	-4.29274
19.65782	6.72391	-4.29274
19.66188	6.67996	-4.29274
19.66594	6.67996	-4.29274
19.66999	6.65799	-4.29274
19.67405	6.61405	-4.29274
19.67835	6.57010	-4.29274
19.68241	6.54813	-4.29274
19.68647	6.52616	-4.29274
19.69052	6.52616	-4.29274
19.69458	6.48221	-4.29274
19.69864	6.46024	-4.29274
19.70269	6.43827	-4.29274
19.70676	6.41629	-4.29274
19.71082	6.41629	-4.29274
19.71487	6.37235	-4.29274
19.71893	6.35037	-4.29274
19.72299	6.32840	-4.29274
19.72705	6.32840	-4.29274
19.73110	6.30643	-4.29274
19.73516	6.26248	-4.29274
19.73918	6.24051	-4.29274
19.74323	6.19657	-4.29274
19.74729	6.19657	-4.29274
19.75135	6.17459	-4.29274
19.75540	6.17459	-4.29274
19.75946	6.13065	-4.29274
19.76352	6.10868	-4.29274
19.76757	6.10868	-4.29274
19.77163	6.08670	-4.29274
19.77569	6.08670	-4.29274
19.77997	6.04276	-4.29274
19.78403	6.02078	-4.29274
19.78809	5.99881	-4.29274
19.79215	5.99881	-4.29274
19.79620	5.97684	-4.29274
19.80026	5.95487	-4.29274
19.80432	5.93289	-4.29274
19.80838	5.91092	-4.29274
19.81244	5.88895	-4.29274
19.81650	5.88895	-4.29274
19.82055	5.86698	-4.29274
19.82461	5.84500	-4.29274
19.82867	5.82303	-4.29274
19.83272	5.80106	-4.29274
19.83678	5.80106	-4.29274
19.84084	5.77909	-4.29274
19.84489	5.75711	-4.29274
19.84895	5.73514	-4.29274
19.85301	5.73514	-4.29274
19.85706	5.73514	-4.29274
19.86112	5.71317	-4.29274
19.86518	5.69119	-4.29274
19.86923	5.69119	-4.29274
19.87329	5.66922	-4.29274
19.87735	5.66922	-4.29274
19.88163	5.64725	-4.29274
19.88569	5.62528	-4.29274
19.88975	5.60330	-4.29274
19.89381	5.60330	-4.29274
19.89786	5.58133	-4.29274
19.90192	5.58133	-4.29274
19.90598	5.58133	-4.29274
19.91005	5.53739	-4.29274
19.91410	5.53739	-4.29274
19.91816	5.53739	-4.29274
19.92222	5.53739	-4.29274
19.92628	5.51541	-4.29274
19.93033	5.49344	-4.29274
19.93439	5.49344	-4.29274
19.93845	5.47147	-4.29274
19.94250	5.47147	-4.29274
19.94656	5.47147	-4.29274
19.95062	5.47147	-4.29274
19.95468	5.44950	-4.29274
19.95873	5.44950	-4.29274
19.96279	5.42752	-4.29274
19.96685	5.42752	-4.29274
19.97090	5.42752	-4.29274
19.97496	5.40555	-4.29274
19.97902	5.40555	-4.29274
19.98332	5.40555	-4.29274
19.98737	5.40555	-4.29274
19.99143	5.38358	-4.29274
19.99549	5.38358	-4.29274
19.99955	5.36161	-4.29274
20.00360	5.36161	-4.29274
20.00766	5.36161	-4.29274
20.01172	5.36161	-4.29274
20.01578	5.36161	-4.29274
20.01983	5.36161	-4.29274
20.02389	5.36161	-4.29274
20.02795	5.33963	-4.29274
20.03201	5.33963	-4.29274
20.03606	5.33963	-4.29274
20.04012	5.33963	-4.29274
20.04418	5.33963	-4.29274
20.04823	5.33963	-4.29274
20.05229	5.33963	-4.29274
20.05636	5.33963	-4.29274
20.06041	5.33963	-4.29274
20.06447	5.33963	-4.29274
20.06853	5.33963	-4.29274
20.07258	5.33963	-4.29274
20.07663	5.33963	-4.29274
20.08069	5.33963	-4.29274
20.08497	5.33963	-4.29274
20.08903	5.33963	-4.29274
20.09309	5.33963	-4.29274
20.09714	5.33963	-4.29274
20.10120	5.33963	-4.29274
20.10526	5.36161	-4.29274
20.10931	5.33963	-4.29274
20.11338	5.36161	-4.29274
20.11744	5.36161	-4.29274
20.12150	5.36161	-4.29274
20.12556	5.36161	-4.29274
20.12962	5.36161	-4.29274
20.13367	5.36161	-4.29274
20.13773	5.38358	-4.29274
20.14179	5.38358	-4.29274
20.14584	5.38358	-4.29274
20.14990	5.38358	-4.29274
20.15396	5.40555	-4.29274
20.15802	5.40555	-4.29274
20.16207	5.40555	-4.29274
20.16613	5.40555	-4.29274
20.17019	5.42752	-4.29274
20.17424	5.42752	-4.29274
20.17830	5.42752	-4.29274
20.18236	5.42752	-4.29274
20.18664	5.44950	-4.29274
20.19070	5.47147	-4.29274
20.19476	5.47147	-4.29274
20.19881	5.47147	-4.29274
20.20287	5.47147	-4.29274
20.20693	5.49344	-4.29274
20.21098	5.51541	-4.29274
20.21506	5.51541	-4.29274
20.21911	5.53739	-4.29274
20.22317	5.53739	-4.29274
20.22723	5.53739	-4.29274
20.23129	5.53739	-4.29274
20.23534	5.55936	-4.29274
20.23940	5.55936	-4.29274
20.24346	5.55936	-4.29274
20.24751	5.58133	-4.29274
20.25157	5.60330	-4.29274
20.25563	5.60330	-4.29274
20.25968	5.60330	-4.29274
20.26374	5.62528	-4.29274
20.26780	5.62528	-4.29274
20.27185	5.64725	-4.29274
20.27591	5.66922	-4.29274
20.27997	5.66922	-4.29274
20.28403	5.66922	-4.29274
20.28833	5.69119	-4.29274
20.29239	5.69119	-4.29274
20.29644	5.71317	-4.29274
20.30050	5.73514	-4.29274
20.30456	5.73514	-4.29274
20.30862	5.75711	-4.29274
20.31267	5.75711	-4.29274
20.31675	5.77909	-4.29274
20.32080	5.80106	-4.29274
20.32486	5.80106	-4.29274
20.32892	5.80106	-4.29274
20.33297	5.82303	-4.29274
20.33703	5.84500	-4.29274
20.34109	5.86698	-4.29274
20.34514	5.86698	-4.29274
20.34920	5.86698	-4.29274
20.35326	5.88895	-4.29274
20.35732	5.91092	-4.29274
20.36137	5.93289	-4.29274
20.36543	5.95487	-4.29274
20.36949	5.95487	-4.29274
20.37354	5.95487	-4.29274
20.37760	5.97684	-4.29274
20.38166	5.99881	-4.29274
20.38572	6.02078	-4.29274
20.39001	6.02078	-4.29274
20.39406	6.02078	-4.29274
20.39812	6.06473	-4.29274
20.40218	6.06473	-4.29274
20.40623	6.08670	-4.29274
20.41029	6.10868	-4.29274
20.41435	6.10868	-4.29274
20.41842	6.13065	-4.29274
20.42248	6.15262	-4.29274
20.42653	6.15262	-4.29274
20.43059	6.17459	-4.29274
20.43465	6.17459	-4.29274
20.43870	6.19657	-4.29274
20.44276	6.21854	-4.29274
20.44682	6.24051	-4.29274
20.45087	6.26248	-4.29274
20.45493	6.26248	-4.29274
20.45899	6.26248	-4.29274
20.46304	6.28446	-4.29274
20.46710	6.30643	-4.29274
20.47116	6.32840	-4.29274
20.47517	6.35037	-4.29274
20.47923	6.35037	-4.29274
20.48329	6.37235	-4.29274
20.48735	6.39432	-4.29274
20.49163	6.41629	-4.29274
20.49569	6.41629	-4.29274
20.49975	6.41629	-4.29274
20.50380	6.43827	-4.29274
20.50786	6.46024	-4.29274
20.51192	6.48221	-4.29274
20.51598	6.50418	-4.29274
20.52004	6.50418	-4.29274
20.52410	6.52616	-4.29274
20.52816	6.52616	-4.29274
20.53221	6.54813	-4.29274
20.53627	6.57010	-4.29274
20.54033	6.59207	-4.29274
20.54439	6.59207	-4.29274
20.54844	6.61405	-4.29274
20.55250	6.63602	-4.29274
20.55656	6.63602	-4.29274
20.56062	6.63602	-4.29274
20.56468	6.65799	-4.29274
20.56874	6.67996	-4.29274
20.57279	6.70194	-4.29274
20.57685	6.72391	-4.29274
20.58091	6.74588	-4.29274
20.58497	6.74588	-4.29274
20.58903	6.74588	-4.29274
20.59331	6.76786	-4.29274
20.59737	6.78983	-4.29274
20.60142	6.81180	-4.29274
20.60548	6.81180	-4.29274
20.60954	6.83377	-4.29274
20.61360	6.85575	-4.29274
20.61765	6.87772	-4.29274
20.62173	6.87772	-4.29274
20.62578	6.89969	-4.29274
20.62984	6.89969	-4.29274
20.63390	6.92166	-4.29274
20.63795	6.94364	-4.29274
20.64201	6.94364	-4.29274
20.64607	6.96561	-4.29274
20.65013	6.96561	-4.29274
20.65418	6.98758	-4.29274
20.65824	7.00955	-4.29274
20.66231	7.03153	-4.29274
20.66636	7.03153	-4.29274
20.67042	7.05350	-4.29274
20.67448	7.05350	-4.29274
20.67854	7.07547	-4.29274
20.68260	7.09744	-4.29274
20.68665	7.09744	-4.29274
20.69071	7.09744	-4.29274
20.69499	7.11942	-4.29274
20.69905	7.14139	-4.29274
20.70311	7.14139	-4.29274
20.70717	7.16336	-4.29274
20.71123	7.18534	-4.29274
20.71528	7.18534	-4.29274
20.71934	7.20731	-4.29274
20.72342	7.22928	-4.29274
20.72748	7.22928	-4.29274
20.73153	7.25125	-4.29274
20.73559	7.25125	-4.29274
20.73965	7.27323	-4.29274
20.74371	7.27323	-4.29274
20.74776	7.29520	-4.29274
20.75182	7.29520	-4.29274
20.75588	7.29520	-4.29274
20.75993	7.31717	-4.29274
20.76399	7.33914	-4.29274
20.76805	7.36112	-4.29274
20.77211	7.36112	-4.29274
20.77616	7.36112	-4.29274
20.78022	7.38309	-4.29274
20.78428	7.40506	-4.29274
20.78834	7.40506	-4.29274
20.79240	7.42703	-4.29274
20.79668	7.42703	-4.29274
20.80074	7.42703	-4.29274
20.80480	7.44901	-4.29274
20.80885	7.47098	-4.29274
20.81291	7.47098	-4.29274
20.81697	7.49295	-4.29274
20.82102	7.49295	-4.29274
20.82509	7.49295	-4.29274
20.82915	7.51493	-4.29274
20.83320	7.53690	-4.29274
20.83726	7.53690	-4.29274
20.84132	7.53690	-4.29274
20.84538	7.55887	-4.29274
20.84943	7.55887	-4.29274
20.85349	7.58084	-4.29274
20.85754	7.58084	-4.29274
20.86160	7.58084	-4.29274
20.86567	7.60282	-4.29274
20.86972	7.62479	-4.29274
20.87378	7.62479	-4.29274
20.87784	7.64676	-4.29274
20.88190	7.64676	-4.29274
20.88596	7.64676	-4.29274
20.89002	7.66873	-4.29274
20.89407	7.69071	-4.29274
20.89835	7.69071	-4.29274
20.90241	7.71268	-4.29274
20.90647	7.71268	-4.29274
20.91053	7.71268	-4.29274
20.91458	7.71268	-4.29274
20.91864	7.73465	-4.29274
20.92270	7.73465	-4.29274
20.92677	7.75662	-4.29274
20.93082	7.75662	-4.29274
20.93488	7.77860	-4.29274
20.93894	7.77860	-4.29274
20.94299	7.80057	-4.29274
20.94705	7.80057	-4.29274
20.95111	7.80057	-4.29274
20.95517	7.80057	-4.29274
20.95923	7.82254	-4.29274
20.96328	7.82254	-4.29274
20.96734	7.84452	-4.29274
20.97140	7.84452	-4.29274
20.97545	7.84452	-4.29274
20.97951	7.84452	-4.29274
20.98357	7.86649	-4.29274
20.98763	7.86649	-4.29274
20.99168	7.86649	-4.29274
20.99574	7.88846	-4.29274
21.00003	7.88846	-4.29274
21.00408	7.88846	-4.29274
21.00814	7.91043	-4.29274
21.01220	7.91043	-4.29274
21.01625	7.91043	-4.29274
21.02031	7.91043	-4.29274
21.02437	7.93241	-4.29274
21.02843	7.93241	-4.29274
21.03249	7.93241	-4.29274
21.03655	7.93241	-4.29274
21.04060	7.95438	-4.29274
21.04466	7.95438	-4.29274
21.04872	7.95438	-4.29274
21.05277	7.97635	-4.29274
21.05683	7.97635	-4.29274
21.06089	7.97635	-4.29274
21.06494	7.97635	-4.29274
21.06901	7.97635	-4.29274
21.07306	7.99832	-4.29274
21.07712	7.99832	-4.29274
21.08118	7.99832	-4.29274
21.08524	7.99832	-4.29274
21.08929	7.99832	-4.29274
21.09335	8.02030	-4.29274
21.09741	8.02030	-4.29274
21.10169	8.02030	-4.29274
21.10575	8.02030	-4.29274
21.10980	8.02030	-4.29274
21.11386	8.02030	-4.29274
21.11792	8.02030	-4.29274
21.12198	8.02030	-4.29274
21.12604	8.04227	-4.29274
21.13011	8.04227	-4.29274
21.13417	8.04227	-4.29274
21.13823	8.04227	-4.29274
21.14228	8.04227	-4.29274
21.14634	8.04227	-4.29274
21.15040	8.04227	-4.29274
21.15445	8.04227	-4.29274
21.15851	8.04227	-4.29274
21.16257	8.04227	-4.29274
21.16662	8.04227	-4.29274
21.17068	8.04227	-4.29274
21.17474	8.06424	-4.29274
21.17880	8.04227	-4.29274
21.18286	8.06424	-4.29274
21.18692	8.06424	-4.29274
21.19097	8.06424	-4.29274
21.19503	8.06424	-4.29274
21.19909	8.06424	-4.29274
21.20338	8.04227	-4.29274
21.20744	8.04227	-4.29274
21.21149	8.06424	-4.29274
21.21555	8.06424	-4.29274
21.21961	8.04227	-4.29274
21.22366	8.06424	-4.29274
21.22772	8.04227	-4.29274
21.23178	8.04227	-4.29274
21.23584	8.06424	-4.29274
21.23990	8.06424	-4.29274
21.24395	8.04227	-4.29274
21.24801	8.04227	-4.29274
21.25207	8.04227	-4.29274
21.25612	8.04227	-4.29274
21.26018	8.04227	-4.29274
21.26424	8.04227	-4.29274
21.26829	8.04227	-4.29274
21.27235	8.04227	-4.29274
21.27641	8.02030	-4.29274
21.28047	8.02030	-4.29274
21.28452	8.02030	-4.29274
21.28858	8.02030	-4.29274
21.29264	8.02030	-4.29274
21.29669	8.02030	-4.29274
21.30075	8.02030	-4.29274
21.30504	7.99832	-4.29274
21.30910	7.99832	-4.29274
21.31316	7.99832	-4.29274
21.31721	7.99832	-4.29274
21.32127	7.99832	-4.29274
21.32533	7.99832	-4.29274
21.32938	7.97635	-4.29274
21.33345	7.97635	-4.29274
21.33751	7.95438	-4.29274
21.34157	7.97635	-4.29274
21.34562	7.95438	-4.29274
21.34968	7.95438	-4.29274
21.35374	7.95438	-4.29274
21.35779	7.95438	-4.29274
21.36185	7.93241	-4.29274
21.36591	7.93241	-4.29274
21.36997	7.93241	-4.29274
21.37403	7.91043	-4.29274
21.37809	7.91043	-4.29274
21.38215	7.91043	-4.29274
21.38621	7.91043	-4.29274
21.39026	7.91043	-4.29274
21.39432	7.88846	-4.29274
21.39838	7.88846	-4.29274
21.40243	7.88846	-4.29274
21.40672	7.86649	-4.29274
21.41078	7.86649	-4.29274
21.41483	7.84452	-4.29274
21.41889	7.84452	-4.29274
21.42295	7.84452	-4.29274
21.42700	7.84452	-4.29274
21.43106	7.82254	-4.29274
21.43513	7.82254	-4.29274
21.43918	7.80057	-4.29274
21.44323	7.80057	-4.29274
21.44729	7.80057	-4.29274
21.45135	7.77860	-4.29274
21.45540	7.75662	-4.29274
21.45946	7.75662	-4.29274
21.46352	7.75662	-4.29274
21.46757	7.73465	-4.29274
21.47163	7.73465	-4.29274
21.47569	7.73465	-4.29274
21.47975	7.71268	-4.29274
21.48381	7.71268	-4.29274
21.48786	7.71268	-4.29274
21.49192	7.69071	-4.29274
21.49598	7.69071	-4.29274
21.50004	7.66873	-4.29274
21.50409	7.64676	-4.29274
21.50837	7.64676	-4.29274
21.51243	7.64676	-4.29274
21.51649	7.64676	-4.29274
21.52054	7.62479	-4.29274
21.52460	7.60282	-4.29274
21.52866	7.60282	-4.29274
21.53271	7.60282	-4.29274
21.53678	7.58084	-4.29274
21.54084	7.55887	-4.29274
21.54490	7.55887	-4.29274
21.54895	7.55887	-4.29274
21.55301	7.53690	-4.29274
21.55707	7.51493	-4.29274
21.56112	7.51493	-4.29274
21.56518	7.49295	-4.29274
21.56924	7.49295	-4.29274
21.57329	7.49295	-4.29274
21.57735	7.47098	-4.29274
21.58141	7.47098	-4.29274
21.58547	7.44901	-4.29274
21.58953	7.44901	-4.29274
21.59358	7.42703	-4.29274
21.59764	7.42703	-4.29274
21.60170	7.40506	-4.29274
21.60576	7.40506	-4.29274
21.61004	7.38309	-4.29274
21.61410	7.38309	-4.29274
21.61815	7.38309	-4.29274
21.62221	7.33914	-4.29274
21.62627	7.33914	-4.29274
21.63032	7.31717	-4.29274
21.63438	7.31717	-4.29274
21.63845	7.31717	-4.29274
21.64251	7.29520	-4.29274
21.64656	7.27323	-4.29274
21.65062	7.25125	-4.29274
21.65468	7.25125	-4.29274
21.65873	7.25125	-4.29274
21.66279	7.22928	-4.29274
21.66685	7.22928	-4.29274
21.67090	7.20731	-4.29274
21.67496	7.20731	-4.29274
21.67902	7.18534	-4.29274
21.68308	7.18534	-4.29274
21.68713	7.16336	-4.29274
21.69117	7.16336	-4.29274
21.69523	7.14139	-4.29274
21.69929	7.14139	-4.29274
21.70334	7.11942	-4.29274
21.70740	7.11942	-4.29274
21.71169	7.09744	-4.29274
21.71574	7.07547	-4.29274
21.71980	7.07547	-4.29274
21.72386	7.07547	-4.29274
21.72792	7.05350	-4.29274
21.73197	7.05350	-4.29274
21.73603	7.03153	-4.29274
21.74009	7.00955	-4.29274
21.74415	7.00955	-4.29274
21.74821	7.00955	-4.29274
21.75227	6.98758	-4.29274
21.75632	6.98758	-4.29274
21.76038	6.96561	-4.29274
21.76444	6.96561	-4.29274
21.76849	6.96561	-4.29274
21.77255	6.94364	-4.29274
21.77661	6.92166	-4.29274
21.78067	6.92166	-4.29274
21.78473	6.92166	-4.29274
21.78878	6.92166	-4.29274
21.79284	6.89969	-4.29274
21.79690	6.87772	-4.29274
21.80095	6.87772	-4.29274
21.80501	6.87772	-4.29274
21.80907	6.85575	-4.29274
21.81335	6.85575	-4.29274
21.81741	6.83377	-4.29274
21.82147	6.83377	-4.29274
21.82552	6.81180	-4.29274
21.82958	6.81180	-4.29274
21.83364	6.81180	-4.29274
21.83769	6.78983	-4.29274
21.84177	6.78983	-4.29274
21.84583	6.78983	-4.29274
21.84988	6.78983	-4.29274
21.85394	6.76786	-4.29274
21.85800	6.76786	-4.29274
21.86205	6.74588	-4.29274
21.86611	6.74588	-4.29274
21.87017	6.74588	-4.29274
21.87422	6.74588	-4.29274
21.87829	6.72391	-4.29274
21.88235	6.72391	-4.29274
21.88641	6.70194	-4.29274
21.89046	6.70194	-4.29274
21.89452	6.70194	-4.29274
21.89858	6.70194	-4.29274
21.90263	6.70194	-4.29274
21.90669	6.67996	-4.29274
21.91075	6.67996	-4.29274
21.91504	6.67996	-4.29274
21.91909	6.67996	-4.29274
21.92315	6.65799	-4.29274
21.92718	6.65799	-4.29274
21.93123	6.65799	-4.29274
21.93529	6.65799	-4.29274
21.93935	6.65799	-4.29274
21.94341	6.63602	-4.29274
21.94747	6.63602	-4.29274
21.95153	6.63602	-4.29274
21.95558	6.63602	-4.29274
21.95964	6.63602	-4.29274
21.96370	6.61405	-4.29274
21.96775	6.61405	-4.29274
21.97181	6.61405	-4.29274
21.97587	6.61405	-4.29274
21.97993	6.61405	-4.29274
21.98399	6.61405	-4.29274
21.98804	6.61405	-4.29274
21.99210	6.61405	-4.29274
21.99616	6.61405	-4.29274
22.00021	6.61405	-4.29274
22.00427	6.59207	-4.29274
22.00833	6.59207	-4.29274
22.01238	6.59207	-4.29274
22.01667	6.59207	-4.29274
22.02073	6.59207	-4.29274
22.02478	6.59207	-4.29274
22.02884	6.59207	-4.29274
22.03290	6.59207	-4.29274
22.03695	6.59207	-4.29274
22.04101	6.59207	-4.29274
22.04508	6.59207	-4.29274
22.04914	6.59207	-4.29274
22.05319	6.59207	-4.29274
22.05725	6.57010	-4.29274
22.06131	6.57010	-4.29274
22.06537	6.59207	-4.29274
22.06942	6.59207	-4.29274
22.07348	6.57010	-4.29274
22.07754	6.59207	-4.29274
22.08161	6.59207	-4.29274
22.08567	6.59207	-4.29274
22.08972	6.59207	-4.29274
22.09378	6.59207	-4.29274
22.09784	6.59207	-4.29274
22.10189	6.59207	-4.29274
22.10595	6.59207	-4.29274
22.11001	6.59207	-4.29274
22.11406	6.59207	-4.29274
22.11834	6.61405	-4.29274
22.12240	6.61405	-4.29274
22.12646	6.61405	-4.29274
22.13052	6.59207	-4.29274
22.13457	6.61405	-4.29274
22.13863	6.61405	-4.29274
22.14269	6.61405	-4.29274
22.14676	6.61405	-4.29274
22.15081	6.61405	-4.29274
22.15487	6.63602	-4.29274
22.15893	6.63602	-4.29274
22.16298	6.65799	-4.29274
22.16704	6.65799	-4.29274
22.17110	6.65799	-4.29274
22.17515	6.65799	-4.29274
22.17918	6.65799	-4.29274
22.18323	6.67996	-4.29274
22.18729	6.65799	-4.29274
22.19135	6.65799	-4.29274
22.19541	6.67996	-4.29274
22.19946	6.67996	-4.29274
22.20352	6.70194	-4.29274
22.20758	6.70194	-4.29274
22.21163	6.70194	-4.29274
22.21569	6.70194	-4.29274
22.21997	6.70194	-4.29274
22.22403	6.72391	-4.29274
22.22809	6.74588	-4.29274
22.23215	6.74588	-4.29274
22.23620	6.74588	-4.29274
22.24026	6.76786	-4.29274
22.24432	6.76786	-4.29274
22.24838	6.78983	-4.29274
22.25244	6.78983	-4.29274
22.25649	6.78983	-4.29274
22.26055	6.78983	-4.29274
22.26461	6.81180	-4.29274
22.26867	6.83377	-4.29274
22.27272	6.83377	-4.29274
22.27678	6.83377	-4.29274
22.28084	6.83377	-4.29274
22.28490	6.85575	-4.29274
22.28896	6.87772	-4.29274
22.29302	6.87772	-4.29274
22.29708	6.87772	-4.29274
22.30113	6.89969	-4.29274
22.30519	6.89969	-4.29274
22.30925	6.92166	-4.29274
22.31330	6.94364	-4.29274
22.31736	6.94364	-4.29274
22.32164	6.94364	-4.29274
22.32570	6.96561	-4.29274
22.32976	6.96561	-4.29274
22.33382	6.98758	-4.29274
22.33787	6.98758	-4.29274
22.34193	6.98758	-4.29274
22.34599	7.00955	-4.29274
22.35006	7.03153	-4.29274
22.35412	7.03153	-4.29274
22.35818	7.05350	-4.29274
22.36223	7.05350	-4.29274
22.36629	7.05350	-4.29274
22.37035	7.07547	-4.29274
22.37440	7.09744	-4.29274
22.37846	7.09744	-4.29274
22.38252	7.09744	-4.29274
22.38658	7.11942	-4.29274
22.39064	7.11942	-4.29274
22.39469	7.14139	-4.29274
22.39875	7.16336	-4.29274
22.40281	7.16336	-4.29274
22.40686	7.18534	-4.29274
22.41092	7.18534	-4.29274
22.41498	7.18534	-4.29274
22.41903	7.20731	-4.29274
22.42333	7.22928	-4.29274
22.42739	7.22928	-4.29274
22.43145	7.25125	-4.29274
22.43550	7.25125	-4.29274
22.43956	7.27323	-4.29274
22.44362	7.27323	-4.29274
22.44767	7.27323	-4.29274
22.45174	7.29520	-4.29274
22.45580	7.31717	-4.29274
22.45985	7.31717	-4.29274
22.46391	7.33914	-4.29274
22.46797	7.36112	-4.29274
22.47202	7.36112	-4.29274
22.47608	7.36112	-4.29274
22.48014	7.38309	-4.29274
22.48420	7.40506	-4.29274
22.48827	7.40506	-4.29274
22.49233	7.40506	-4.29274
22.49638	7.42703	-4.29274
22.50044	7.44901	-4.29274
22.50450	7.44901	-4.29274
22.50855	7.47098	-4.29274
22.51261	7.47098	-4.29274
22.51667	7.47098	-4.29274
22.52073	7.49295	-4.29274
22.52501	7.51493	-4.29274
22.52907	7.51493	-4.29274
22.53313	7.51493	-4.29274
22.53718	7.53690	-4.29274
22.54124	7.55887	-4.29274
22.54530	7.55887	-4.29274
22.54935	7.58084	-4.29274
22.55342	7.58084	-4.29274
22.55748	7.58084	-4.29274
22.56154	7.60282	-4.29274
22.56559	7.62479	-4.29274
22.56965	7.62479	-4.29274
22.57371	7.62479	-4.29274
22.57776	7.64676	-4.29274
22.58182	7.66873	-4.29274
22.58588	7.66873	-4.29274
22.58994	7.69071	-4.29274
22.59400	7.69071	-4.29274
22.59806	7.69071	-4.29274
22.60212	7.71268	-4.29274
22.60617	7.71268	-4.29274
22.61023	7.73465	-4.29274
22.61429	7.75662	-4.29274
22.61834	7.75662	-4.29274
22.62240	7.77860	-4.29274
22.62668	7.77860	-4.29274
22.63074	7.80057	-4.29274
22.63479	7.80057	-4.29274
22.63885	7.82254	-4.29274
22.64291	7.82254	-4.29274
22.64697	7.82254	-4.29274
22.65102	7.84452	-4.29274
22.65509	7.86649	-4.29274
22.65915	7.86649	-4.29274
22.66317	7.86649	-4.29274
22.66723	7.88846	-4.29274
22.67129	7.88846	-4.29274
22.67534	7.91043	-4.29274
22.67940	7.93241	-4.29274
22.68346	7.93241	-4.29274
22.68752	7.93241	-4.29274
22.69157	7.95438	-4.29274
22.69563	7.97635	-4.29274
22.69969	7.97635	-4.29274
22.70374	7.97635	-4.29274
22.70780	7.97635	-4.29274
22.71186	7.99832	-4.29274
22.71591	8.02030	-4.29274
22.71997	8.02030	-4.29274
22.72403	8.04227	-4.29274
22.72831	8.04227	-4.29274
22.73237	8.04227	-4.29274
22.73642	8.06424	-4.29274
22.74048	8.08621	-4.29274
22.74454	8.08621	-4.29274
22.74859	8.08621	-4.29274
22.75265	8.10819	-4.29274
22.75672	8.10819	-4.29274
22.76077	8.13016	-4.29274
22.76483	8.13016	-4.29274
22.76889	8.15213	-4.29274
22.77294	8.15213	-4.29274
22.77700	8.17411	-4.29274
22.78106	8.17411	-4.29274
22.78512	8.19608	-4.29274
22.78918	8.19608	-4.29274
22.79324	8.19608	-4.29274
22.79729	8.21805	-4.29274
22.80135	8.21805	-4.29274
22.80541	8.24002	-4.29274
22.80946	8.24002	-4.29274
22.81352	8.26200	-4.29274
22.81758	8.26200	-4.29274
22.82163	8.26200	-4.29274
22.82569	8.28397	-4.29274
22.82997	8.28397	-4.29274
22.83403	8.28397	-4.29274
22.83809	8.30594	-4.29274
22.84214	8.30594	-4.29274
22.84620	8.32791	-4.29274
22.85026	8.32791	-4.29274
22.85431	8.32791	-4.29274
22.85838	8.34989	-4.29274
22.86244	8.34989	-4.29274
22.86650	8.34989	-4.29274
22.87056	8.37186	-4.29274
22.87461	8.37186	-4.29274
22.87867	8.39383	-4.29274
22.88273	8.39383	-4.29274
22.88679	8.39383	-4.29274
22.89085	8.41580	-4.29274
22.89491	8.41580	-4.29274
22.89896	8.41580	-4.29274
22.90302	8.41580	-4.29274
22.90708	8.43778	-4.29274
22.91113	8.43778	-4.29274
22.91517	8.43778	-4.29274
22.91923	8.43778	-4.29274
22.92329	8.45975	-4.29274
22.92734	8.48172	-4.29274
22.93163	8.48172	-4.29274
22.93568	8.48172	-4.29274
22.93974	8.50369	-4.29274
22.94380	8.50369	-4.29274
22.94786	8.50369	-4.29274
22.95191	8.50369	-4.29274
22.95597	8.52567	-4.29274
22.96004	8.52567	-4.29274
22.96410	8.52567	-4.29274
22.96815	8.54764	-4.29274
22.97221	8.54764	-4.29274
22.97627	8.54764	-4.29274
22.98036	8.54764	-4.29274
22.98442	8.54764	-4.29274
22.98848	8.56961	-4.29274
22.99254	8.56961	-4.29274
22.99660	8.59159	-4.29274
23.00065	8.59159	-4.29274
23.00471	8.59159	-4.29274
23.00877	8.61356	-4.29274
23.01283	8.61356	-4.29274
23.01688	8.61356	-4.29274
23.02094	8.61356	-4.29274
23.02500	8.63553	-4.29274
23.02905	8.63553	-4.29274
23.03333	8.63553	-4.29274
23.03739	8.63553	-4.29274
23.04145	8.63553	-4.29274
23.04550	8.65750	-4.29274
23.04956	8.65750	-4.29274
23.05362	8.65750	-4.29274
23.05768	8.67948	-4.29274
23.06174	8.67948	-4.29274
23.06580	8.67948	-4.29274
23.06986	8.67948	-4.29274
23.07392	8.67948	-4.29274
23.07797	8.70145	-4.29274
23.08204	8.70145	-4.29274
23.08609	8.70145	-4.29274
23.09015	8.70145	-4.29274
23.09422	8.70145	-4.29274
23.09827	8.72342	-4.29274
23.10233	8.72342	-4.29274
23.10639	8.74539	-4.29274
23.11045	8.74539	-4.29274
23.11450	8.74539	-4.29274
23.11856	8.74539	-4.29274
23.12261	8.74539	-4.29274
23.12667	8.76737	-4.29274
23.13073	8.76737	-4.29274
23.13502	8.76737	-4.29274
23.13908	8.76737	-4.29274
23.14313	8.76737	-4.29274
23.14718	8.78934	-4.29274
23.15123	8.78934	-4.29274
23.15529	8.78934	-4.29274
23.15935	8.78934	-4.29274
23.16341	8.78934	-4.29274
23.16747	8.81131	-4.29274
23.17153	8.81131	-4.29274
23.17558	8.81131	-4.29274
23.17964	8.81131	-4.29274
23.18370	8.83328	-4.29274
23.18776	8.83328	-4.29274
23.19182	8.83328	-4.29274
23.19587	8.83328	-4.29274
23.19993	8.83328	-4.29274
23.20399	8.83328	-4.29274
23.20804	8.83328	-4.29274
23.21210	8.83328	-4.29274
23.21616	8.83328	-4.29274
23.22022	8.83328	-4.29274
23.22427	8.85526	-4.29274
23.22833	8.85526	-4.29274
23.23239	8.85526	-4.29274
23.23667	8.87723	-4.29274
23.24073	8.87723	-4.29274
23.24479	8.85526	-4.29274
23.24885	8.87723	-4.29274
23.25290	8.87723	-4.29274
23.25696	8.87723	-4.29274
23.26102	8.87723	-4.29274
23.26508	8.87723	-4.29274
23.26914	8.87723	-4.29274
23.27320	8.87723	-4.29274
23.27726	8.87723	-4.29274
23.28132	8.89920	-4.29274
23.28538	8.89920	-4.29274
23.28944	8.89920	-4.29274
23.29349	8.87723	-4.29274
23.29756	8.89920	-4.29274
23.30162	8.92118	-4.29274
23.30567	8.92118	-4.29274
23.30973	8.89920	-4.29274
23.31379	8.89920	-4.29274
23.31784	8.89920	-4.29274
23.32190	8.92118	-4.29274
23.32596	8.92118	-4.29274
23.33001	8.92118	-4.29274
23.33407	8.92118	-4.29274
23.33836	8.92118	-4.29274
23.34242	8.92118	-4.29274
23.34648	8.92118	-4.29274
23.35053	8.92118	-4.29274
23.35459	8.92118	-4.29274
23.35865	8.92118	-4.29274
23.36270	8.92118	-4.29274
23.36678	8.92118	-4.29274
23.37084	8.92118	-4.29274
23.37489	8.94315	-4.29274
23.37895	8.94315	-4.29274
23.38301	8.92118	-4.29274
23.38707	8.92118	-4.29274
23.39113	8.94315	-4.29274
23.39517	8.92118	-4.29274
23.39923	8.94315	-4.29274
23.40329	8.94315	-4.29274
23.40735	8.92118	-4.29274
23.41141	8.92118	-4.29274
23.41546	8.94315	-4.29274
23.41952	8.94315	-4.29274
23.42358	8.94315	-4.29274
23.42763	8.94315	-4.29274
23.43169	8.94315	-4.29274
23.43575	8.94315	-4.29274
23.44003	8.94315	-4.29274
23.44409	8.94315	-4.29274
23.44815	8.94315	-4.29274
23.45220	8.94315	-4.29274
23.45626	8.94315	-4.29274
23.46032	8.94315	-4.29274
23.46437	8.94315	-4.29274
23.46843	8.94315	-4.29274
23.47249	8.94315	-4.29274
23.47655	8.94315	-4.29274
23.48061	8.92118	-4.29274
23.48467	8.94315	-4.29274
23.48872	8.94315	-4.29274
23.49278	8.92118	-4.29274
23.49684	8.92118	-4.29274
23.50090	8.92118	-4.29274
23.50496	8.92118	-4.29274
23.50902	8.92118	-4.29274
23.51307	8.92118	-4.29274
23.51713	8.92118	-4.29274
23.52119	8.92118	-4.29274
23.52524	8.92118	-4.29274
23.52930	8.92118	-4.29274
23.53336	8.92118	-4.29274
23.53741	8.92118	-4.29274
23.54170	8.92118	-4.29274
23.54575	8.92118	-4.29274
23.54981	8.92118	-4.29274
23.55387	8.89920	-4.29274
23.55793	8.89920	-4.29274
23.56198	8.89920	-4.29274
23.56604	8.89920	-4.29274
23.57011	8.89920	-4.29274
23.57417	8.89920	-4.29274
23.57822	8.89920	-4.29274
23.58229	8.89920	-4.29274
23.58634	8.89920	-4.29274
23.59041	8.89920	-4.29274
23.59447	8.87723	-4.29274
23.59853	8.87723	-4.29274
23.60259	8.87723	-4.29274
23.60664	8.87723	-4.29274
23.61070	8.87723	-4.29274
23.61476	8.87723	-4.29274
23.61881	8.85526	-4.29274
23.62287	8.85526	-4.29274
23.62693	8.85526	-4.29274
23.63098	8.85526	-4.29274
23.63504	8.85526	-4.29274
23.63910	8.85526	-4.29274
23.64339	8.83328	-4.29274
23.64745	8.83328	-4.29274
23.65151	8.83328	-4.29274
23.65556	8.83328	-4.29274
23.65962	8.83328	-4.29274
23.66368	8.83328	-4.29274
23.66773	8.83328	-4.29274
23.67180	8.83328	-4.29274
23.67586	8.81131	-4.29274
23.67992	8.81131	-4.29274
23.68398	8.81131	-4.29274
23.68803	8.81131	-4.29274
23.69209	8.78934	-4.29274
23.69615	8.78934	-4.29274
23.70021	8.78934	-4.29274
23.70426	8.78934	-4.29274
23.70832	8.76737	-4.29274
23.71238	8.76737	-4.29274
23.71643	8.76737	-4.29274
23.72049	8.76737	-4.29274
23.72455	8.76737	-4.29274
23.72860	8.76737	-4.29274
23.73266	8.76737	-4.29274
23.73672	8.74539	-4.29274
23.74077	8.74539	-4.29274
23.74505	8.72342	-4.29274
23.74911	8.72342	-4.29274
23.75317	8.72342	-4.29274
23.75723	8.72342	-4.29274
23.76129	8.70145	-4.29274
23.76534	8.70145	-4.29274
23.76940	8.70145	-4.29274
23.77347	8.67948	-4.29274
23.77752	8.67948	-4.29274
23.78159	8.67948	-4.29274
23.78564	8.67948	-4.29274
23.78970	8.65750	-4.29274
23.79376	8.65750	-4.29274
23.79781	8.65750	-4.29274
23.80187	8.65750	-4.29274
23.80593	8.63553	-4.29274
23.80999	8.63553	-4.29274
23.81404	8.63553	-4.29274
23.81810	8.63553	-4.29274
23.82215	8.61356	-4.29274
23.82621	8.61356	-4.29274
23.83027	8.59159	-4.29274
23.83433	8.59159	-4.29274
23.83838	8.59159	-4.29274
23.84244	8.59159	-4.29274
23.84672	8.59159	-4.29274
23.85078	8.56961	-4.29274
23.85483	8.56961	-4.29274
23.85889	8.56961	-4.29274
23.86295	8.56961	-4.29274
23.86701	8.54764	-4.29274
23.87106	8.54764	-4.29274
23.87513	8.54764	-4.29274
23.87917	8.52567	-4.29274
23.88324	8.52567	-4.29274
23.88730	8.52567	-4.29274
23.89135	8.52567	-4.29274
23.89541	8.50369	-4.29274
23.89947	8.50369	-4.29274
23.90352	8.50369	-4.29274
23.90758	8.50369	-4.29274
23.91164	8.48172	-4.29274
23.91569	8.48172	-4.29274
23.91975	8.48172	-4.29274
23.92381	8.48172	-4.29274
23.92786	8.45975	-4.29274
23.93192	8.45975	-4.29274
23.93598	8.45975	-4.29274
23.94003	8.43778	-4.29274
23.94409	8.43778	-4.29274
23.94838	8.43778	-4.29274
23.95243	8.43778	-4.29274
23.95649	8.43778	-4.29274
23.96055	8.41580	-4.29274
23.96461	8.41580	-4.29274
23.96866	8.41580	-4.29274
23.97272	8.41580	-4.29274
23.97678	8.39383	-4.29274
23.98084	8.39383	-4.29274
23.98490	8.39383	-4.29274
23.98896	8.39383	-4.29274
23.99302	8.37186	-4.29274
23.99707	8.39383	-4.29274
24.00113	8.37186	-4.29274
24.00519	8.34989	-4.29274
24.00925	8.34989	-4.29274
24.01330	8.34989	-4.29274
24.01736	8.34989	-4.29274
24.02142	8.34989	-4.29274
24.02547	8.34989	-4.29274
24.02953	8.32791	-4.29274
24.03358	8.32791	-4.29274
24.03764	8.32791	-4.29274
24.04170	8.32791	-4.29274
24.04575	8.30594	-4.29274
24.05003	8.30594	-4.29274
24.05409	8.30594	-4.29274
24.05815	8.30594	-4.29274
24.06221	8.30594	-4.29274
24.06626	8.28397	-4.29274
24.07032	8.28397	-4.29274
24.07438	8.28397	-4.29274
24.07845	8.28397	-4.29274
24.08251	8.28397	-4.29274
24.08657	8.26200	-4.29274
24.09063	8.26200	-4.29274
24.09469	8.26200	-4.29274
24.09874	8.26200	-4.29274
24.10280	8.26200	-4.29274
24.10686	8.24002	-4.29274
24.11091	8.24002	-4.29274
24.11497	8.24002	-4.29274
24.11903	8.24002	-4.29274
24.12308	8.24002	-4.29274
24.12714	8.24002	-4.29274
24.13117	8.21805	-4.29274
24.13523	8.21805	-4.29274
24.13928	8.21805	-4.29274
24.14334	8.21805	-4.29274
24.14740	8.19608	-4.29274
24.15168	8.21805	-4.29274
24.15574	8.19608	-4.29274
24.15979	8.19608	-4.29274
24.16385	8.19608	-4.29274
24.16791	8.19608	-4.29274
24.17196	8.19608	-4.29274
24.17602	8.17411	-4.29274
24.18008	8.17411	-4.29274
24.18414	8.17411	-4.29274
24.18820	8.17411	-4.29274
24.19226	8.17411	-4.29274
24.19632	8.17411	-4.29274
24.20037	8.15213	-4.29274
24.20443	8.15213	-4.29274
24.20849	8.15213	-4.29274
24.21255	8.15213	-4.29274
24.21660	8.15213	-4.29274
24.22066	8.15213	-4.29274
24.22471	8.15213	-4.29274
24.22877	8.15213	-4.29274
24.23283	8.15213	-4.29274
24.23689	8.15213	-4.29274
24.24094	8.13016	-4.29274
24.24500	8.13016	-4.29274
24.24905	8.13016	-4.29274
24.25334	8.13016	-4.29274
24.25740	8.13016	-4.29274
24.26146	8.13016	-4.29274
24.26552	8.10819	-4.29274
24.26957	8.10819	-4.29274
24.27363	8.10819	-4.29274
24.27769	8.10819	-4.29274
24.28175	8.10819	-4.29274
24.28581	8.10819	-4.29274
24.28987	8.10819	-4.29274
24.29393	8.10819	-4.29274
24.29798	8.10819	-4.29274
24.30204	8.10819	-4.29274
24.30610	8.10819	-4.29274
24.31015	8.10819	-4.29274
24.31421	8.10819	-4.29274
24.31827	8.08621	-4.29274
24.32232	8.10819	-4.29274
24.32638	8.10819	-4.29274
24.33044	8.10819	-4.29274
24.33449	8.10819	-4.29274
24.33855	8.10819	-4.29274
24.34261	8.10819	-4.29274
24.34666	8.10819	-4.29274
24.35072	8.10819	-4.29274
24.35500	8.10819	-4.29274
24.35906	8.10819	-4.29274
24.36312	8.10819	-4.29274
24.36718	8.10819	-4.29274
24.37124	8.10819	-4.29274
24.37529	8.10819	-4.29274
24.37935	8.10819	-4.29274
24.38342	8.10819	-4.29274
24.38748	8.10819	-4.29274
24.39154	8.10819	-4.29274
24.39560	8.10819	-4.29274
24.39965	8.10819	-4.29274
24.40371	8.10819	-4.29274
24.40777	8.10819	-4.29274
24.41182	8.10819	-4.29274
24.41588	8.10819	-4.29274
24.41994	8.10819	-4.29274
24.42399	8.13016	-4.29274
24.42805	8.10819	-4.29274
24.43211	8.13016	-4.29274
24.43616	8.13016	-4.29274
24.44022	8.13016	-4.29274
24.44428	8.13016	-4.29274
24.44833	8.13016	-4.29274
24.45239	8.15213	-4.29274
24.45667	8.15213	-4.29274
24.46073	8.15213	-4.29274
24.46479	8.15213	-4.29274
24.46884	8.15213	-4.29274
24.47290	8.15213	-4.29274
24.47696	8.15213	-4.29274
24.48101	8.15213	-4.29274
24.48508	8.15213	-4.29274
24.48914	8.17411	-4.29274
24.49320	8.17411	-4.29274
24.49725	8.17411	-4.29274
24.50131	8.17411	-4.29274
24.50537	8.19608	-4.29274
24.50942	8.19608	-4.29274
24.51348	8.19608	-4.29274
24.51754	8.19608	-4.29274
24.52159	8.19608	-4.29274
24.52565	8.19608	-4.29274
24.52971	8.21805	-4.29274
24.53377	8.21805	-4.29274
24.53782	8.21805	-4.29274
24.54188	8.21805	-4.29274
24.54594	8.21805	-4.29274
24.54999	8.24002	-4.29274
24.55405	8.24002	-4.29274
24.55834	8.24002	-4.29274
24.56240	8.26200	-4.29274
24.56646	8.24002	-4.29274
24.57051	8.24002	-4.29274
24.57457	8.26200	-4.29274
24.57863	8.26200	-4.29274
24.58269	8.28397	-4.29274
24.58676	8.28397	-4.29274
24.59082	8.28397	-4.29274
24.59487	8.28397	-4.29274
24.59893	8.28397	-4.29274
24.60299	8.28397	-4.29274
24.60704	8.30594	-4.29274
24.61110	8.30594	-4.29274
24.61516	8.30594	-4.29274
24.61917	8.30594	-4.29274
24.62323	8.30594	-4.29274
24.62729	8.30594	-4.29274
24.63134	8.32791	-4.29274
24.63540	8.32791	-4.29274
24.63945	8.32791	-4.29274
24.64351	8.34989	-4.29274
24.64757	8.34989	-4.29274
24.65162	8.34989	-4.29274
24.65568	8.34989	-4.29274
24.65996	8.34989	-4.29274
24.66402	8.34989	-4.29274
24.66808	8.37186	-4.29274
24.67214	8.37186	-4.29274
24.67619	8.34989	-4.29274
24.68025	8.37186	-4.29274
24.68431	8.37186	-4.29274
24.68838	8.37186	-4.29274
24.69244	8.39383	-4.29274
24.69650	8.39383	-4.29274
24.70055	8.39383	-4.29274
24.70461	8.39383	-4.29274
24.70867	8.41580	-4.29274
24.71273	8.41580	-4.29274
24.71679	8.41580	-4.29274
24.72085	8.41580	-4.29274
24.72490	8.41580	-4.29274
24.72896	8.41580	-4.29274
24.73301	8.43778	-4.29274
24.73707	8.43778	-4.29274
24.74113	8.43778	-4.29274
24.74518	8.43778	-4.29274
24.74924	8.45975	-4.29274
24.75330	8.45975	-4.29274
24.75735	8.45975	-4.29274
24.76164	8.45975	-4.29274
24.76570	8.45975	-4.29274
24.76975	8.48172	-4.29274
24.77381	8.48172	-4.29274
24.77787	8.48172	-4.29274
24.78192	8.48172	-4.29274
24.78598	8.48172	-4.29274
24.79005	8.50369	-4.29274
24.79411	8.48172	-4.29274
24.79816	8.50369	-4.29274
24.80222	8.50369	-4.29274
24.80628	8.50369	-4.29274
24.81033	8.52567	-4.29274
24.81439	8.52567	-4.29274
24.81845	8.52567	-4.29274
24.82251	8.52567	-4.29274
24.82656	8.52567	-4.29274
24.83062	8.52567	-4.29274
24.83468	8.54764	-4.29274
24.83873	8.54764	-4.29274
24.84279	8.54764	-4.29274
24.84685	8.54764	-4.29274
24.85090	8.54764	-4.29274
24.85496	8.54764	-4.29274
24.85902	8.54764	-4.29274
24.86332	8.56961	-4.29274
24.86737	8.56961	-4.29274
24.87143	8.56961	-4.29274
24.87549	8.56961	-4.29274
24.87954	8.56961	-4.29274
24.88360	8.59159	-4.29274
24.88766	8.59159	-4.29274
24.89172	8.59159	-4.29274
24.89578	8.59159	-4.29274
24.89984	8.59159	-4.29274
24.90389	8.59159	-4.29274
24.90795	8.59159	-4.29274
24.91201	8.59159	-4.29274
24.91607	8.59159	-4.29274
24.92012	8.59159	-4.29274
24.92418	8.61356	-4.29274
24.92823	8.61356	-4.29274
24.93229	8.61356	-4.29274
24.93635	8.61356	-4.29274
24.94040	8.61356	-4.29274
24.94446	8.61356	-4.29274
24.94852	8.61356	-4.29274
24.95257	8.61356	-4.29274
24.95663	8.61356	-4.29274
24.96069	8.63553	-4.29274
24.96497	8.63553	-4.29274
24.96903	8.63553	-4.29274
24.97309	8.63553	-4.29274
24.97714	8.63553	-4.29274
24.98120	8.63553	-4.29274
24.98526	8.63553	-4.29274
24.98932	8.63553	-4.29274
24.99339	8.63553	-4.29274
24.99744	8.63553	-4.29274
25.00150	8.63553	-4.29274
25.00556	8.63553	-4.29274
25.00961	8.65750	-4.29274
25.01367	8.65750	-4.29274
25.01774	8.65750	-4.29274
25.02179	8.65750	-4.29274
25.02585	8.65750	-4.29274
25.02991	8.65750	-4.29274
25.03396	8.65750	-4.29274
25.03802	8.65750	-4.29274
25.04208	8.65750	-4.29274
25.04613	8.65750	-4.29274
25.05019	8.65750	-4.29274
25.05425	8.65750	-4.29274
25.05830	8.65750	-4.29274
25.06236	8.65750	-4.29274
25.06664	8.65750	-4.29274
25.07070	8.63553	-4.29274
25.07475	8.63553	-4.29274
25.07881	8.63553	-4.29274
25.08287	8.63553	-4.29274
25.08693	8.65750	-4.29274
25.09098	8.63553	-4.29274
25.09505	8.63553	-4.29274
25.09911	8.63553	-4.29274
25.10317	8.63553	-4.29274
25.10723	8.63553	-4.29274
25.11129	8.63553	-4.29274
25.11534	8.63553	-4.29274
25.11940	8.63553	-4.29274
25.12346	8.63553	-4.29274
25.12751	8.63553	-4.29274
25.13157	8.63553	-4.29274
25.13563	8.61356	-4.29274
25.13968	8.61356	-4.29274
25.14374	8.61356	-4.29274
25.14780	8.61356	-4.29274
25.15185	8.61356	-4.29274
25.15591	8.61356	-4.29274
25.15997	8.59159	-4.29274
25.16402	8.59159	-4.29274
25.16831	8.59159	-4.29274
25.17237	8.59159	-4.29274
25.17642	8.59159	-4.29274
25.18048	8.56961	-4.29274
25.18454	8.56961	-4.29274
25.18860	8.56961	-4.29274
25.19266	8.56961	-4.29274
25.19672	8.56961	-4.29274
25.20078	8.56961	-4.29274
25.20484	8.56961	-4.29274
25.20889	8.56961	-4.29274
25.21295	8.54764	-4.29274
25.21701	8.54764	-4.29274
25.22106	8.54764	-4.29274
25.22512	8.52567	-4.29274
25.22918	8.52567	-4.29274
25.23323	8.54764	-4.29274
25.23729	8.52567	-4.29274
25.24135	8.52567	-4.29274
25.24540	8.52567	-4.29274
25.24946	8.50369	-4.29274
25.25352	8.50369	-4.29274
25.25757	8.52567	-4.29274
25.26163	8.50369	-4.29274
25.26569	8.50369	-4.29274
25.26998	8.48172	-4.29274
25.27403	8.48172	-4.29274
25.27809	8.48172	-4.29274
25.28215	8.48172	-4.29274
25.28621	8.48172	-4.29274
25.29027	8.45975	-4.29274
25.29433	8.45975	-4.29274
25.29840	8.45975	-4.29274
25.30246	8.45975	-4.29274
25.30651	8.45975	-4.29274
25.31057	8.43778	-4.29274
25.31463	8.43778	-4.29274
25.31868	8.43778	-4.29274
25.32275	8.43778	-4.29274
25.32681	8.41580	-4.29274
25.33086	8.41580	-4.29274
25.33492	8.39383	-4.29274
25.33898	8.39383	-4.29274
25.34303	8.39383	-4.29274
25.34709	8.39383	-4.29274
25.35114	8.39383	-4.29274
25.35517	8.37186	-4.29274
25.35923	8.37186	-4.29274
25.36329	8.37186	-4.29274
25.36734	8.34989	-4.29274
25.37164	8.32791	-4.29274
25.37569	8.32791	-4.29274
25.37975	8.32791	-4.29274
25.38381	8.32791	-4.29274
25.38787	8.30594	-4.29274
25.39193	8.30594	-4.29274
25.39599	8.28397	-4.29274
25.40005	8.28397	-4.29274
25.40410	8.28397	-4.29274
25.40816	8.28397	-4.29274
25.41222	8.26200	-4.29274
25.41627	8.26200	-4.29274
25.42033	8.24002	-4.29274
25.42439	8.24002	-4.29274
25.42844	8.24002	-4.29274
25.43250	8.21805	-4.29274
25.43656	8.21805	-4.29274
25.44061	8.19608	-4.29274
25.44467	8.19608	-4.29274
25.44873	8.19608	-4.29274
25.45278	8.17411	-4.29274
25.45684	8.15213	-4.29274
25.46090	8.15213	-4.29274
25.46495	8.15213	-4.29274
25.46901	8.13016	-4.29274
25.47330	8.13016	-4.29274
25.47736	8.10819	-4.29274
25.48142	8.10819	-4.29274
25.48548	8.10819	-4.29274
25.48954	8.08621	-4.29274
25.49359	8.08621	-4.29274
25.49765	8.06424	-4.29274
25.50172	8.04227	-4.29274
25.50577	8.04227	-4.29274
25.50983	8.04227	-4.29274
25.51389	8.02030	-4.29274
25.51794	7.99832	-4.29274
25.52200	7.99832	-4.29274
25.52606	7.97635	-4.29274
25.53011	7.95438	-4.29274
25.53417	7.95438	-4.29274
25.53823	7.95438	-4.29274
25.54228	7.93241	-4.29274
25.54634	7.93241	-4.29274
25.55040	7.91043	-4.29274
25.55445	7.91043	-4.29274
25.55851	7.88846	-4.29274
25.56257	7.88846	-4.29274
25.56662	7.86649	-4.29274
25.57068	7.84452	-4.29274
25.57497	7.82254	-4.29274
25.57903	7.82254	-4.29274
25.58308	7.82254	-4.29274
25.58714	7.80057	-4.29274
25.59117	7.77860	-4.29274
25.59523	7.77860	-4.29274
25.59929	7.77860	-4.29274
25.60335	7.75662	-4.29274
25.60741	7.73465	-4.29274
25.61147	7.73465	-4.29274
25.61553	7.73465	-4.29274
25.61959	7.71268	-4.29274
25.62364	7.71268	-4.29274
25.62770	7.69071	-4.29274
25.63176	7.66873	-4.29274
25.63582	7.66873	-4.29274
25.63987	7.66873	-4.29274
25.64394	7.64676	-4.29274
25.64800	7.62479	-4.29274
25.65205	7.60282	-4.29274
25.65611	7.60282	-4.29274
25.66017	7.60282	-4.29274
25.66422	7.58084	-4.29274
25.66828	7.58084	-4.29274
25.67234	7.55887	-4.29274
25.67662	7.53690	-4.29274
25.68068	7.53690	-4.29274
25.68474	7.53690	-4.29274
25.68880	7.51493	-4.29274
25.69286	7.49295	-4.29274
25.69691	7.49295	-4.29274
25.70097	7.47098	-4.29274
25.70506	7.47098	-4.29274
25.70913	7.47098	-4.29274
25.71318	7.44901	-4.29274
25.71724	7.42703	-4.29274
25.72130	7.42703	-4.29274
25.72535	7.42703	-4.29274
25.72941	7.40506	-4.29274
25.73347	7.40506	-4.29274
25.73752	7.38309	-4.29274
25.74158	7.36112	-4.29274
25.74564	7.36112	-4.29274
25.74969	7.36112	-4.29274
25.75375	7.33914	-4.29274
25.75780	7.33914	-4.29274
25.76186	7.31717	-4.29274
25.76592	7.31717	-4.29274
25.76997	7.31717	-4.29274
25.77403	7.29520	-4.29274
25.77832	7.29520	-4.29274
25.78238	7.27323	-4.29274
25.78644	7.27323	-4.29274
25.79050	7.27323	-4.29274
25.79455	7.25125	-4.29274
25.79861	7.25125	-4.29274
25.80267	7.22928	-4.29274
25.80673	7.22928	-4.29274
25.81079	7.22928	-4.29274
25.81485	7.22928	-4.29274
25.81890	7.20731	-4.29274
25.82296	7.20731	-4.29274
25.82705	7.18534	-4.29274
25.83110	7.18534	-4.29274
25.83516	7.18534	-4.29274
25.83918	7.18534	-4.29274
25.84324	7.16336	-4.29274
25.84729	7.16336	-4.29274
25.85135	7.16336	-4.29274
25.85540	7.16336	-4.29274
25.85946	7.14139	-4.29274
25.86352	7.14139	-4.29274
25.86757	7.11942	-4.29274
25.87163	7.11942	-4.29274
25.87569	7.11942	-4.29274
25.87998	7.11942	-4.29274
25.88408	7.11942	-4.29274
25.88814	7.11942	-4.29274
25.89219	7.09744	-4.29274
25.89625	7.09744	-4.29274
25.90031	7.09744	-4.29274
25.90437	7.09744	-4.29274
25.90843	7.09744	-4.29274
25.91249	7.09744	-4.29274
25.91654	7.09744	-4.29274
25.92060	7.09744	-4.29274
25.92466	7.07547	-4.29274
25.92871	7.07547	-4.29274
25.93277	7.07547	-4.29274
25.93683	7.07547	-4.29274
25.94089	7.07547	-4.29274
25.94494	7.07547	-4.29274
25.94900	7.07547	-4.29274
25.95305	7.07547	-4.29274
25.95711	7.07547	-4.29274
25.96117	7.07547	-4.29274
25.96522	7.07547	-4.29274
25.96928	7.07547	-4.29274
25.97334	7.05350	-4.29274
25.97739	7.07547	-4.29274
25.98170	7.07547	-4.29274
25.98576	7.07547	-4.29274
25.98982	7.05350	-4.29274
25.99388	7.05350	-4.29274
25.99793	7.07547	-4.29274
26.00199	7.07547	-4.29274
26.00605	7.07547	-4.29274
26.01011	7.07547	-4.29274
26.01417	7.05350	-4.29274
26.01823	7.07547	-4.29274
26.02228	7.07547	-4.29274
26.02634	7.07547	-4.29274
26.03041	7.07547	-4.29274
26.03446	7.07547	-4.29274
26.03852	7.07547	-4.29274
26.04258	7.07547	-4.29274
26.04663	7.07547	-4.29274
26.05069	7.07547	-4.29274
26.05475	7.07547	-4.29274
26.05880	7.07547	-4.29274
26.06286	7.07547	-4.29274
26.06692	7.07547	-4.29274
26.07097	7.07547	-4.29274
26.07503	7.07547	-4.29274
26.07909	7.09744	-4.29274
26.08338	7.09744	-4.29274
26.08744	7.09744	-4.29274
26.09149	7.09744	-4.29274
26.09555	7.09744	-4.29274
26.09961	7.09744	-4.29274
26.10367	7.09744	-4.29274
26.10772	7.09744	-4.29274
26.11179	7.09744	-4.29274
26.11585	7.09744	-4.29274
26.11991	7.11942	-4.29274
26.12397	7.11942	-4.29274
26.12803	7.11942	-4.29274
26.13209	7.11942	-4.29274
26.13615	7.11942	-4.29274
26.14020	7.14139	-4.29274
26.14426	7.11942	-4.29274
26.14831	7.14139	-4.29274
26.15237	7.14139	-4.29274
26.15643	7.14139	-4.29274
26.16048	7.14139	-4.29274
26.16454	7.16336	-4.29274
26.16859	7.14139	-4.29274
26.17265	7.14139	-4.29274
26.17671	7.16336	-4.29274
26.18076	7.16336	-4.29274
26.18503	7.16336	-4.29274
26.18909	7.16336	-4.29274
26.19315	7.18534	-4.29274
26.19720	7.18534	-4.29274
26.20126	7.18534	-4.29274
26.20532	7.18534	-4.29274
26.20937	7.18534	-4.29274
26.21344	7.18534	-4.29274
26.21749	7.18534	-4.29274
26.22155	7.20731	-4.29274
26.22561	7.20731	-4.29274
26.22966	7.20731	-4.29274
26.23372	7.20731	-4.29274
26.23778	7.20731	-4.29274
26.24183	7.22928	-4.29274
26.24589	7.22928	-4.29274
26.24995	7.22928	-4.29274
26.25400	7.22928	-4.29274
26.25806	7.22928	-4.29274
26.26212	7.22928	-4.29274
26.26617	7.22928	-4.29274
26.27023	7.25125	-4.29274
26.27428	7.25125	-4.29274
26.27834	7.25125	-4.29274
26.28240	7.25125	-4.29274
26.28670	7.25125	-4.29274
26.29076	7.27323	-4.29274
26.29482	7.27323	-4.29274
26.29888	7.27323	-4.29274
26.30293	7.27323	-4.29274
26.30699	7.27323	-4.29274
26.31105	7.27323	-4.29274
26.31512	7.29520	-4.29274
26.31920	7.29520	-4.29274
26.32326	7.29520	-4.29274
26.32731	7.29520	-4.29274
26.33137	7.29520	-4.29274
26.33543	7.29520	-4.29274
26.33949	7.31717	-4.29274
26.34355	7.31717	-4.29274
26.34760	7.31717	-4.29274
26.35166	7.31717	-4.29274
26.35572	7.31717	-4.29274
26.35978	7.33914	-4.29274
26.36384	7.33914	-4.29274
26.36790	7.33914	-4.29274
26.37195	7.33914	-4.29274
26.37601	7.33914	-4.29274
26.38007	7.33914	-4.29274
26.38412	7.33914	-4.29274
26.38842	7.33914	-4.29274
26.39248	7.36112	-4.29274
26.39653	7.33914	-4.29274
26.40059	7.36112	-4.29274
26.40465	7.36112	-4.29274
26.40871	7.36112	-4.29274
26.41277	7.36112	-4.29274
26.41692	7.38309	-4.29274
26.42099	7.38309	-4.29274
26.42505	7.38309	-4.29274
26.42910	7.38309	-4.29274
26.43316	7.38309	-4.29274
26.43722	7.38309	-4.29274
26.44128	7.38309	-4.29274
26.44534	7.38309	-4.29274
26.44939	7.38309	-4.29274
26.45345	7.38309	-4.29274
26.45751	7.40506	-4.29274
26.46156	7.40506	-4.29274
26.46562	7.40506	-4.29274
26.46968	7.40506	-4.29274
26.47373	7.40506	-4.29274
26.47779	7.40506	-4.29274
26.48185	7.40506	-4.29274
26.48590	7.40506	-4.29274
26.49019	7.42703	-4.29274
26.49424	7.42703	-4.29274
26.49830	7.42703	-4.29274
26.50236	7.42703	-4.29274
26.50642	7.42703	-4.29274
26.51048	7.42703	-4.29274
26.51454	7.42703	-4.29274
26.51867	7.42703	-4.29274
26.52273	7.42703	-4.29274
26.52679	7.44901	-4.29274
26.53084	7.44901	-4.29274
26.53490	7.44901	-4.29274
26.53896	7.44901	-4.29274
26.54302	7.44901	-4.29274
26.54708	7.44901	-4.29274
26.55113	7.44901	-4.29274
26.55517	7.44901	-4.29274
26.55923	7.47098	-4.29274
26.56328	7.47098	-4.29274
26.56734	7.47098	-4.29274
26.57140	7.47098	-4.29274
26.57545	7.47098	-4.29274
26.57951	7.47098	-4.29274
26.58356	7.47098	-4.29274
26.58762	7.47098	-4.29274
26.59192	7.47098	-4.29274
26.59597	7.47098	-4.29274
26.60003	7.49295	-4.29274
26.60409	7.49295	-4.29274
26.60814	7.49295	-4.29274
26.61220	7.47098	-4.29274
26.61625	7.49295	-4.29274
26.62033	7.49295	-4.29274
26.62439	7.49295	-4.29274
26.62845	7.49295	-4.29274
26.63250	7.49295	-4.29274
26.63656	7.49295	-4.29274
26.64062	7.51493	-4.29274
26.64468	7.51493	-4.29274
26.64874	7.51493	-4.29274
26.65279	7.51493	-4.29274
26.65685	7.51493	-4.29274
26.66091	7.53690	-4.29274
26.66496	7.53690	-4.29274
26.66902	7.51493	-4.29274
26.67308	7.53690	-4.29274
26.67713	7.53690	-4.29274
26.68119	7.53690	-4.29274
26.68525	7.53690	-4.29274
26.68930	7.53690	-4.29274
26.69360	7.53690	-4.29274
26.69765	7.53690	-4.29274
26.70171	7.55887	-4.29274
26.70577	7.55887	-4.29274
26.70983	7.55887	-4.29274
26.71388	7.55887	-4.29274
26.71794	7.55887	-4.29274
26.72201	7.55887	-4.29274
26.72607	7.55887	-4.29274
26.73013	7.58084	-4.29274
26.73418	7.58084	-4.29274
26.73824	7.58084	-4.29274
26.74230	7.58084	-4.29274
26.74635	7.58084	-4.29274
26.75041	7.58084	-4.29274
26.75447	7.58084	-4.29274
26.75852	7.58084	-4.29274
26.76258	7.60282	-4.29274
26.76664	7.60282	-4.29274
26.77069	7.60282	-4.29274
26.77475	7.60282	-4.29274
26.77881	7.60282	-4.29274
26.78286	7.60282	-4.29274
26.78692	7.62479	-4.29274
26.79097	7.62479	-4.29274
26.79528	7.62479	-4.29274
26.79934	7.62479	-4.29274
26.80340	7.62479	-4.29274
26.80745	7.62479	-4.29274
26.81151	7.64676	-4.29274
26.81557	7.64676	-4.29274
26.81962	7.64676	-4.29274
26.82368	7.64676	-4.29274
26.82774	7.64676	-4.29274
26.83180	7.64676	-4.29274
26.83586	7.66873	-4.29274
26.83991	7.66873	-4.29274
26.84397	7.64676	-4.29274
26.84803	7.66873	-4.29274
26.85208	7.66873	-4.29274
26.85614	7.66873	-4.29274
26.86020	7.69071	-4.29274
26.86425	7.69071	-4.29274
26.86831	7.69071	-4.29274
26.87237	7.71268	-4.29274
26.87642	7.71268	-4.29274
26.88048	7.71268	-4.29274
26.88454	7.71268	-4.29274
26.88859	7.71268	-4.29274
26.89265	7.73465	-4.29274
26.89694	7.73465	-4.29274
26.90100	7.73465	-4.29274
26.90505	7.73465	-4.29274
26.90911	7.73465	-4.29274
26.91317	7.75662	-4.29274
26.91722	7.75662	-4.29274
26.92128	7.77860	-4.29274
26.92535	7.77860	-4.29274
26.92941	7.77860	-4.29274
26.93346	7.77860	-4.29274
26.93752	7.80057	-4.29274
26.94158	7.80057	-4.29274
26.94563	7.80057	-4.29274
26.94969	7.80057	-4.29274
26.95375	7.82254	-4.29274
26.95780	7.82254	-4.29274
26.96186	7.82254	-4.29274
26.96592	7.82254	-4.29274
26.96997	7.84452	-4.29274
26.97403	7.84452	-4.29274
26.97809	7.84452	-4.29274
26.98214	7.86649	-4.29274
26.98620	7.86649	-4.29274
26.99026	7.86649	-4.29274
26.99431	7.86649	-4.29274
26.99861	7.88846	-4.29274
27.00266	7.88846	-4.29274
27.00672	7.91043	-4.29274
27.01078	7.91043	-4.29274
27.01483	7.91043	-4.29274
27.01889	7.93241	-4.29274
27.02295	7.93241	-4.29274
27.02702	7.93241	-4.29274
27.03107	7.95438	-4.29274
27.03513	7.95438	-4.29274
27.03917	7.95438	-4.29274
27.04323	7.95438	-4.29274
27.04729	7.97635	-4.29274
27.05134	7.97635	-4.29274
27.05540	7.97635	-4.29274
27.05947	7.99832	-4.29274
27.06353	7.99832	-4.29274
27.06759	8.02030	-4.29274
27.07164	8.02030	-4.29274
27.07570	8.02030	-4.29274
27.07976	8.02030	-4.29274
27.08382	8.04227	-4.29274
27.08787	8.04227	-4.29274
27.09193	8.06424	-4.29274
27.09599	8.06424	-4.29274
27.10027	8.06424	-4.29274
27.10433	8.08621	-4.29274
27.10838	8.08621	-4.29274
27.11244	8.10819	-4.29274
27.11650	8.10819	-4.29274
27.12056	8.10819	-4.29274
27.12462	8.10819	-4.29274
27.12869	8.13016	-4.29274
27.13275	8.13016	-4.29274
27.13682	8.15213	-4.29274
27.14087	8.15213	-4.29274
27.14493	8.15213	-4.29274
27.14899	8.17411	-4.29274
27.15304	8.17411	-4.29274
27.15710	8.17411	-4.29274
27.16116	8.17411	-4.29274
27.16521	8.19608	-4.29274
27.16927	8.21805	-4.29274
27.17333	8.21805	-4.29274
27.17738	8.21805	-4.29274
27.18144	8.21805	-4.29274
27.18550	8.24002	-4.29274
27.18955	8.24002	-4.29274
27.19361	8.26200	-4.29274
27.19767	8.26200	-4.29274
27.20195	8.28397	-4.29274
27.20601	8.28397	-4.29274
27.21007	8.28397	-4.29274
27.21413	8.30594	-4.29274
27.21818	8.30594	-4.29274
27.22224	8.30594	-4.29274
27.22630	8.30594	-4.29274
27.23036	8.32791	-4.29274
27.23442	8.32791	-4.29274
27.23848	8.34989	-4.29274
27.24254	8.34989	-4.29274
27.24659	8.34989	-4.29274
27.25065	8.34989	-4.29274
27.25471	8.37186	-4.29274
27.25876	8.37186	-4.29274
27.26282	8.39383	-4.29274
27.26688	8.39383	-4.29274
27.27093	8.39383	-4.29274
27.27499	8.39383	-4.29274
27.27905	8.41580	-4.29274
27.28310	8.41580	-4.29274
27.28717	8.41580	-4.29274
27.29123	8.41580	-4.29274
27.29528	8.43778	-4.29274
27.29934	8.43778	-4.29274
27.30363	8.45975	-4.29274
27.30768	8.45975	-4.29274
27.31174	8.45975	-4.29274
27.31580	8.48172	-4.29274
27.31986	8.48172	-4.29274
27.32391	8.48172	-4.29274
27.32797	8.50369	-4.29274
27.33203	8.50369	-4.29274
27.33609	8.50369	-4.29274
27.34015	8.50369	-4.29274
27.34420	8.52567	-4.29274
27.34826	8.52567	-4.29274
27.35232	8.52567	-4.29274
27.35638	8.54764	-4.29274
27.36044	8.54764	-4.29274
27.36449	8.54764	-4.29274
27.36855	8.54764	-4.29274
27.37261	8.56961	-4.29274
27.37667	8.56961	-4.29274
27.38072	8.56961	-4.29274
27.38478	8.56961	-4.29274
27.38884	8.59159	-4.29274
27.39289	8.59159	-4.29274
27.39695	8.59159	-4.29274
27.40101	8.61356	-4.29274
27.40530	8.61356	-4.29274
27.40935	8.61356	-4.29274
27.41341	8.61356	-4.29274
27.41747	8.61356	-4.29274
27.42153	8.61356	-4.29274
27.42558	8.63553	-4.29274
27.42964	8.63553	-4.29274
27.43371	8.63553	-4.29274
27.43777	8.63553	-4.29274
27.44183	8.65750	-4.29274
27.44588	8.65750	-4.29274
27.44994	8.65750	-4.29274
27.45400	8.65750	-4.29274
27.45805	8.67948	-4.29274
27.46211	8.67948	-4.29274
27.46617	8.67948	-4.29274
27.47022	8.67948	-4.29274
27.47428	8.67948	-4.29274
27.47834	8.70145	-4.29274
27.48239	8.70145	-4.29274
27.48645	8.70145	-4.29274
27.49051	8.70145	-4.29274
27.49456	8.70145	-4.29274
27.49862	8.70145	-4.29274
27.50268	8.70145	-4.29274
27.50696	8.72342	-4.29274
27.51102	8.72342	-4.29274
27.51508	8.72342	-4.29274
27.51913	8.72342	-4.29274
27.52317	8.72342	-4.29274
27.52723	8.72342	-4.29274
27.53129	8.72342	-4.29274
27.53536	8.74539	-4.29274
27.53941	8.72342	-4.29274
27.54348	8.74539	-4.29274
27.54754	8.74539	-4.29274
27.55160	8.74539	-4.29274
27.55565	8.74539	-4.29274
27.55971	8.74539	-4.29274
27.56377	8.74539	-4.29274
27.56782	8.74539	-4.29274
27.57188	8.74539	-4.29274
27.57594	8.74539	-4.29274
27.57999	8.74539	-4.29274
27.58405	8.74539	-4.29274
27.58811	8.74539	-4.29274
27.59216	8.74539	-4.29274
27.59622	8.74539	-4.29274
27.60027	8.74539	-4.29274
27.60433	8.74539	-4.29274
27.60862	8.74539	-4.29274
27.61268	8.74539	-4.29274
27.61673	8.74539	-4.29274
27.62079	8.74539	-4.29274
27.62485	8.74539	-4.29274
27.62890	8.74539	-4.29274
27.63296	8.74539	-4.29274
27.63703	8.74539	-4.29274
27.64109	8.74539	-4.29274
27.64515	8.74539	-4.29274
27.64921	8.74539	-4.29274
27.65326	8.74539	-4.29274
27.65732	8.74539	-4.29274
27.66138	8.74539	-4.29274
27.66543	8.74539	-4.29274
27.66949	8.74539	-4.29274
27.67355	8.74539	-4.29274
27.67760	8.74539	-4.29274
27.68166	8.72342	-4.29274
27.68572	8.72342	-4.29274
27.68977	8.72342	-4.29274
27.69383	8.72342	-4.29274
27.69789	8.72342	-4.29274
27.70194	8.72342	-4.29274
27.70600	8.72342	-4.29274
27.71029	8.72342	-4.29274
27.71435	8.72342	-4.29274
27.71841	8.72342	-4.29274
27.72246	8.70145	-4.29274
27.72652	8.70145	-4.29274
27.73058	8.70145	-4.29274
27.73463	8.67948	-4.29274
27.73870	8.67948	-4.29274
27.74276	8.70145	-4.29274
27.74682	8.70145	-4.29274
27.75088	8.67948	-4.29274
27.75494	8.67948	-4.29274
27.75900	8.67948	-4.29274
27.76305	8.67948	-4.29274
27.76711	8.67948	-4.29274
27.77117	8.67948	-4.29274
27.77523	8.65750	-4.29274
27.77928	8.65750	-4.29274
27.78334	8.65750	-4.29274
27.78740	8.65750	-4.29274
27.79145	8.65750	-4.29274
27.79551	8.63553	-4.29274
27.79957	8.63553	-4.29274
27.80362	8.63553	-4.29274
27.80768	8.63553	-4.29274
27.81196	8.63553	-4.29274
27.81602	8.63553	-4.29274
27.82008	8.63553	-4.29274
27.82413	8.63553	-4.29274
27.82819	8.61356	-4.29274
27.83225	8.61356	-4.29274
27.83630	8.61356	-4.29274
27.84037	8.59159	-4.29274
27.84442	8.59159	-4.29274
27.84848	8.59159	-4.29274
27.85254	8.59159	-4.29274
27.85660	8.59159	-4.29274
27.86065	8.59159	-4.29274
27.86471	8.56961	-4.29274
27.86877	8.56961	-4.29274
27.87282	8.56961	-4.29274
27.87688	8.56961	-4.29274
27.88094	8.56961	-4.29274
27.88499	8.54764	-4.29274
27.88905	8.54764	-4.29274
27.89311	8.54764	-4.29274
27.89716	8.54764	-4.29274
27.90122	8.52567	-4.29274
27.90528	8.52567	-4.29274
27.90933	8.52567	-4.29274
27.91363	8.52567	-4.29274
27.91768	8.52567	-4.29274
27.92174	8.50369	-4.29274
27.92580	8.50369	-4.29274
27.92986	8.50369	-4.29274
27.93391	8.48172	-4.29274
27.93797	8.48172	-4.29274
27.94204	8.48172	-4.29274
27.94609	8.45975	-4.29274
27.95015	8.45975	-4.29274
27.95421	8.45975	-4.29274
27.95827	8.45975	-4.29274
27.96232	8.43778	-4.29274
27.96638	8.45975	-4.29274
27.97044	8.43778	-4.29274
27.97449	8.43778	-4.29274
27.97855	8.43778	-4.29274
27.98261	8.41580	-4.29274
27.98666	8.41580	-4.29274
27.99072	8.41580	-4.29274
27.99478	8.41580	-4.29274
27.99883	8.41580	-4.29274
28.00289	8.39383	-4.29274
28.00695	8.39383	-4.29274
28.01100	8.37186	-4.29274
28.01530	8.39383	-4.29274
28.01936	8.39383	-4.29274
28.02342	8.37186	-4.29274
28.02747	8.37186	-4.29274
28.03153	8.34989	-4.29274
28.03559	8.34989	-4.29274
28.03964	8.34989	-4.29274
28.04370	8.34989	-4.29274
28.04776	8.32791	-4.29274
28.05182	8.32791	-4.29274
28.05588	8.32791	-4.29274
28.05995	8.32791	-4.29274
28.06401	8.32791	-4.29274
28.06806	8.30594	-4.29274
28.07212	8.30594	-4.29274
28.07618	8.30594	-4.29274
28.08023	8.30594	-4.29274
28.08429	8.30594	-4.29274
28.08835	8.28397	-4.29274
28.09240	8.28397	-4.29274
28.09646	8.28397	-4.29274
28.10052	8.26200	-4.29274
28.10457	8.26200	-4.29274
28.10863	8.26200	-4.29274
28.11269	8.26200	-4.29274
28.11697	8.24002	-4.29274
28.12103	8.24002	-4.29274
28.12509	8.24002	-4.29274
28.12914	8.24002	-4.29274
28.13320	8.21805	-4.29274
28.13726	8.21805	-4.29274
28.14131	8.21805	-4.29274
28.14538	8.21805	-4.29274
28.14944	8.21805	-4.29274
28.15350	8.19608	-4.29274
28.15756	8.19608	-4.29274
28.16161	8.19608	-4.29274
28.16567	8.19608	-4.29274
28.16973	8.19608	-4.29274
28.17378	8.17411	-4.29274
28.17784	8.17411	-4.29274
28.18190	8.17411	-4.29274
28.18595	8.17411	-4.29274
28.19001	8.17411	-4.29274
28.19407	8.15213	-4.29274
28.19812	8.15213	-4.29274
28.20218	8.15213	-4.29274
28.20624	8.15213	-4.29274
28.21029	8.15213	-4.29274
28.21435	8.15213	-4.29274
28.21864	8.13016	-4.29274
28.22270	8.13016	-4.29274
28.22675	8.13016	-4.29274
28.23081	8.13016	-4.29274
28.23487	8.10819	-4.29274
28.23893	8.10819	-4.29274
28.24298	8.10819	-4.29274
28.24705	8.10819	-4.29274
28.25111	8.10819	-4.29274
28.25517	8.10819	-4.29274
28.25923	8.10819	-4.29274
28.26328	8.08621	-4.29274
28.26734	8.08621	-4.29274
28.27140	8.08621	-4.29274
28.27545	8.08621	-4.29274
28.27951	8.08621	-4.29274
28.28357	8.06424	-4.29274
28.28762	8.06424	-4.29274
28.29168	8.06424	-4.29274
28.29574	8.06424	-4.29274
28.29979	8.06424	-4.29274
28.30385	8.06424	-4.29274
28.30791	8.06424	-4.29274
28.31196	8.04227	-4.29274
28.31602	8.04227	-4.29274
28.32031	8.04227	-4.29274
28.32437	8.04227	-4.29274
28.32843	8.04227	-4.29274
28.33248	8.04227	-4.29274
28.33654	8.04227	-4.29274
28.34060	8.04227	-4.29274
28.34465	8.04227	-4.29274
28.34871	8.04227	-4.29274
28.35277	8.02030	-4.29274
28.35683	8.02030	-4.29274
28.36089	8.02030	-4.29274
28.36495	8.02030	-4.29274
28.36901	8.02030	-4.29274
28.37306	8.02030	-4.29274
28.37712	8.02030	-4.29274
28.38118	8.02030	-4.29274
28.38523	8.02030	-4.29274
28.38929	8.02030	-4.29274
28.39335	8.02030	-4.29274
28.39740	8.02030	-4.29274
28.40146	7.99832	-4.29274
28.40552	7.99832	-4.29274
28.40957	7.99832	-4.29274
28.41363	7.99832	-4.29274
28.41769	7.99832	-4.29274
28.42198	7.99832	-4.29274
28.42603	7.99832	-4.29274
28.43009	7.99832	-4.29274
28.43415	7.99832	-4.29274
28.43820	7.99832	-4.29274
28.44226	7.99832	-4.29274
28.44632	7.99832	-4.29274
28.45038	7.99832	-4.29274
28.45444	7.97635	-4.29274
28.45850	7.97635	-4.29274
28.46256	7.97635	-4.29274
28.46661	7.97635	-4.29274
28.47067	7.97635	-4.29274
28.47473	7.97635	-4.29274
28.47878	7.97635	-4.29274
28.48284	7.97635	-4.29274
28.48689	7.97635	-4.29274
28.49095	7.97635	-4.29274
28.49501	7.97635	-4.29274
28.49906	7.97635	-4.29274
28.50312	7.97635	-4.29274
28.50717	7.97635	-4.29274
28.51123	7.97635	-4.29274
28.51529	7.95438	-4.29274
28.51934	7.95438	-4.29274
28.52364	7.95438	-4.29274
28.52770	7.95438	-4.29274
28.53176	7.95438	-4.29274
28.53581	7.97635	-4.29274
28.53987	7.95438	-4.29274
28.54393	7.95438	-4.29274
28.54798	7.95438	-4.29274
28.55205	7.95438	-4.29274
28.55611	7.95438	-4.29274
28.56017	7.95438	-4.29274
28.56422	7.95438	-4.29274
28.56828	7.95438	-4.29274
28.57234	7.95438	-4.29274
28.57639	7.95438	-4.29274
28.58045	7.95438	-4.29274
28.58451	7.95438	-4.29274
28.58857	7.95438	-4.29274
28.59263	7.93241	-4.29274
28.59668	7.93241	-4.29274
28.60074	7.95438	-4.29274
28.60480	7.93241	-4.29274
28.60885	7.95438	-4.29274
28.61291	7.93241	-4.29274
28.61697	7.93241	-4.29274
28.62102	7.95438	-4.29274
28.62531	7.93241	-4.29274
28.62937	7.93241	-4.29274
28.63342	7.93241	-4.29274
28.63748	7.93241	-4.29274
28.64154	7.93241	-4.29274
28.64559	7.93241	-4.29274
28.64965	7.93241	-4.29274
28.65371	7.93241	-4.29274
28.65777	7.93241	-4.29274
28.66183	7.93241	-4.29274
28.66589	7.95438	-4.29274
28.66994	7.93241	-4.29274
28.67400	7.95438	-4.29274
28.67806	7.95438	-4.29274
28.68211	7.95438	-4.29274
28.68617	7.93241	-4.29274
28.69023	7.95438	-4.29274
28.69429	7.95438	-4.29274
28.69835	7.95438	-4.29274
28.70241	7.95438	-4.29274
28.70645	7.95438	-4.29274
28.71051	7.95438	-4.29274
28.71457	7.95438	-4.29274
28.71862	7.95438	-4.29274
28.72268	7.95438	-4.29274
28.72697	7.95438	-4.29274
28.73103	7.95438	-4.29274
28.73508	7.97635	-4.29274
28.73914	7.97635	-4.29274
28.74317	7.95438	-4.29274
28.74723	7.95438	-4.29274
28.75129	7.97635	-4.29274
28.75536	7.97635	-4.29274
28.75941	7.97635	-4.29274
28.76347	7.97635	-4.29274
28.76753	7.97635	-4.29274
28.77158	7.97635	-4.29274
28.77564	7.97635	-4.29274
28.77970	7.99832	-4.29274
28.78375	7.99832	-4.29274
28.78782	7.99832	-4.29274
28.79187	7.99832	-4.29274
28.79593	7.99832	-4.29274
28.79999	7.99832	-4.29274
28.80404	7.99832	-4.29274
28.80810	7.99832	-4.29274
28.81216	7.99832	-4.29274
28.81621	8.02030	-4.29274
28.82027	8.02030	-4.29274
28.82433	8.02030	-4.29274
28.82861	8.02030	-4.29274
28.83267	8.02030	-4.29274
28.83673	8.02030	-4.29274
28.84079	8.02030	-4.29274
28.84485	8.04227	-4.29274
28.84891	8.04227	-4.29274
28.85296	8.04227	-4.29274
28.85703	8.04227	-4.29274
28.86109	8.04227	-4.29274
28.86515	8.06424	-4.29274
28.86921	8.06424	-4.29274
28.87326	8.06424	-4.29274
28.87732	8.06424	-4.29274
28.88138	8.06424	-4.29274
28.88543	8.08621	-4.29274
28.88949	8.08621	-4.29274
28.89355	8.08621	-4.29274
28.89761	8.08621	-4.29274
28.90167	8.08621	-4.29274
28.90572	8.08621	-4.29274
28.90978	8.10819	-4.29274
28.91383	8.10819	-4.29274
28.91789	8.10819	-4.29274
28.92195	8.10819	-4.29274
28.92600	8.10819	-4.29274
28.93030	8.10819	-4.29274
28.93435	8.13016	-4.29274
28.93841	8.13016	-4.29274
28.94247	8.13016	-4.29274
28.94653	8.13016	-4.29274
28.95058	8.13016	-4.29274
28.95464	8.13016	-4.29274
28.95871	8.13016	-4.29274
28.96277	8.13016	-4.29274
28.96682	8.15213	-4.29274
28.97088	8.15213	-4.29274
28.97494	8.15213	-4.29274
28.97899	8.15213	-4.29274
28.98305	8.15213	-4.29274
28.98711	8.15213	-4.29274
28.99117	8.15213	-4.29274
28.99523	8.15213	-4.29274
28.99929	8.15213	-4.29274
29.00334	8.15213	-4.29274
29.00740	8.17411	-4.29274
29.01146	8.17411	-4.29274
29.01551	8.17411	-4.29274
29.01957	8.17411	-4.29274
29.02363	8.17411	-4.29274
29.02768	8.17411	-4.29274
29.03197	8.17411	-4.29274
29.03603	8.17411	-4.29274
29.04008	8.17411	-4.29274
29.04414	8.17411	-4.29274
29.04820	8.17411	-4.29274
29.05225	8.17411	-4.29274
29.05631	8.17411	-4.29274
29.06037	8.17411	-4.29274
29.06443	8.17411	-4.29274
29.06849	8.17411	-4.29274
29.07255	8.17411	-4.29274
29.07660	8.17411	-4.29274
29.08066	8.17411	-4.29274
29.08472	8.17411	-4.29274
29.08878	8.17411	-4.29274
29.09284	8.17411	-4.29274
29.09689	8.17411	-4.29274
29.10095	8.15213	-4.29274
29.10501	8.15213	-4.29274
29.10906	8.15213	-4.29274
29.11312	8.17411	-4.29274
29.11718	8.15213	-4.29274
29.12123	8.17411	-4.29274
29.12529	8.15213	-4.29274
29.12935	8.15213	-4.29274
29.13363	8.15213	-4.29274
29.13769	8.15213	-4.29274
29.14174	8.13016	-4.29274
29.14580	8.13016	-4.29274
29.14986	8.13016	-4.29274
29.15391	8.13016	-4.29274
29.15798	8.13016	-4.29274
29.16205	8.13016	-4.29274
29.16610	8.10819	-4.29274
29.17016	8.10819	-4.29274
29.17422	8.10819	-4.29274
29.17827	8.10819	-4.29274
29.18233	8.08621	-4.29274
29.18639	8.10819	-4.29274
29.19045	8.08621	-4.29274
29.19451	8.08621	-4.29274
29.19856	8.08621	-4.29274
29.20262	8.08621	-4.29274
29.20668	8.06424	-4.29274
29.21073	8.06424	-4.29274
29.21479	8.06424	-4.29274
29.21885	8.06424	-4.29274
29.22290	8.04227	-4.29274
29.22696	8.04227	-4.29274
29.23102	8.04227	-4.29274
29.23531	8.04227	-4.29274
29.23937	8.04227	-4.29274
29.24343	8.02030	-4.29274
29.24749	8.02030	-4.29274
29.25154	8.02030	-4.29274
29.25560	7.99832	-4.29274
29.25965	7.99832	-4.29274
29.26372	7.99832	-4.29274
29.26777	7.99832	-4.29274
29.27183	7.97635	-4.29274
29.27589	7.97635	-4.29274
29.27994	7.97635	-4.29274
29.28400	7.95438	-4.29274
29.28809	7.95438	-4.29274
29.29215	7.95438	-4.29274
29.29620	7.93241	-4.29274
29.30026	7.93241	-4.29274
29.30432	7.93241	-4.29274
29.30837	7.93241	-4.29274
29.31243	7.91043	-4.29274
29.31649	7.91043	-4.29274
29.32054	7.91043	-4.29274
29.32460	7.88846	-4.29274
29.32866	7.88846	-4.29274
29.33271	7.88846	-4.29274
29.33699	7.86649	-4.29274
29.34105	7.86649	-4.29274
29.34511	7.86649	-4.29274
29.34917	7.84452	-4.29274
29.35322	7.84452	-4.29274
29.35728	7.84452	-4.29274
29.36134	7.82254	-4.29274
29.36541	7.82254	-4.29274
29.36947	7.82254	-4.29274
29.37353	7.82254	-4.29274
29.37758	7.80057	-4.29274
29.38164	7.80057	-4.29274
29.38569	7.77860	-4.29274
29.38976	7.77860	-4.29274
29.39382	7.77860	-4.29274
29.39787	7.75662	-4.29274
29.40193	7.75662	-4.29274
29.40599	7.73465	-4.29274
29.41004	7.73465	-4.29274
29.41410	7.73465	-4.29274
29.41816	7.71268	-4.29274
29.42221	7.71268	-4.29274
29.42627	7.71268	-4.29274
29.43033	7.69071	-4.29274
29.43438	7.69071	-4.29274
29.43867	7.69071	-4.29274
29.44272	7.66873	-4.29274
29.44678	7.66873	-4.29274
29.45084	7.64676	-4.29274
29.45489	7.64676	-4.29274
29.45895	7.64676	-4.29274
29.46301	7.64676	-4.29274
29.46707	7.62479	-4.29274
29.47113	7.60282	-4.29274
29.47517	7.60282	-4.29274
29.47923	7.60282	-4.29274
29.48329	7.60282	-4.29274
29.48734	7.58084	-4.29274
29.49140	7.58084	-4.29274
29.49546	7.58084	-4.29274
29.49952	7.55887	-4.29274
29.50357	7.55887	-4.29274
29.50763	7.53690	-4.29274
29.51169	7.53690	-4.29274
29.51574	7.53690	-4.29274
29.51980	7.53690	-4.29274
29.52386	7.51493	-4.29274
29.52791	7.51493	-4.29274
29.53197	7.49295	-4.29274
29.53603	7.49295	-4.29274
29.54032	7.49295	-4.29274
29.54437	7.47098	-4.29274
29.54843	7.47098	-4.29274
29.55249	7.47098	-4.29274
29.55655	7.44901	-4.29274
29.56061	7.44901	-4.29274
29.56466	7.42703	-4.29274
29.56873	7.42703	-4.29274
29.57279	7.40506	-4.29274
29.57684	7.40506	-4.29274
29.58090	7.40506	-4.29274
29.58496	7.38309	-4.29274
29.58902	7.38309	-4.29274
29.59308	7.38309	-4.29274
29.59713	7.36112	-4.29274
29.60119	7.36112	-4.29274
29.60525	7.36112	-4.29274
29.60931	7.33914	-4.29274
29.61336	7.33914	-4.29274
29.61742	7.31717	-4.29274
29.62148	7.31717	-4.29274
29.62553	7.31717	-4.29274
29.62959	7.31717	-4.29274
29.63365	7.29520	-4.29274
29.63770	7.29520	-4.29274
29.64198	7.27323	-4.29274
29.64604	7.27323	-4.29274
29.65010	7.27323	-4.29274
29.65415	7.25125	-4.29274
29.65821	7.25125	-4.29274
29.66228	7.25125	-4.29274
29.66633	7.25125	-4.29274
29.67040	7.22928	-4.29274
29.67446	7.22928	-4.29274
29.67852	7.20731	-4.29274
29.68257	7.20731	-4.29274
29.68663	7.20731	-4.29274
29.69069	7.20731	-4.29274
29.69475	7.18534	-4.29274
29.69881	7.18534	-4.29274
29.70286	7.16336	-4.29274
29.70692	7.16336	-4.29274
29.71098	7.16336	-4.29274
29.71503	7.14139	-4.29274
29.71909	7.14139	-4.29274
29.72315	7.14139	-4.29274
29.72717	7.11942	-4.29274
29.73123	7.11942	-4.29274
29.73529	7.11942	-4.29274
29.73934	7.11942	-4.29274
29.74362	7.09744	-4.29274
29.74768	7.09744	-4.29274
29.75174	7.09744	-4.29274
29.75579	7.07547	-4.29274
29.75985	7.07547	-4.29274
29.76391	7.07547	-4.29274
29.76797	7.05350	-4.29274
29.77203	7.05350	-4.29274
29.77609	7.03153	-4.29274
29.78014	7.05350	-4.29274
29.78420	7.03153	-4.29274
29.78826	7.00955	-4.29274
29.79231	7.00955	-4.29274
29.79637	7.00955	-4.29274
29.80043	7.00955	-4.29274
29.80449	7.00955	-4.29274
29.80854	6.98758	-4.29274
29.81260	6.98758	-4.29274
29.81666	6.98758	-4.29274
29.82071	6.98758	-4.29274
29.82477	6.96561	-4.29274
29.82883	6.96561	-4.29274
29.83288	6.94364	-4.29274
29.83694	6.94364	-4.29274
29.84100	6.94364	-4.29274
29.84528	6.94364	-4.29274
29.84933	6.94364	-4.29274
29.85339	6.92166	-4.29274
29.85745	6.92166	-4.29274
29.86150	6.92166	-4.29274
29.86556	6.92166	-4.29274
29.86962	6.92166	-4.29274
29.87369	6.89969	-4.29274
29.87775	6.87772	-4.29274
29.88180	6.89969	-4.29274
29.88586	6.89969	-4.29274
29.88992	6.87772	-4.29274
29.89398	6.87772	-4.29274
29.89804	6.85575	-4.29274
29.90209	6.85575	-4.29274
29.90615	6.85575	-4.29274
29.91021	6.85575	-4.29274
29.91426	6.85575	-4.29274
29.91832	6.85575	-4.29274
29.92238	6.85575	-4.29274
29.92643	6.85575	-4.29274
29.93049	6.83377	-4.29274
29.93455	6.83377	-4.29274
29.93860	6.81180	-4.29274
29.94266	6.81180	-4.29274
29.94694	6.81180	-4.29274
29.95100	6.81180	-4.29274
29.95505	6.81180	-4.29274
29.95911	6.81180	-4.29274
29.96317	6.81180	-4.29274
29.96723	6.81180	-4.29274
29.97128	6.81180	-4.29274
29.97535	6.81180	-4.29274
29.97941	6.81180	-4.29274
29.98347	6.81180	-4.29274
29.98752	6.81180	-4.29274
29.99159	6.78983	-4.29274
29.99564	6.78983	-4.29274
29.99970	6.78983	-4.29274
