Time (s)   roll (deg)   Delta
0.00041	-5.11935	11.27051
0.00465	-5.11935	11.27051
0.00883	-5.11935	11.27051
0.01301	-5.09738	11.27051
0.01731	-5.09738	11.27051
0.02151	-5.09738	11.27051
0.02569	-5.09738	11.27051
0.02986	-5.09738	11.27051
0.03402	-5.09738	11.27051
0.03819	-5.07541	11.27051
0.04236	-5.09738	11.27051
0.04665	-5.09738	11.27051
0.05089	-5.09738	11.27051
0.05507	-5.07541	11.27051
0.05924	-5.09738	11.27051
0.06341	-5.07541	11.27051
0.06758	-5.07541	11.27051
0.07175	-5.07541	11.27051
0.07598	-5.09738	11.27051
0.08024	-5.07541	11.27051
0.08442	-5.09738	11.27051
0.08859	-5.09738	11.27051
0.09276	-5.09738	11.27051
0.09693	-5.09738	11.27051
0.10119	-5.09738	11.27051
0.10537	-5.09738	11.27051
0.10967	-5.11935	11.27051
0.11387	-5.11935	11.27051
0.11806	-5.11935	11.27051
0.12224	-5.14132	11.27051
0.12643	-5.14132	11.27051
0.13062	-5.14132	11.27051
0.13480	-5.16330	11.27051
0.13924	-5.16330	11.27051
0.14345	-5.18527	11.27051
0.14764	-5.20724	11.27051
0.15182	-5.22922	11.27051
0.15602	-5.22922	11.27051
0.16021	-5.22922	11.27051
0.16439	-5.25119	11.27051
0.16866	-5.27316	11.27051
0.17292	-5.29513	11.27051
0.17711	-5.29513	11.27051
0.18130	-5.31711	11.27051
0.18548	-5.33908	11.27051
0.18967	-5.36105	11.27051
0.19386	-5.38302	11.27051
0.19811	-5.40500	11.27051
0.20249	-5.42697	11.27051
0.20668	-5.42697	11.27051
0.21086	-5.47091	11.27051
0.21505	-5.49289	11.27051
0.21923	-5.51486	11.27051
0.22342	-5.53683	11.27051
0.22760	-5.58078	11.27051
0.23189	-5.58078	11.27051
0.23610	-5.60275	11.27051
0.24030	-5.64670	11.27051
0.24448	-5.69064	11.27051
0.24866	-5.73459	11.27051
0.25285	-5.73459	11.27051
0.25704	-5.75656	11.27051
0.26147	-5.80050	11.27051
0.26569	-5.84445	11.27051
0.26989	-5.88839	11.27051
0.27408	-5.93234	11.27051
0.27826	-5.95431	11.27051
0.28245	-5.95431	11.27051
0.28664	-5.99826	11.27051
0.29091	-6.04220	11.27051
0.29516	-6.08615	11.27051
0.29936	-6.13009	11.27051
0.30365	-6.17404	11.27051
0.30783	-6.17404	11.27051
0.31202	-6.23996	11.27051
0.31620	-6.28390	11.27051
0.32046	-6.32785	11.27051
0.32472	-6.37179	11.27051
0.32893	-6.43771	11.27051
0.33311	-6.50363	11.27051
0.33730	-6.50363	11.27051
0.34148	-6.54757	11.27051
0.34567	-6.59152	11.27051
0.34985	-6.65744	11.27051
0.35414	-6.70138	11.27051
0.35835	-6.70138	11.27051
0.36255	-6.78927	11.27051
0.36674	-6.83322	11.27051
0.37093	-6.87716	11.27051
0.37512	-6.94308	11.27051
0.37930	-7.00900	11.27051
0.38370	-7.07492	11.27051
0.38792	-7.07492	11.27051
0.39211	-7.14084	11.27051
0.39629	-7.20675	11.27051
0.40048	-7.27267	11.27051
0.40476	-7.31662	11.27051
0.40895	-7.38254	11.27051
0.41321	-7.44845	11.27051
0.41751	-7.44845	11.27051
0.42171	-7.53634	11.27051
0.42590	-7.60226	11.27051
0.43008	-7.66818	11.27051
0.43427	-7.73410	11.27051
0.43846	-7.82199	11.27051
0.44273	-7.82199	11.27051
0.44700	-7.88791	11.27051
0.45120	-7.97580	11.27051
0.45539	-8.04172	11.27051
0.45958	-8.10763	11.27051
0.46376	-8.17355	11.27051
0.46795	-8.17355	11.27051
0.47213	-8.26144	11.27051
0.47642	-8.32736	11.27051
0.48062	-8.41525	11.27051
0.48481	-8.50314	11.27051
0.48900	-8.59103	11.27051
0.49319	-8.59103	11.27051
0.49737	-8.67892	11.27051
0.50156	-8.74484	11.27051
0.50607	-8.83273	11.27051
0.51029	-8.92062	11.27051
0.51447	-9.00851	11.27051
0.51864	-9.00851	11.27051
0.52283	-9.09640	11.27051
0.52701	-9.18429	11.27051
0.53120	-9.25021	11.27051
0.53546	-9.33810	11.27051
0.53971	-9.42599	11.27051
0.54390	-9.42599	11.27051
0.54809	-9.51388	11.27051
0.55227	-9.60177	11.27051
0.55646	-9.68966	11.27051
0.56065	-9.77756	11.27051
0.56490	-9.86545	11.27051
0.56915	-9.86545	11.27051
0.57336	-9.95334	11.27051
0.57755	-10.04123	11.27051
0.58173	-10.12912	11.27051
0.58592	-10.21701	11.27051
0.59010	-10.32687	11.27051
0.59428	-10.41476	11.27051
0.59858	-10.41476	11.27051
0.60280	-10.50265	11.27051
0.60710	-10.59054	11.27051
0.61128	-10.70041	11.27051
0.61546	-10.78830	11.27051
0.61965	-10.87619	11.27051
0.62383	-10.96408	11.27051
0.62822	-10.96408	11.27051
0.63244	-11.05197	11.27051
0.63663	-11.16183	11.27051
0.64081	-11.24972	11.27051
0.64500	-11.33761	11.27051
0.64918	-11.33761	11.27051
0.65336	-11.44748	11.27051
0.65762	-11.53537	11.27051
0.66186	-11.62326	11.27051
0.66606	-11.71115	11.27051
0.67024	-11.82101	11.27051
0.67443	-11.93088	11.27051
0.67862	-11.93088	11.27051
0.68280	-12.01877	11.27051
0.68705	-12.10666	11.27051
0.69132	-12.21652	11.27051
0.69552	-12.30441	11.27051
0.69970	-12.41427	11.27051
0.70389	-12.48019	11.27051
0.70818	-12.48019	11.27051
0.71237	-12.59006	11.27051
0.71655	-12.67795	11.27051
0.72084	-12.78781	11.27051
0.72505	-12.89767	11.27051
0.72924	-12.89767	11.27051
0.73342	-13.00754	11.27051
0.73761	-13.09543	11.27051
0.74179	-13.18332	11.27051
0.74597	-13.29318	11.27051
0.75036	-13.38107	11.27051
0.75459	-13.38107	11.27051
0.75877	-13.49093	11.27051
0.76296	-13.57882	11.27051
0.76714	-13.71066	11.27051
0.77132	-13.79855	11.27051
0.77551	-13.88644	11.27051
0.77978	-13.88644	11.27051
0.78402	-13.99631	11.27051
0.78822	-14.10617	11.27051
0.79240	-14.17209	11.27051
0.79659	-14.25998	11.27051
0.80077	-14.36984	11.27051
0.80496	-14.36984	11.27051
0.80931	-14.47970	11.27051
0.81357	-14.56759	11.27051
0.81777	-14.67746	11.27051
0.82196	-14.76535	11.27051
0.82614	-14.87521	11.27051
0.83032	-14.96310	11.27051
0.83452	-14.96310	11.27051
0.83870	-15.07297	11.27051
0.84299	-15.16086	11.27051
0.84719	-15.24875	11.27051
0.85138	-15.35861	11.27051
0.85556	-15.46847	11.27051
0.85975	-15.46847	11.27051
0.86393	-15.55636	11.27051
0.86812	-15.66623	11.27051
0.87253	-15.75412	11.27051
0.87675	-15.84201	11.27051
0.88093	-15.92990	11.27051
0.88512	-16.03976	11.27051
0.88931	-16.03976	11.27051
0.89349	-16.12765	11.27051
0.89767	-16.23752	11.27051
0.90194	-16.32541	11.27051
0.90618	-16.43527	11.27051
0.91049	-16.43527	11.27051
0.91464	-16.61105	11.27051
0.91883	-16.61105	11.27051
0.92301	-16.69894	11.27051
0.92719	-16.78683	11.27051
0.93144	-16.89670	11.27051
0.93570	-16.98459	11.27051
0.93990	-16.98459	11.27051
0.94409	-17.07248	11.27051
0.94828	-17.18234	11.27051
0.95246	-17.27023	11.27051
0.95664	-17.35812	11.27051
0.96082	-17.42404	11.27051
0.96511	-17.53390	11.27051
0.96932	-17.53390	11.27051
0.97351	-17.62179	11.27051
0.97769	-17.70968	11.27051
0.98188	-17.79757	11.27051
0.98606	-17.88547	11.27051
0.99026	-17.88547	11.27051
0.99473	-17.97336	11.27051
0.99895	-18.06125	11.27051
1.00314	-18.14914	11.27051
1.00733	-18.23703	11.27051
1.01162	-18.32492	11.27051
1.01580	-18.32492	11.27051
1.01999	-18.41281	11.27051
1.02425	-18.50070	11.27051
1.02850	-18.58859	11.27051
1.03270	-18.67648	11.27051
1.03689	-18.74240	11.27051
1.04107	-18.74240	11.27051
1.04526	-18.83029	11.27051
1.04944	-18.89621	11.27051
1.05369	-18.98410	11.27051
1.05795	-19.07199	11.27051
1.06215	-19.13791	11.27051
1.06634	-19.22580	11.27051
1.07054	-19.22580	11.27051
1.07472	-19.29172	11.27051
1.07890	-19.37961	11.27051
1.08309	-19.46750	11.27051
1.08737	-19.51144	11.27051
1.09158	-19.59933	11.27051
1.09576	-19.59933	11.27051
1.09995	-19.66525	11.27051
1.10413	-19.73117	11.27051
1.10832	-19.79709	11.27051
1.11260	-19.88498	11.27051
1.11699	-19.95089	11.27051
1.12120	-19.95089	11.27051
1.12539	-20.01681	11.27051
1.12958	-20.10470	11.27051
1.13376	-20.14865	11.27051
1.13795	-20.21457	11.27051
1.14216	-20.28048	11.27051
1.14644	-20.34640	11.27051
1.15072	-20.34640	11.27051
1.15492	-20.41232	11.27051
1.15911	-20.47824	11.27051
1.16330	-20.54416	11.27051
1.16749	-20.58810	11.27051
1.17167	-20.63205	11.27051
1.17592	-20.69797	11.27051
1.18018	-20.69797	11.27051
1.18439	-20.74191	11.27051
1.18857	-20.80783	11.27051
1.19276	-20.82980	11.27051
1.19694	-20.89572	11.27051
1.20115	-20.89572	11.27051
1.20534	-20.91769	11.27051
1.20964	-20.96164	11.27051
1.21396	-20.98361	11.27051
1.21815	-21.00558	11.27051
1.22234	-21.02756	11.27051
1.22654	-21.02756	11.27051
1.23073	-21.02756	11.27051
1.23492	-21.07150	11.27051
1.23933	-21.07150	11.27051
1.24355	-21.07150	11.27051
1.24774	-21.07150	11.27051
1.25192	-21.04953	11.27051
1.25610	-21.04953	11.27051
1.26029	-21.04953	11.27051
1.26448	-21.02756	11.27051
1.26874	-21.02756	11.27051
1.27299	-21.00558	11.27051
1.27719	-20.98361	11.27051
1.28137	-20.98361	11.27051
1.28556	-20.93966	11.27051
1.28975	-20.91769	11.27051
1.29393	-20.87375	11.27051
1.29818	-20.82980	11.27051
1.30244	-20.82980	11.27051
1.30667	-20.82980	11.27051
1.31086	-20.76388	11.27051
1.31521	-20.71994	11.27051
1.31942	-20.67599	11.27051
1.32363	-20.63205	11.27051
1.32812	-20.58810	11.27051
1.33247	-20.52218	11.27051
1.33672	-20.52218	11.27051
1.34094	-20.50021	11.27051
1.34514	-20.45627	11.27051
1.34935	-20.41232	11.27051
1.35357	-20.34640	11.27051
1.35777	-20.30246	11.27051
1.36230	-20.25851	11.27051
1.36655	-20.25851	11.27051
1.37075	-20.19259	11.27051
1.37495	-20.14865	11.27051
1.37915	-20.10470	11.27051
1.38334	-20.03879	11.27051
1.38753	-19.99484	11.27051
1.39176	-19.99484	11.27051
1.39599	-19.95089	11.27051
1.40019	-19.88498	11.27051
1.40438	-19.84103	11.27051
1.40857	-19.77511	11.27051
1.41278	-19.73117	11.27051
1.41710	-19.73117	11.27051
1.42137	-19.66525	11.27051
1.42563	-19.62131	11.27051
1.42984	-19.57736	11.27051
1.43403	-19.53341	11.27051
1.43823	-19.46750	11.27051
1.44242	-19.40158	11.27051
1.44661	-19.40158	11.27051
1.45080	-19.35763	11.27051
1.45508	-19.29172	11.27051
1.45928	-19.24777	11.27051
1.46348	-19.18185	11.27051
1.46767	-19.13791	11.27051
1.47186	-19.09396	11.27051
1.47605	-19.09396	11.27051
1.48024	-19.02804	11.27051
1.48455	-18.96213	11.27051
1.48879	-18.91818	11.27051
1.49299	-18.85226	11.27051
1.49718	-18.85226	11.27051
1.50137	-18.80832	11.27051
1.50556	-18.74240	11.27051
1.50975	-18.67648	11.27051
1.51406	-18.63254	11.27051
1.51843	-18.58859	11.27051
1.52263	-18.58859	11.27051
1.52682	-18.52267	11.27051
1.53101	-18.45675	11.27051
1.53519	-18.39084	11.27051
1.53938	-18.34689	11.27051
1.54363	-18.28097	11.27051
1.54789	-18.28097	11.27051
1.55210	-18.23703	11.27051
1.55629	-18.17111	11.27051
1.56047	-18.12716	11.27051
1.56466	-18.06125	11.27051
1.56884	-18.01730	11.27051
1.57303	-18.01730	11.27051
1.57732	-17.95138	11.27051
1.58153	-17.90744	11.27051
1.58572	-17.86349	11.27051
1.58991	-17.79757	11.27051
1.59410	-17.73166	11.27051
1.59828	-17.68771	11.27051
1.60247	-17.68771	11.27051
1.60685	-17.64377	11.27051
1.61107	-17.57785	11.27051
1.61528	-17.53390	11.27051
1.61960	-17.46798	11.27051
1.62379	-17.42404	11.27051
1.62797	-17.42404	11.27051
1.63216	-17.35812	11.27051
1.63641	-17.31418	11.27051
1.64068	-17.24826	11.27051
1.64488	-17.20431	11.27051
1.64906	-17.16037	11.27051
1.65325	-17.11642	11.27051
1.65744	-17.11642	11.27051
1.66162	-17.05050	11.27051
1.66587	-16.98459	11.27051
1.67014	-16.94064	11.27051
1.67434	-16.87472	11.27051
1.67854	-16.87472	11.27051
1.68273	-16.78683	11.27051
1.68691	-16.78683	11.27051
1.69109	-16.74289	11.27051
1.69528	-16.69894	11.27051
1.69956	-16.63302	11.27051
1.70377	-16.56711	11.27051
1.70795	-16.56711	11.27051
1.71214	-16.52316	11.27051
1.71635	-16.47922	11.27051
1.72064	-16.43527	11.27051
1.72483	-16.36935	11.27051
1.72923	-16.32541	11.27051
1.73346	-16.28146	11.27051
1.73765	-16.28146	11.27051
1.74185	-16.23752	11.27051
1.74604	-16.17160	11.27051
1.75023	-16.12765	11.27051
1.75442	-16.08371	11.27051
1.75873	-16.03976	11.27051
1.76299	-16.03976	11.27051
1.76719	-15.99582	11.27051
1.77139	-15.92990	11.27051
1.77558	-15.88595	11.27051
1.77977	-15.84201	11.27051
1.78396	-15.84201	11.27051
1.78819	-15.79806	11.27051
1.79247	-15.75412	11.27051
1.79667	-15.71017	11.27051
1.80087	-15.64425	11.27051
1.80506	-15.60031	11.27051
1.80925	-15.60031	11.27051
1.81345	-15.55636	11.27051
1.81773	-15.51242	11.27051
1.82214	-15.49045	11.27051
1.82635	-15.42453	11.27051
1.83055	-15.38058	11.27051
1.83474	-15.33664	11.27051
1.83892	-15.33664	11.27051
1.84311	-15.31466	11.27051
1.84729	-15.24875	11.27051
1.85168	-15.22677	11.27051
1.85590	-15.18283	11.27051
1.86010	-15.13888	11.27051
1.86429	-15.09494	11.27051
1.86848	-15.09494	11.27051
1.87267	-15.05099	11.27051
1.87686	-15.00705	11.27051
1.88117	-14.98507	11.27051
1.88542	-14.94113	11.27051
1.88962	-14.89718	11.27051
1.89382	-14.89718	11.27051
1.89801	-14.85324	11.27051
1.90220	-14.83127	11.27051
1.90639	-14.78732	11.27051
1.91065	-14.76535	11.27051
1.91494	-14.72140	11.27051
1.91915	-14.72140	11.27051
1.92344	-14.67746	11.27051
1.92763	-14.65548	11.27051
1.93181	-14.61154	11.27051
1.93600	-14.58957	11.27051
1.94018	-14.54562	11.27051
1.94448	-14.52365	11.27051
1.94869	-14.52365	11.27051
1.95288	-14.47970	11.27051
1.95707	-14.43576	11.27051
1.96126	-14.41379	11.27051
1.96544	-14.39181	11.27051
1.96962	-14.34787	11.27051
1.97402	-14.34787	11.27051
1.97824	-14.32589	11.27051
1.98244	-14.28195	11.27051
1.98664	-14.25998	11.27051
1.99083	-14.23800	11.27051
1.99502	-14.21603	11.27051
1.99922	-14.19406	11.27051
2.00352	-14.19406	11.27051
2.00778	-14.15011	11.27051
2.01198	-14.12814	11.27051
2.01618	-14.10617	11.27051
2.02038	-14.08420	11.27051
2.02467	-14.08420	11.27051
2.02885	-14.04025	11.27051
2.03310	-14.04025	11.27051
2.03737	-13.99631	11.27051
2.04157	-13.97433	11.27051
2.04576	-13.95236	11.27051
2.04995	-13.95236	11.27051
2.05413	-13.93039	11.27051
2.05832	-13.90841	11.27051
2.06250	-13.88644	11.27051
2.06679	-13.86447	11.27051
2.07101	-13.84250	11.27051
2.07519	-13.82052	11.27051
2.07938	-13.82052	11.27051
2.08357	-13.82052	11.27051
2.08775	-13.79855	11.27051
2.09193	-13.77658	11.27051
2.09633	-13.75461	11.27051
2.10055	-13.73263	11.27051
2.10475	-13.73263	11.27051
2.10894	-13.73263	11.27051
2.11315	-13.71066	11.27051
2.11734	-13.68869	11.27051
2.12154	-13.68869	11.27051
2.12601	-13.66672	11.27051
2.13025	-13.66672	11.27051
2.13445	-13.66672	11.27051
2.13865	-13.62277	11.27051
2.14285	-13.62277	11.27051
2.14704	-13.60080	11.27051
2.15122	-13.60080	11.27051
2.15549	-13.60080	11.27051
2.15976	-13.60080	11.27051
2.16397	-13.57882	11.27051
2.16816	-13.57882	11.27051
2.17235	-13.55685	11.27051
2.17655	-13.53488	11.27051
2.18073	-13.53488	11.27051
2.18492	-13.53488	11.27051
2.18922	-13.51291	11.27051
2.19343	-13.53488	11.27051
2.19762	-13.51291	11.27051
2.20183	-13.51291	11.27051
2.20605	-13.51291	11.27051
2.21026	-13.49093	11.27051
2.21446	-13.49093	11.27051
2.21892	-13.49093	11.27051
2.22316	-13.46896	11.27051
2.22747	-13.46896	11.27051
2.23166	-13.46896	11.27051
2.23586	-13.46896	11.27051
2.24005	-13.46896	11.27051
2.24425	-13.46896	11.27051
2.24854	-13.46896	11.27051
2.25280	-13.46896	11.27051
2.25701	-13.44699	11.27051
2.26134	-13.46896	11.27051
2.26555	-13.44699	11.27051
2.26974	-13.44699	11.27051
2.27394	-13.44699	11.27051
2.27819	-13.46896	11.27051
2.28246	-13.44699	11.27051
2.28667	-13.46896	11.27051
2.29087	-13.46896	11.27051
2.29506	-13.44699	11.27051
2.29925	-13.46896	11.27051
2.30344	-13.46896	11.27051
2.30763	-13.46896	11.27051
2.31192	-13.46896	11.27051
2.31616	-13.46896	11.27051
2.32035	-13.46896	11.27051
2.32455	-13.46896	11.27051
2.32884	-13.46896	11.27051
2.33302	-13.46896	11.27051
2.33722	-13.49093	11.27051
2.34163	-13.46896	11.27051
2.34585	-13.46896	11.27051
2.35005	-13.49093	11.27051
2.35424	-13.49093	11.27051
2.35843	-13.51291	11.27051
2.36262	-13.51291	11.27051
2.36682	-13.51291	11.27051
2.37113	-13.51291	11.27051
2.37539	-13.51291	11.27051
2.37959	-13.51291	11.27051
2.38378	-13.53488	11.27051
2.38797	-13.53488	11.27051
2.39216	-13.55685	11.27051
2.39635	-13.55685	11.27051
2.40059	-13.55685	11.27051
2.40486	-13.57882	11.27051
2.40907	-13.57882	11.27051
2.41331	-13.57882	11.27051
2.41752	-13.60080	11.27051
2.42172	-13.60080	11.27051
2.42591	-13.60080	11.27051
2.43027	-13.62277	11.27051
2.43458	-13.62277	11.27051
2.43880	-13.64474	11.27051
2.44299	-13.64474	11.27051
2.44717	-13.64474	11.27051
2.45136	-13.66672	11.27051
2.45555	-13.66672	11.27051
2.45973	-13.66672	11.27051
2.46413	-13.68869	11.27051
2.46836	-13.71066	11.27051
2.47256	-13.71066	11.27051
2.47675	-13.73263	11.27051
2.48094	-13.73263	11.27051
2.48513	-13.73263	11.27051
2.48932	-13.75461	11.27051
2.49363	-13.75461	11.27051
2.49789	-13.75461	11.27051
2.50211	-13.79855	11.27051
2.50630	-13.77658	11.27051
2.51050	-13.77658	11.27051
2.51467	-13.82052	11.27051
2.51886	-13.82052	11.27051
2.52313	-13.84250	11.27051
2.52741	-13.84250	11.27051
2.53173	-13.86447	11.27051
2.53592	-13.86447	11.27051
2.54012	-13.88644	11.27051
2.54431	-13.88644	11.27051
2.54850	-13.90841	11.27051
2.55269	-13.93039	11.27051
2.55698	-13.93039	11.27051
2.56120	-13.93039	11.27051
2.56539	-13.95236	11.27051
2.56958	-13.97433	11.27051
2.57377	-13.99631	11.27051
2.57797	-13.99631	11.27051
2.58216	-14.01828	11.27051
2.58659	-14.01828	11.27051
2.59082	-14.04025	11.27051
2.59501	-14.04025	11.27051
2.59920	-14.06222	11.27051
2.60339	-14.08420	11.27051
2.60760	-14.10617	11.27051
2.61179	-14.10617	11.27051
2.61612	-14.10617	11.27051
2.62039	-14.12814	11.27051
2.62460	-14.15011	11.27051
2.62878	-14.17209	11.27051
2.63307	-14.19406	11.27051
2.63726	-14.19406	11.27051
2.64144	-14.19406	11.27051
2.64569	-14.21603	11.27051
2.64995	-14.23800	11.27051
2.65416	-14.25998	11.27051
2.65834	-14.28195	11.27051
2.66254	-14.28195	11.27051
2.66673	-14.28195	11.27051
2.67091	-14.30392	11.27051
2.67510	-14.32589	11.27051
2.67938	-14.34787	11.27051
2.68359	-14.39181	11.27051
2.68778	-14.39181	11.27051
2.69196	-14.39181	11.27051
2.69615	-14.41379	11.27051
2.70033	-14.41379	11.27051
2.70451	-14.43576	11.27051
2.70891	-14.45773	11.27051
2.71313	-14.47970	11.27051
2.71736	-14.50168	11.27051
2.72156	-14.50168	11.27051
2.72576	-14.52365	11.27051
2.72996	-14.54562	11.27051
2.73426	-14.56759	11.27051
2.73857	-14.58957	11.27051
2.74282	-14.61154	11.27051
2.74703	-14.61154	11.27051
2.75122	-14.63351	11.27051
2.75540	-14.65548	11.27051
2.75959	-14.65548	11.27051
2.76378	-14.69943	11.27051
2.76803	-14.69943	11.27051
2.77229	-14.74338	11.27051
2.77650	-14.74338	11.27051
2.78068	-14.74338	11.27051
2.78487	-14.76535	11.27051
2.78905	-14.78732	11.27051
2.79324	-14.80929	11.27051
2.79742	-14.80929	11.27051
2.80171	-14.83127	11.27051
2.80593	-14.85324	11.27051
2.81012	-14.87521	11.27051
2.81432	-14.91916	11.27051
2.81853	-14.91916	11.27051
2.82272	-14.91916	11.27051
2.82690	-14.94113	11.27051
2.83130	-14.96310	11.27051
2.83564	-14.98507	11.27051
2.83984	-15.00705	11.27051
2.84404	-15.02902	11.27051
2.84824	-15.05099	11.27051
2.85243	-15.05099	11.27051
2.85662	-15.07297	11.27051
2.86092	-15.09494	11.27051
2.86518	-15.11691	11.27051
2.86939	-15.13888	11.27051
2.87359	-15.13888	11.27051
2.87778	-15.16086	11.27051
2.88197	-15.16086	11.27051
2.88616	-15.20480	11.27051
2.89041	-15.22677	11.27051
2.89469	-15.24875	11.27051
2.89890	-15.27072	11.27051
2.90310	-15.27072	11.27051
2.90729	-15.29269	11.27051
2.91148	-15.31466	11.27051
2.91568	-15.33664	11.27051
2.91988	-15.35861	11.27051
2.92418	-15.38058	11.27051
2.92839	-15.40256	11.27051
2.93259	-15.40256	11.27051
2.93688	-15.42453	11.27051
2.94107	-15.44650	11.27051
2.94526	-15.46847	11.27051
2.94944	-15.46847	11.27051
2.95384	-15.51242	11.27051
2.95807	-15.51242	11.27051
2.96226	-15.53439	11.27051
2.96645	-15.53439	11.27051
2.97065	-15.55636	11.27051
2.97485	-15.57834	11.27051
2.97904	-15.62228	11.27051
2.98335	-15.62228	11.27051
2.98761	-15.62228	11.27051
2.99181	-15.64425	11.27051
2.99600	-15.66623	11.27051
3.00019	-15.68820	11.27051
3.00437	-15.71017	11.27051
3.00856	-15.73214	11.27051
3.01280	-15.73214	11.27051
3.01709	-15.75412	11.27051
3.02131	-15.75412	11.27051
3.02550	-15.79806	11.27051
3.02968	-15.82004	11.27051
3.03388	-15.84201	11.27051
3.03817	-15.84201	11.27051
3.04235	-15.86398	11.27051
3.04666	-15.86398	11.27051
3.05087	-15.88595	11.27051
3.05506	-15.90793	11.27051
3.05924	-15.92990	11.27051
3.06343	-15.92990	11.27051
3.06761	-15.95187	11.27051
3.07186	-15.95187	11.27051
3.07627	-15.99582	11.27051
3.08051	-15.99582	11.27051
3.08472	-16.01779	11.27051
3.08891	-16.01779	11.27051
3.09311	-16.03976	11.27051
3.09730	-16.06173	11.27051
3.10149	-16.08371	11.27051
3.10581	-16.08371	11.27051
3.11007	-16.10568	11.27051
3.11429	-16.12765	11.27051
3.11849	-16.12765	11.27051
3.12265	-16.14963	11.27051
3.12683	-16.17160	11.27051
3.13103	-16.17160	11.27051
3.13528	-16.19357	11.27051
3.13967	-16.21554	11.27051
3.14388	-16.21554	11.27051
3.14807	-16.21554	11.27051
3.15226	-16.23752	11.27051
3.15645	-16.23752	11.27051
3.16063	-16.25949	11.27051
3.16482	-16.28146	11.27051
3.16911	-16.28146	11.27051
3.17333	-16.30343	11.27051
3.17752	-16.32541	11.27051
3.18170	-16.32541	11.27051
3.18589	-16.34738	11.27051
3.19007	-16.34738	11.27051
3.19426	-16.39132	11.27051
3.19868	-16.39132	11.27051
3.20291	-16.39132	11.27051
3.20710	-16.41330	11.27051
3.21129	-16.41330	11.27051
3.21550	-16.43527	11.27051
3.21970	-16.45724	11.27051
3.22391	-16.45724	11.27051
3.22822	-16.45724	11.27051
3.23250	-16.47922	11.27051
3.23671	-16.47922	11.27051
3.24101	-16.47922	11.27051
3.24520	-16.50119	11.27051
3.24939	-16.50119	11.27051
3.25357	-16.50119	11.27051
3.25784	-16.52316	11.27051
3.26211	-16.52316	11.27051
3.26635	-16.54513	11.27051
3.27056	-16.54513	11.27051
3.27475	-16.56711	11.27051
3.27894	-16.56711	11.27051
3.28313	-16.56711	11.27051
3.28731	-16.56711	11.27051
3.29160	-16.58908	11.27051
3.29581	-16.58908	11.27051
3.30000	-16.61105	11.27051
3.30419	-16.61105	11.27051
3.30838	-16.61105	11.27051
3.31256	-16.61105	11.27051
3.31677	-16.63302	11.27051
3.32118	-16.63302	11.27051
3.32542	-16.65500	11.27051
3.32961	-16.65500	11.27051
3.33381	-16.63302	11.27051
3.33800	-16.65500	11.27051
3.34230	-16.65500	11.27051
3.34649	-16.67697	11.27051
3.35076	-16.67697	11.27051
3.35502	-16.67697	11.27051
3.35923	-16.67697	11.27051
3.36342	-16.67697	11.27051
3.36761	-16.67697	11.27051
3.37181	-16.69894	11.27051
3.37600	-16.69894	11.27051
3.38025	-16.69894	11.27051
3.38452	-16.69894	11.27051
3.38873	-16.69894	11.27051
3.39293	-16.69894	11.27051
3.39711	-16.69894	11.27051
3.40130	-16.69894	11.27051
3.40548	-16.69894	11.27051
3.40967	-16.69894	11.27051
3.41395	-16.72091	11.27051
3.41820	-16.69894	11.27051
3.42240	-16.72091	11.27051
3.42661	-16.69894	11.27051
3.43080	-16.69894	11.27051
3.43498	-16.72091	11.27051
3.43917	-16.72091	11.27051
3.44372	-16.69894	11.27051
3.44794	-16.72091	11.27051
3.45214	-16.69894	11.27051
3.45634	-16.69894	11.27051
3.46053	-16.69894	11.27051
3.46472	-16.69894	11.27051
3.46891	-16.69894	11.27051
3.47321	-16.69894	11.27051
3.47747	-16.67697	11.27051
3.48167	-16.67697	11.27051
3.48586	-16.67697	11.27051
3.49005	-16.67697	11.27051
3.49424	-16.67697	11.27051
3.49844	-16.67697	11.27051
3.50268	-16.67697	11.27051
3.50696	-16.67697	11.27051
3.51116	-16.65500	11.27051
3.51536	-16.65500	11.27051
3.51955	-16.65500	11.27051
3.52374	-16.65500	11.27051
3.52794	-16.63302	11.27051
3.53213	-16.65500	11.27051
3.53642	-16.63302	11.27051
3.54064	-16.63302	11.27051
3.54494	-16.63302	11.27051
3.54913	-16.61105	11.27051
3.55332	-16.61105	11.27051
3.55751	-16.61105	11.27051
3.56170	-16.58908	11.27051
3.56610	-16.58908	11.27051
3.57033	-16.58908	11.27051
3.57454	-16.56711	11.27051
3.57873	-16.56711	11.27051
3.58292	-16.54513	11.27051
3.58711	-16.56711	11.27051
3.59130	-16.56711	11.27051
3.59562	-16.54513	11.27051
3.59987	-16.52316	11.27051
3.60407	-16.52316	11.27051
3.60826	-16.50119	11.27051
3.61244	-16.50119	11.27051
3.61663	-16.47922	11.27051
3.62081	-16.47922	11.27051
3.62507	-16.47922	11.27051
3.62933	-16.45724	11.27051
3.63353	-16.45724	11.27051
3.63772	-16.43527	11.27051
3.64191	-16.43527	11.27051
3.64619	-16.41330	11.27051
3.65038	-16.41330	11.27051
3.65457	-16.39132	11.27051
3.65886	-16.39132	11.27051
3.66307	-16.36935	11.27051
3.66725	-16.34738	11.27051
3.67144	-16.34738	11.27051
3.67562	-16.34738	11.27051
3.67981	-16.32541	11.27051
3.68399	-16.32541	11.27051
3.68839	-16.30343	11.27051
3.69261	-16.28146	11.27051
3.69680	-16.28146	11.27051
3.70099	-16.28146	11.27051
3.70518	-16.25949	11.27051
3.70937	-16.23752	11.27051
3.71356	-16.23752	11.27051
3.71786	-16.21554	11.27051
3.72211	-16.19357	11.27051
3.72631	-16.19357	11.27051
3.73050	-16.17160	11.27051
3.73464	-16.17160	11.27051
3.73883	-16.14963	11.27051
3.74301	-16.12765	11.27051
3.74737	-16.10568	11.27051
3.75163	-16.10568	11.27051
3.75584	-16.10568	11.27051
3.76002	-16.08371	11.27051
3.76421	-16.06173	11.27051
3.76839	-16.03976	11.27051
3.77258	-16.01779	11.27051
3.77676	-16.01779	11.27051
3.78105	-15.99582	11.27051
3.78527	-15.99582	11.27051
3.78946	-15.97384	11.27051
3.79364	-15.95187	11.27051
3.79783	-15.92990	11.27051
3.80201	-15.90793	11.27051
3.80619	-15.90793	11.27051
3.81061	-15.90793	11.27051
3.81483	-15.88595	11.27051
3.81902	-15.86398	11.27051
3.82321	-15.84201	11.27051
3.82742	-15.82004	11.27051
3.83161	-15.82004	11.27051
3.83580	-15.79806	11.27051
3.84009	-15.79806	11.27051
3.84433	-15.77609	11.27051
3.84863	-15.75412	11.27051
3.85282	-15.73214	11.27051
3.85700	-15.73214	11.27051
3.86119	-15.71017	11.27051
3.86538	-15.68820	11.27051
3.86963	-15.68820	11.27051
3.87390	-15.66623	11.27051
3.87811	-15.64425	11.27051
3.88230	-15.64425	11.27051
3.88648	-15.62228	11.27051
3.89064	-15.60031	11.27051
3.89483	-15.57834	11.27051
3.89901	-15.55636	11.27051
3.90330	-15.53439	11.27051
3.90751	-15.53439	11.27051
3.91169	-15.53439	11.27051
3.91588	-15.51242	11.27051
3.92006	-15.49045	11.27051
3.92425	-15.46847	11.27051
3.92844	-15.44650	11.27051
3.93284	-15.44650	11.27051
3.93707	-15.44650	11.27051
3.94126	-15.40256	11.27051
3.94546	-15.40256	11.27051
3.94976	-15.38058	11.27051
3.95395	-15.35861	11.27051
3.95814	-15.33664	11.27051
3.96244	-15.31466	11.27051
3.96670	-15.31466	11.27051
3.97090	-15.31466	11.27051
3.97509	-15.27072	11.27051
3.97928	-15.27072	11.27051
3.98347	-15.24875	11.27051
3.98766	-15.22677	11.27051
3.99190	-15.20480	11.27051
3.99617	-15.20480	11.27051
4.00038	-15.18283	11.27051
4.00457	-15.18283	11.27051
4.00875	-15.16086	11.27051
4.01294	-15.13888	11.27051
4.01712	-15.13888	11.27051
4.02131	-15.11691	11.27051
4.02560	-15.09494	11.27051
4.02982	-15.09494	11.27051
4.03401	-15.07297	11.27051
4.03820	-15.05099	11.27051
4.04238	-15.02902	11.27051
4.04658	-15.02902	11.27051
4.05087	-15.00705	11.27051
4.05525	-15.00705	11.27051
4.05948	-14.98507	11.27051
4.06368	-14.96310	11.27051
4.06787	-14.94113	11.27051
4.07206	-14.94113	11.27051
4.07625	-14.94113	11.27051
4.08044	-14.91916	11.27051
4.08474	-14.89718	11.27051
4.08899	-14.87521	11.27051
4.09319	-14.87521	11.27051
4.09739	-14.85324	11.27051
4.10158	-14.85324	11.27051
4.10577	-14.83127	11.27051
4.10996	-14.80929	11.27051
4.11420	-14.80929	11.27051
4.11847	-14.78732	11.27051
4.12267	-14.78732	11.27051
4.12686	-14.76535	11.27051
4.13105	-14.76535	11.27051
4.13523	-14.74338	11.27051
4.13943	-14.72140	11.27051
4.14362	-14.69943	11.27051
4.14792	-14.69943	11.27051
4.15225	-14.69943	11.27051
4.15644	-14.67746	11.27051
4.16062	-14.67746	11.27051
4.16481	-14.65548	11.27051
4.16899	-14.63351	11.27051
4.17318	-14.63351	11.27051
4.17760	-14.63351	11.27051
4.18182	-14.61154	11.27051
4.18602	-14.61154	11.27051
4.19022	-14.58957	11.27051
4.19441	-14.56759	11.27051
4.19861	-14.56759	11.27051
4.20280	-14.54562	11.27051
4.20711	-14.54562	11.27051
4.21137	-14.54562	11.27051
4.21557	-14.52365	11.27051
4.21976	-14.52365	11.27051
4.22395	-14.50168	11.27051
4.22814	-14.50168	11.27051
4.23234	-14.47970	11.27051
4.23658	-14.47970	11.27051
4.24086	-14.45773	11.27051
4.24507	-14.43576	11.27051
4.24926	-14.43576	11.27051
4.25356	-14.43576	11.27051
4.25775	-14.43576	11.27051
4.26194	-14.41379	11.27051
4.26616	-14.41379	11.27051
4.27046	-14.39181	11.27051
4.27467	-14.39181	11.27051
4.27886	-14.36984	11.27051
4.28304	-14.36984	11.27051
4.28723	-14.34787	11.27051
4.29142	-14.34787	11.27051
4.29560	-14.34787	11.27051
4.30001	-14.34787	11.27051
4.30424	-14.32589	11.27051
4.30843	-14.30392	11.27051
4.31263	-14.30392	11.27051
4.31683	-14.32589	11.27051
4.32102	-14.28195	11.27051
4.32521	-14.28195	11.27051
4.32951	-14.28195	11.27051
4.33378	-14.28195	11.27051
4.33798	-14.28195	11.27051
4.34218	-14.25998	11.27051
4.34637	-14.25998	11.27051
4.35057	-14.25998	11.27051
4.35488	-14.23800	11.27051
4.35911	-14.23800	11.27051
4.36338	-14.23800	11.27051
4.36759	-14.23800	11.27051
4.37178	-14.21603	11.27051
4.37597	-14.21603	11.27051
4.38015	-14.21603	11.27051
4.38434	-14.19406	11.27051
4.38852	-14.19406	11.27051
4.39281	-14.21603	11.27051
4.39702	-14.19406	11.27051
4.40121	-14.19406	11.27051
4.40539	-14.19406	11.27051
4.40958	-14.19406	11.27051
4.41376	-14.17209	11.27051
4.41795	-14.17209	11.27051
4.42243	-14.17209	11.27051
4.42664	-14.17209	11.27051
4.43083	-14.17209	11.27051
4.43501	-14.17209	11.27051
4.43920	-14.17209	11.27051
4.44338	-14.17209	11.27051
4.44756	-14.17209	11.27051
4.45182	-14.17209	11.27051
4.45629	-14.17209	11.27051
4.46052	-14.17209	11.27051
4.46473	-14.17209	11.27051
4.46894	-14.17209	11.27051
4.47315	-14.17209	11.27051
4.47735	-14.17209	11.27051
4.48282	-14.17209	11.27051
4.48712	-14.17209	11.27051
4.49134	-14.17209	11.27051
4.49555	-14.17209	11.27051
4.49974	-14.17209	11.27051
4.50394	-14.17209	11.27051
4.50813	-14.17209	11.27051
4.51238	-14.17209	11.27051
4.51668	-14.17209	11.27051
4.52090	-14.17209	11.27051
4.52509	-14.17209	11.27051
4.52928	-14.17209	11.27051
4.53347	-14.17209	11.27051
4.53765	-14.19406	11.27051
4.54184	-14.19406	11.27051
4.54614	-14.19406	11.27051
4.55036	-14.19406	11.27051
4.55456	-14.19406	11.27051
4.55885	-14.19406	11.27051
4.56304	-14.21603	11.27051
4.56723	-14.21603	11.27051
4.57141	-14.21603	11.27051
4.57583	-14.23800	11.27051
4.58004	-14.23800	11.27051
4.58423	-14.23800	11.27051
4.58841	-14.23800	11.27051
4.59260	-14.23800	11.27051
4.59679	-14.25998	11.27051
4.60097	-14.25998	11.27051
4.60523	-14.28195	11.27051
4.60950	-14.28195	11.27051
4.61369	-14.28195	11.27051
4.61788	-14.28195	11.27051
4.62207	-14.30392	11.27051
4.62626	-14.30392	11.27051
4.63044	-14.32589	11.27051
4.63471	-14.32589	11.27051
4.63900	-14.32589	11.27051
4.64320	-14.34787	11.27051
4.64739	-14.36984	11.27051
4.65158	-14.36984	11.27051
4.65576	-14.39181	11.27051
4.66005	-14.39181	11.27051
4.66424	-14.39181	11.27051
4.66853	-14.39181	11.27051
4.67274	-14.41379	11.27051
4.67693	-14.43576	11.27051
4.68111	-14.43576	11.27051
4.68530	-14.45773	11.27051
4.68948	-14.45773	11.27051
4.69367	-14.47970	11.27051
4.69808	-14.47970	11.27051
4.70230	-14.50168	11.27051
4.70649	-14.50168	11.27051
4.71065	-14.50168	11.27051
4.71483	-14.52365	11.27051
4.71902	-14.54562	11.27051
4.72320	-14.54562	11.27051
4.72746	-14.56759	11.27051
4.73172	-14.58957	11.27051
4.73592	-14.61154	11.27051
4.74011	-14.61154	11.27051
4.74430	-14.63351	11.27051
4.74848	-14.63351	11.27051
4.75267	-14.65548	11.27051
4.75692	-14.65548	11.27051
4.76131	-14.67746	11.27051
4.76550	-14.69943	11.27051
4.76969	-14.69943	11.27051
4.77388	-14.72140	11.27051
4.77807	-14.74338	11.27051
4.78225	-14.76535	11.27051
4.78644	-14.78732	11.27051
4.79075	-14.80929	11.27051
4.79496	-14.80929	11.27051
4.79914	-14.80929	11.27051
4.80333	-14.83127	11.27051
4.80752	-14.85324	11.27051
4.81170	-14.87521	11.27051
4.81589	-14.89718	11.27051
4.82030	-14.91916	11.27051
4.82452	-14.91916	11.27051
4.82871	-14.94113	11.27051
4.83289	-14.96310	11.27051
4.83708	-14.98507	11.27051
4.84126	-15.00705	11.27051
4.84545	-15.00705	11.27051
4.84971	-15.02902	11.27051
4.85398	-15.05099	11.27051
4.85818	-15.05099	11.27051
4.86246	-15.07297	11.27051
4.86664	-15.11691	11.27051
4.87084	-15.11691	11.27051
4.87503	-15.13888	11.27051
4.87928	-15.13888	11.27051
4.88356	-15.18283	11.27051
4.88777	-15.18283	11.27051
4.89196	-15.20480	11.27051
4.89615	-15.20480	11.27051
4.90033	-15.24875	11.27051
4.90451	-15.24875	11.27051
4.90870	-15.29269	11.27051
4.91300	-15.29269	11.27051
4.91721	-15.31466	11.27051
4.92140	-15.31466	11.27051
4.92558	-15.33664	11.27051
4.92977	-15.35861	11.27051
4.93395	-15.38058	11.27051
4.93815	-15.40256	11.27051
4.94258	-15.44650	11.27051
4.94679	-15.44650	11.27051
4.95099	-15.44650	11.27051
4.95517	-15.49045	11.27051
4.95936	-15.49045	11.27051
4.96364	-15.51242	11.27051
4.96783	-15.53439	11.27051
4.97209	-15.55636	11.27051
4.97636	-15.57834	11.27051
4.98055	-15.57834	11.27051
4.98474	-15.60031	11.27051
4.98892	-15.62228	11.27051
4.99311	-15.66623	11.27051
4.99730	-15.66623	11.27051
5.00154	-15.66623	11.27051
5.00581	-15.71017	11.27051
5.01001	-15.71017	11.27051
5.01419	-15.73214	11.27051
5.01838	-15.75412	11.27051
5.02258	-15.77609	11.27051
5.02677	-15.79806	11.27051
5.03095	-15.79806	11.27051
5.03527	-15.82004	11.27051
5.03949	-15.84201	11.27051
5.04368	-15.86398	11.27051
5.04787	-15.88595	11.27051
5.05205	-15.92990	11.27051
5.05624	-15.92990	11.27051
5.06042	-15.92990	11.27051
5.06494	-15.95187	11.27051
5.06915	-15.97384	11.27051
5.07333	-15.99582	11.27051
5.07752	-16.01779	11.27051
5.08170	-16.03976	11.27051
5.08589	-16.03976	11.27051
5.09007	-16.06173	11.27051
5.09434	-16.08371	11.27051
5.09860	-16.10568	11.27051
5.10279	-16.12765	11.27051
5.10698	-16.12765	11.27051
5.11116	-16.14963	11.27051
5.11535	-16.17160	11.27051
5.11953	-16.19357	11.27051
5.12378	-16.21554	11.27051
5.12805	-16.23752	11.27051
5.13225	-16.23752	11.27051
5.13644	-16.23752	11.27051
5.14066	-16.25949	11.27051
5.14486	-16.28146	11.27051
5.14906	-16.30343	11.27051
5.15325	-16.32541	11.27051
5.15754	-16.34738	11.27051
5.16175	-16.34738	11.27051
5.16604	-16.34738	11.27051
5.17022	-16.36935	11.27051
5.17441	-16.39132	11.27051
5.17860	-16.41330	11.27051
5.18279	-16.43527	11.27051
5.18720	-16.43527	11.27051
5.19142	-16.43527	11.27051
5.19560	-16.45724	11.27051
5.19979	-16.47922	11.27051
5.20398	-16.50119	11.27051
5.20816	-16.52316	11.27051
5.21235	-16.52316	11.27051
5.21661	-16.52316	11.27051
5.22087	-16.54513	11.27051
5.22507	-16.56711	11.27051
5.22925	-16.58908	11.27051
5.23344	-16.58908	11.27051
5.23762	-16.61105	11.27051
5.24181	-16.61105	11.27051
5.24605	-16.63302	11.27051
5.25032	-16.63302	11.27051
5.25455	-16.65500	11.27051
5.25874	-16.65500	11.27051
5.26293	-16.67697	11.27051
5.26722	-16.69894	11.27051
5.27140	-16.69894	11.27051
5.27559	-16.69894	11.27051
5.27988	-16.72091	11.27051
5.28409	-16.72091	11.27051
5.28828	-16.74289	11.27051
5.29246	-16.74289	11.27051
5.29665	-16.74289	11.27051
5.30083	-16.76486	11.27051
5.30502	-16.78683	11.27051
5.30941	-16.78683	11.27051
5.31364	-16.80881	11.27051
5.31785	-16.80881	11.27051
5.32204	-16.80881	11.27051
5.32623	-16.80881	11.27051
5.33042	-16.83078	11.27051
5.33461	-16.83078	11.27051
5.33888	-16.85275	11.27051
5.34314	-16.85275	11.27051
5.34734	-16.85275	11.27051
5.35153	-16.87472	11.27051
5.35572	-16.87472	11.27051
5.35990	-16.89670	11.27051
5.36409	-16.89670	11.27051
5.36848	-16.89670	11.27051
5.37275	-16.89670	11.27051
5.37695	-16.89670	11.27051
5.38114	-16.89670	11.27051
5.38534	-16.91867	11.27051
5.38953	-16.91867	11.27051
5.39372	-16.91867	11.27051
5.39790	-16.91867	11.27051
5.40220	-16.94064	11.27051
5.40642	-16.91867	11.27051
5.41062	-16.94064	11.27051
5.41481	-16.96261	11.27051
5.41900	-16.94064	11.27051
5.42319	-16.94064	11.27051
5.42738	-16.96261	11.27051
5.43180	-16.96261	11.27051
5.43603	-16.96261	11.27051
5.44023	-16.96261	11.27051
5.44441	-16.98459	11.27051
5.44860	-16.98459	11.27051
5.45278	-16.98459	11.27051
5.45697	-16.96261	11.27051
5.46123	-16.98459	11.27051
5.46547	-16.98459	11.27051
5.46977	-16.98459	11.27051
5.47396	-16.98459	11.27051
5.47814	-16.98459	11.27051
5.48233	-16.98459	11.27051
5.48652	-16.98459	11.27051
5.49078	-16.96261	11.27051
5.49506	-16.98459	11.27051
5.49926	-16.98459	11.27051
5.50346	-16.98459	11.27051
5.50765	-16.98459	11.27051
5.51184	-16.96261	11.27051
5.51602	-16.98459	11.27051
5.52021	-16.98459	11.27051
5.52449	-16.96261	11.27051
5.52870	-16.98459	11.27051
5.53289	-16.98459	11.27051
5.53708	-16.96261	11.27051
5.54127	-16.96261	11.27051
5.54545	-16.96261	11.27051
5.54964	-16.96261	11.27051
5.55404	-16.96261	11.27051
5.55826	-16.96261	11.27051
5.56245	-16.94064	11.27051
5.56664	-16.96261	11.27051
5.57093	-16.94064	11.27051
5.57512	-16.94064	11.27051
5.57930	-16.94064	11.27051
5.58357	-16.91867	11.27051
5.58782	-16.91867	11.27051
5.59202	-16.94064	11.27051
5.59621	-16.91867	11.27051
5.60039	-16.91867	11.27051
5.60458	-16.91867	11.27051
5.60876	-16.91867	11.27051
5.61301	-16.89670	11.27051
5.61727	-16.89670	11.27051
5.62148	-16.89670	11.27051
5.62567	-16.89670	11.27051
5.62985	-16.87472	11.27051
5.63404	-16.87472	11.27051
5.63823	-16.87472	11.27051
5.64242	-16.85275	11.27051
5.64672	-16.85275	11.27051
5.65095	-16.85275	11.27051
5.65514	-16.83078	11.27051
5.65932	-16.83078	11.27051
5.66351	-16.83078	11.27051
5.66770	-16.80881	11.27051
5.67198	-16.80881	11.27051
5.67638	-16.80881	11.27051
5.68060	-16.78683	11.27051
5.68479	-16.78683	11.27051
5.68898	-16.78683	11.27051
5.69316	-16.76486	11.27051
5.69734	-16.78683	11.27051
5.70153	-16.76486	11.27051
5.70579	-16.74289	11.27051
5.71004	-16.74289	11.27051
5.71424	-16.74289	11.27051
5.71843	-16.72091	11.27051
5.72262	-16.72091	11.27051
5.72681	-16.72091	11.27051
5.73099	-16.69894	11.27051
5.73524	-16.69894	11.27051
5.73950	-16.67697	11.27051
5.74370	-16.67697	11.27051
5.74789	-16.67697	11.27051
5.75208	-16.65500	11.27051
5.75626	-16.65500	11.27051
5.76044	-16.65500	11.27051
5.76463	-16.63302	11.27051
5.76891	-16.63302	11.27051
5.77323	-16.61105	11.27051
5.77742	-16.61105	11.27051
5.78161	-16.61105	11.27051
5.78579	-16.58908	11.27051
5.78998	-16.56711	11.27051
5.79416	-16.56711	11.27051
5.79858	-16.56711	11.27051
5.80280	-16.54513	11.27051
5.80699	-16.54513	11.27051
5.81118	-16.52316	11.27051
5.81536	-16.52316	11.27051
5.81954	-16.52316	11.27051
5.82373	-16.50119	11.27051
5.82799	-16.47922	11.27051
5.83224	-16.47922	11.27051
5.83645	-16.45724	11.27051
5.84063	-16.45724	11.27051
5.84482	-16.43527	11.27051
5.84900	-16.43527	11.27051
5.85319	-16.43527	11.27051
5.85743	-16.41330	11.27051
5.86169	-16.41330	11.27051
5.86589	-16.39132	11.27051
5.87010	-16.36935	11.27051
5.87439	-16.36935	11.27051
5.87859	-16.36935	11.27051
5.88278	-16.34738	11.27051
5.88697	-16.34738	11.27051
5.89126	-16.30343	11.27051
5.89547	-16.30343	11.27051
5.89966	-16.30343	11.27051
5.90385	-16.28146	11.27051
5.90804	-16.28146	11.27051
5.91222	-16.25949	11.27051
5.91641	-16.23752	11.27051
5.92081	-16.21554	11.27051
5.92503	-16.21554	11.27051
5.92922	-16.21554	11.27051
5.93341	-16.19357	11.27051
5.93760	-16.17160	11.27051
5.94179	-16.17160	11.27051
5.94598	-16.14963	11.27051
5.95024	-16.12765	11.27051
5.95449	-16.12765	11.27051
5.95865	-16.12765	11.27051
5.96284	-16.10568	11.27051
5.96702	-16.08371	11.27051
5.97121	-16.08371	11.27051
5.97554	-16.06173	11.27051
5.97979	-16.06173	11.27051
5.98407	-16.03976	11.27051
5.98829	-16.01779	11.27051
5.99248	-15.99582	11.27051
5.99667	-15.99582	11.27051
6.00087	-15.97384	11.27051
6.00505	-15.97384	11.27051
6.00924	-15.95187	11.27051
6.01352	-15.95187	11.27051
6.01775	-15.92990	11.27051
6.02193	-15.90793	11.27051
6.02612	-15.90793	11.27051
6.03030	-15.90793	11.27051
6.03449	-15.88595	11.27051
6.03864	-15.86398	11.27051
6.04304	-15.84201	11.27051
6.04725	-15.84201	11.27051
6.05144	-15.82004	11.27051
6.05563	-15.79806	11.27051
6.05981	-15.79806	11.27051
6.06400	-15.77609	11.27051
6.06818	-15.77609	11.27051
6.07244	-15.75412	11.27051
6.07679	-15.73214	11.27051
6.08098	-15.73214	11.27051
6.08518	-15.71017	11.27051
6.08937	-15.71017	11.27051
6.09356	-15.68820	11.27051
6.09774	-15.66623	11.27051
6.10199	-15.64425	11.27051
6.10625	-15.64425	11.27051
6.11046	-15.64425	11.27051
6.11465	-15.62228	11.27051
6.11883	-15.60031	11.27051
6.12302	-15.57834	11.27051
6.12720	-15.55636	11.27051
6.13139	-15.55636	11.27051
6.13569	-15.55636	11.27051
6.13994	-15.53439	11.27051
6.14415	-15.51242	11.27051
6.14833	-15.51242	11.27051
6.15252	-15.46847	11.27051
6.15671	-15.46847	11.27051
6.16089	-15.46847	11.27051
6.16530	-15.44650	11.27051
6.16953	-15.44650	11.27051
6.17372	-15.42453	11.27051
6.17801	-15.40256	11.27051
6.18219	-15.38058	11.27051
6.18638	-15.38058	11.27051
6.19057	-15.35861	11.27051
6.19485	-15.35861	11.27051
6.19910	-15.33664	11.27051
6.20330	-15.33664	11.27051
6.20748	-15.31466	11.27051
6.21167	-15.29269	11.27051
6.21585	-15.29269	11.27051
6.22004	-15.29269	11.27051
6.22429	-15.27072	11.27051
6.22855	-15.24875	11.27051
6.23275	-15.22677	11.27051
6.23694	-15.22677	11.27051
6.24112	-15.22677	11.27051
6.24531	-15.20480	11.27051
6.24950	-15.20480	11.27051
6.25368	-15.18283	11.27051
6.25797	-15.18283	11.27051
6.26219	-15.16086	11.27051
6.26638	-15.13888	11.27051
6.27058	-15.13888	11.27051
6.27477	-15.13888	11.27051
6.27907	-15.11691	11.27051
6.28326	-15.09494	11.27051
6.28765	-15.09494	11.27051
6.29186	-15.09494	11.27051
6.29605	-15.07297	11.27051
6.30023	-15.07297	11.27051
6.30442	-15.05099	11.27051
6.30860	-15.05099	11.27051
6.31279	-15.02902	11.27051
6.31705	-15.02902	11.27051
6.32131	-15.02902	11.27051
6.32551	-15.00705	11.27051
6.32969	-15.00705	11.27051
6.33388	-15.00705	11.27051
6.33807	-14.98507	11.27051
6.34225	-14.98507	11.27051
6.34650	-14.96310	11.27051
6.35078	-14.96310	11.27051
6.35499	-14.96310	11.27051
6.35918	-14.94113	11.27051
6.36336	-14.94113	11.27051
6.36755	-14.91916	11.27051
6.37175	-14.91916	11.27051
6.37594	-14.94113	11.27051
6.38033	-14.91916	11.27051
6.38455	-14.91916	11.27051
6.38874	-14.89718	11.27051
6.39293	-14.89718	11.27051
6.39712	-14.89718	11.27051
6.40131	-14.89718	11.27051
6.40549	-14.89718	11.27051
6.40988	-14.89718	11.27051
6.41410	-14.87521	11.27051
6.41830	-14.87521	11.27051
6.42249	-14.87521	11.27051
6.42664	-14.87521	11.27051
6.43082	-14.87521	11.27051
6.43501	-14.85324	11.27051
6.43927	-14.85324	11.27051
6.44352	-14.85324	11.27051
6.44773	-14.85324	11.27051
6.45192	-14.85324	11.27051
6.45611	-14.85324	11.27051
6.46029	-14.85324	11.27051
6.46448	-14.85324	11.27051
6.46873	-14.85324	11.27051
6.47299	-14.85324	11.27051
6.47719	-14.85324	11.27051
6.48148	-14.85324	11.27051
6.48567	-14.85324	11.27051
6.48989	-14.85324	11.27051
6.49408	-14.85324	11.27051
6.49826	-14.85324	11.27051
6.50257	-14.85324	11.27051
6.50678	-14.85324	11.27051
6.51097	-14.85324	11.27051
6.51516	-14.85324	11.27051
6.51934	-14.87521	11.27051
6.52353	-14.85324	11.27051
6.52771	-14.87521	11.27051
6.53210	-14.87521	11.27051
6.53632	-14.87521	11.27051
6.54051	-14.87521	11.27051
6.54470	-14.87521	11.27051
6.54889	-14.87521	11.27051
6.55308	-14.89718	11.27051
6.55726	-14.89718	11.27051
6.56152	-14.89718	11.27051
6.56577	-14.89718	11.27051
6.56997	-14.89718	11.27051
6.57416	-14.91916	11.27051
6.57834	-14.91916	11.27051
6.58264	-14.91916	11.27051
6.58684	-14.91916	11.27051
6.59113	-14.94113	11.27051
6.59542	-14.94113	11.27051
6.59962	-14.96310	11.27051
6.60381	-14.96310	11.27051
6.60800	-14.96310	11.27051
6.61219	-14.96310	11.27051
6.61638	-14.96310	11.27051
6.62057	-14.96310	11.27051
6.62488	-14.98507	11.27051
6.62910	-14.98507	11.27051
6.63332	-15.00705	11.27051
6.63752	-15.00705	11.27051
6.64173	-15.00705	11.27051
6.64594	-15.02902	11.27051
6.65018	-15.02902	11.27051
6.65473	-15.02902	11.27051
6.65893	-15.05099	11.27051
6.66310	-15.05099	11.27051
6.66728	-15.07297	11.27051
6.67145	-15.09494	11.27051
6.67561	-15.09494	11.27051
6.67977	-15.09494	11.27051
6.68417	-15.11691	11.27051
6.68841	-15.11691	11.27051
6.69258	-15.11691	11.27051
6.69675	-15.13888	11.27051
6.70092	-15.13888	11.27051
6.70508	-15.16086	11.27051
6.70925	-15.16086	11.27051
6.71347	-15.16086	11.27051
6.71773	-15.18283	11.27051
6.72192	-15.20480	11.27051
6.72609	-15.20480	11.27051
6.73025	-15.22677	11.27051
6.73441	-15.22677	11.27051
6.73859	-15.24875	11.27051
6.74275	-15.24875	11.27051
6.74702	-15.27072	11.27051
6.75121	-15.27072	11.27051
6.75540	-15.29269	11.27051
6.75959	-15.29269	11.27051
6.76377	-15.31466	11.27051
6.76796	-15.31466	11.27051
6.77214	-15.33664	11.27051
6.77657	-15.33664	11.27051
6.78078	-15.35861	11.27051
6.78507	-15.35861	11.27051
6.78925	-15.40256	11.27051
6.79344	-15.40256	11.27051
6.79762	-15.40256	11.27051
6.80180	-15.42453	11.27051
6.80606	-15.42453	11.27051
6.81033	-15.44650	11.27051
6.81453	-15.46847	11.27051
6.81872	-15.46847	11.27051
6.82290	-15.46847	11.27051
6.82708	-15.51242	11.27051
6.83127	-15.51242	11.27051
6.83551	-15.51242	11.27051
6.83979	-15.53439	11.27051
6.84398	-15.55636	11.27051
6.84817	-15.55636	11.27051
6.85238	-15.55636	11.27051
6.85657	-15.57834	11.27051
6.86076	-15.60031	11.27051
6.86494	-15.60031	11.27051
6.86931	-15.62228	11.27051
6.87353	-15.62228	11.27051
6.87773	-15.64425	11.27051
6.88191	-15.64425	11.27051
6.88622	-15.68820	11.27051
6.89041	-15.68820	11.27051
6.89461	-15.71017	11.27051
6.89914	-15.73214	11.27051
6.90341	-15.73214	11.27051
6.90767	-15.73214	11.27051
6.91189	-15.75412	11.27051
6.91609	-15.77609	11.27051
6.92029	-15.77609	11.27051
6.92449	-15.77609	11.27051
6.92877	-15.79806	11.27051
6.93304	-15.82004	11.27051
6.93724	-15.84201	11.27051
6.94144	-15.84201	11.27051
6.94563	-15.88595	11.27051
6.94982	-15.88595	11.27051
6.95401	-15.88595	11.27051
6.95825	-15.88595	11.27051
6.96255	-15.90793	11.27051
6.96676	-15.90793	11.27051
6.97095	-15.92990	11.27051
6.97515	-15.95187	11.27051
6.97934	-15.95187	11.27051
6.98353	-15.95187	11.27051
6.98783	-15.97384	11.27051
6.99214	-15.99582	11.27051
6.99635	-15.99582	11.27051
7.00054	-15.99582	11.27051
7.00473	-16.01779	11.27051
7.00892	-16.01779	11.27051
7.01311	-16.03976	11.27051
7.01730	-16.06173	11.27051
7.02172	-16.06173	11.27051
7.02593	-16.06173	11.27051
7.03012	-16.08371	11.27051
7.03430	-16.08371	11.27051
7.03849	-16.10568	11.27051
7.04264	-16.12765	11.27051
7.04683	-16.12765	11.27051
7.05109	-16.14963	11.27051
7.05536	-16.14963	11.27051
7.05955	-16.14963	11.27051
7.06373	-16.14963	11.27051
7.06792	-16.17160	11.27051
7.07211	-16.17160	11.27051
7.07629	-16.19357	11.27051
7.08054	-16.21554	11.27051
7.08482	-16.21554	11.27051
7.08912	-16.21554	11.27051
7.09331	-16.23752	11.27051
7.09749	-16.23752	11.27051
7.10168	-16.25949	11.27051
7.10586	-16.25949	11.27051
7.11004	-16.25949	11.27051
7.11434	-16.28146	11.27051
7.11856	-16.28146	11.27051
7.12275	-16.28146	11.27051
7.12693	-16.30343	11.27051
7.13112	-16.30343	11.27051
7.13532	-16.30343	11.27051
7.13951	-16.30343	11.27051
7.14395	-16.32541	11.27051
7.14817	-16.32541	11.27051
7.15237	-16.34738	11.27051
7.15656	-16.34738	11.27051
7.16075	-16.36935	11.27051
7.16494	-16.36935	11.27051
7.16913	-16.36935	11.27051
7.17343	-16.36935	11.27051
7.17769	-16.36935	11.27051
7.18189	-16.39132	11.27051
7.18608	-16.41330	11.27051
7.19038	-16.41330	11.27051
7.19458	-16.41330	11.27051
7.19903	-16.41330	11.27051
7.20338	-16.43527	11.27051
7.20774	-16.43527	11.27051
7.21195	-16.43527	11.27051
7.21614	-16.43527	11.27051
7.22035	-16.43527	11.27051
7.22454	-16.45724	11.27051
7.22873	-16.45724	11.27051
7.23292	-16.45724	11.27051
7.23728	-16.45724	11.27051
7.24149	-16.47922	11.27051
7.24568	-16.47922	11.27051
7.24987	-16.47922	11.27051
7.25409	-16.47922	11.27051
7.25889	-16.50119	11.27051
7.26312	-16.50119	11.27051
7.26775	-16.50119	11.27051
7.27199	-16.50119	11.27051
7.27619	-16.52316	11.27051
7.28038	-16.52316	11.27051
7.28458	-16.52316	11.27051
7.28877	-16.52316	11.27051
7.29307	-16.52316	11.27051
7.29745	-16.52316	11.27051
7.30178	-16.52316	11.27051
7.30598	-16.54513	11.27051
7.31018	-16.54513	11.27051
7.31437	-16.54513	11.27051
7.31857	-16.54513	11.27051
7.32276	-16.54513	11.27051
7.32701	-16.54513	11.27051
7.33130	-16.56711	11.27051
7.33551	-16.56711	11.27051
7.33970	-16.56711	11.27051
7.34389	-16.56711	11.27051
7.34808	-16.56711	11.27051
7.35227	-16.56711	11.27051
7.35646	-16.56711	11.27051
7.36076	-16.56711	11.27051
7.36497	-16.56711	11.27051
7.36916	-16.58908	11.27051
7.37335	-16.56711	11.27051
7.37753	-16.58908	11.27051
7.38172	-16.56711	11.27051
7.38590	-16.58908	11.27051
7.39031	-16.58908	11.27051
7.39465	-16.58908	11.27051
7.39884	-16.56711	11.27051
7.40303	-16.58908	11.27051
7.40722	-16.56711	11.27051
7.41142	-16.58908	11.27051
7.41561	-16.58908	11.27051
7.41989	-16.56711	11.27051
7.42416	-16.56711	11.27051
7.42836	-16.56711	11.27051
7.43255	-16.56711	11.27051
7.43674	-16.56711	11.27051
7.44093	-16.56711	11.27051
7.44512	-16.56711	11.27051
7.44936	-16.56711	11.27051
7.45364	-16.56711	11.27051
7.45784	-16.56711	11.27051
7.46204	-16.56711	11.27051
7.46623	-16.56711	11.27051
7.47042	-16.56711	11.27051
7.47461	-16.56711	11.27051
7.47879	-16.54513	11.27051
7.48309	-16.56711	11.27051
7.48729	-16.54513	11.27051
7.49148	-16.54513	11.27051
7.49577	-16.54513	11.27051
7.49995	-16.54513	11.27051
7.50414	-16.52316	11.27051
7.50832	-16.54513	11.27051
7.51273	-16.52316	11.27051
7.51694	-16.52316	11.27051
7.52114	-16.52316	11.27051
7.52533	-16.52316	11.27051
7.52952	-16.50119	11.27051
7.53371	-16.52316	11.27051
7.53790	-16.50119	11.27051
7.54220	-16.50119	11.27051
7.54647	-16.50119	11.27051
7.55066	-16.50119	11.27051
7.55486	-16.50119	11.27051
7.55905	-16.50119	11.27051
7.56324	-16.47922	11.27051
7.56743	-16.47922	11.27051
7.57166	-16.47922	11.27051
7.57595	-16.47922	11.27051
7.58015	-16.47922	11.27051
7.58434	-16.45724	11.27051
7.58853	-16.45724	11.27051
7.59272	-16.45724	11.27051
7.59702	-16.43527	11.27051
7.60121	-16.43527	11.27051
7.60551	-16.43527	11.27051
7.60971	-16.43527	11.27051
7.61390	-16.43527	11.27051
7.61810	-16.43527	11.27051
7.62229	-16.41330	11.27051
7.62648	-16.41330	11.27051
7.63065	-16.41330	11.27051
7.63508	-16.41330	11.27051
7.63930	-16.41330	11.27051
7.64349	-16.39132	11.27051
7.64768	-16.39132	11.27051
7.65187	-16.39132	11.27051
7.65607	-16.39132	11.27051
7.66026	-16.36935	11.27051
7.66456	-16.36935	11.27051
7.66883	-16.36935	11.27051
7.67303	-16.34738	11.27051
7.67722	-16.34738	11.27051
7.68141	-16.34738	11.27051
7.68561	-16.34738	11.27051
7.68980	-16.34738	11.27051
7.69403	-16.34738	11.27051
7.69843	-16.34738	11.27051
7.70264	-16.32541	11.27051
7.70683	-16.32541	11.27051
7.71102	-16.32541	11.27051
7.71521	-16.32541	11.27051
7.71940	-16.32541	11.27051
7.72359	-16.30343	11.27051
7.72789	-16.30343	11.27051
7.73209	-16.30343	11.27051
7.73629	-16.30343	11.27051
7.74048	-16.30343	11.27051
7.74466	-16.28146	11.27051
7.74886	-16.30343	11.27051
7.75304	-16.28146	11.27051
7.75751	-16.28146	11.27051
7.76173	-16.28146	11.27051
7.76593	-16.28146	11.27051
7.77013	-16.28146	11.27051
7.77432	-16.25949	11.27051
7.77852	-16.28146	11.27051
7.78271	-16.28146	11.27051
7.78701	-16.25949	11.27051
7.79126	-16.25949	11.27051
7.79545	-16.23752	11.27051
7.79974	-16.23752	11.27051
7.80393	-16.23752	11.27051
7.80811	-16.23752	11.27051
7.81230	-16.23752	11.27051
7.81655	-16.23752	11.27051
7.82083	-16.23752	11.27051
7.82502	-16.23752	11.27051
7.82921	-16.21554	11.27051
7.83339	-16.21554	11.27051
7.83757	-16.21554	11.27051
7.84176	-16.21554	11.27051
7.84594	-16.21554	11.27051
7.85023	-16.21554	11.27051
7.85444	-16.21554	11.27051
7.85864	-16.19357	11.27051
7.86282	-16.19357	11.27051
7.86701	-16.19357	11.27051
7.87119	-16.19357	11.27051
7.87538	-16.19357	11.27051
7.87979	-16.19357	11.27051
7.88401	-16.19357	11.27051
7.88820	-16.19357	11.27051
7.89239	-16.19357	11.27051
7.89658	-16.17160	11.27051
7.90088	-16.19357	11.27051
7.90507	-16.17160	11.27051
7.90937	-16.17160	11.27051
7.91363	-16.17160	11.27051
7.91783	-16.17160	11.27051
7.92202	-16.17160	11.27051
7.92621	-16.17160	11.27051
7.93040	-16.17160	11.27051
7.93460	-16.17160	11.27051
7.93885	-16.14963	11.27051
7.94313	-16.14963	11.27051
7.94733	-16.14963	11.27051
7.95153	-16.14963	11.27051
7.95572	-16.14963	11.27051
7.95991	-16.14963	11.27051
7.96409	-16.14963	11.27051
7.96828	-16.14963	11.27051
7.97258	-16.14963	11.27051
7.97679	-16.14963	11.27051
7.98098	-16.14963	11.27051
7.98517	-16.14963	11.27051
7.98937	-16.12765	11.27051
7.99355	-16.12765	11.27051
7.99774	-16.12765	11.27051
8.00225	-16.12765	11.27051
8.00647	-16.12765	11.27051
8.01064	-16.12765	11.27051
8.01483	-16.12765	11.27051
8.01901	-16.12765	11.27051
8.02319	-16.12765	11.27051
8.02738	-16.12765	11.27051
8.03164	-16.12765	11.27051
8.03589	-16.10568	11.27051
8.04008	-16.10568	11.27051
8.04427	-16.10568	11.27051
8.04845	-16.10568	11.27051
8.05264	-16.10568	11.27051
8.05682	-16.10568	11.27051
8.06105	-16.10568	11.27051
8.06531	-16.10568	11.27051
8.06952	-16.10568	11.27051
8.07371	-16.10568	11.27051
8.07790	-16.10568	11.27051
8.08208	-16.10568	11.27051
8.08626	-16.08371	11.27051
8.09044	-16.10568	11.27051
8.09474	-16.08371	11.27051
8.09894	-16.10568	11.27051
8.10323	-16.10568	11.27051
8.10741	-16.08371	11.27051
8.11160	-16.08371	11.27051
8.11578	-16.08371	11.27051
8.11996	-16.08371	11.27051
8.12436	-16.08371	11.27051
8.12858	-16.08371	11.27051
8.13278	-16.08371	11.27051
8.13697	-16.08371	11.27051
8.14116	-16.08371	11.27051
8.14535	-16.08371	11.27051
8.14954	-16.08371	11.27051
8.15384	-16.08371	11.27051
8.15810	-16.08371	11.27051
8.16229	-16.08371	11.27051
8.16648	-16.08371	11.27051
8.17064	-16.08371	11.27051
8.17483	-16.06173	11.27051
8.17901	-16.06173	11.27051
8.18326	-16.06173	11.27051
8.18752	-16.08371	11.27051
8.19172	-16.06173	11.27051
8.19591	-16.06173	11.27051
8.20009	-16.06173	11.27051
8.20438	-16.06173	11.27051
8.20856	-16.06173	11.27051
8.21275	-16.06173	11.27051
8.21703	-16.06173	11.27051
8.22125	-16.06173	11.27051
8.22543	-16.06173	11.27051
8.22962	-16.06173	11.27051
8.23380	-16.06173	11.27051
8.23798	-16.06173	11.27051
8.24217	-16.06173	11.27051
8.24658	-16.06173	11.27051
8.25081	-16.03976	11.27051
8.25500	-16.06173	11.27051
8.25919	-16.03976	11.27051
8.26338	-16.03976	11.27051
8.26770	-16.03976	11.27051
8.27191	-16.03976	11.27051
8.27621	-16.03976	11.27051
8.28047	-16.03976	11.27051
8.28468	-16.03976	11.27051
8.28887	-16.03976	11.27051
8.29307	-16.03976	11.27051
8.29726	-16.03976	11.27051
8.30144	-16.03976	11.27051
8.30579	-16.03976	11.27051
8.31004	-16.03976	11.27051
8.31424	-16.03976	11.27051
8.31843	-16.01779	11.27051
8.32263	-16.01779	11.27051
8.32681	-16.01779	11.27051
8.33100	-16.01779	11.27051
8.33518	-16.01779	11.27051
8.33947	-16.01779	11.27051
8.34368	-16.01779	11.27051
8.34787	-16.01779	11.27051
8.35205	-16.01779	11.27051
8.35623	-15.99582	11.27051
8.36042	-16.01779	11.27051
8.36460	-16.01779	11.27051
8.36899	-15.99582	11.27051
8.37322	-15.99582	11.27051
8.37741	-15.99582	11.27051
8.38160	-15.99582	11.27051
8.38580	-15.99582	11.27051
8.38998	-15.99582	11.27051
8.39418	-15.99582	11.27051
8.39849	-15.99582	11.27051
8.40271	-15.97384	11.27051
8.40702	-15.97384	11.27051
8.41121	-15.97384	11.27051
8.41539	-15.97384	11.27051
8.41958	-15.97384	11.27051
8.42377	-15.97384	11.27051
8.42801	-15.97384	11.27051
8.43227	-15.97384	11.27051
8.43648	-15.97384	11.27051
8.44067	-15.95187	11.27051
8.44485	-15.95187	11.27051
8.44903	-15.95187	11.27051
8.45322	-15.95187	11.27051
8.45740	-15.95187	11.27051
8.46169	-15.95187	11.27051
8.46590	-15.95187	11.27051
8.47010	-15.95187	11.27051
8.47428	-15.95187	11.27051
8.47847	-15.95187	11.27051
8.48264	-15.95187	11.27051
8.48682	-15.92990	11.27051
8.49122	-15.92990	11.27051
8.49546	-15.92990	11.27051
8.49965	-15.92990	11.27051
8.50384	-15.92990	11.27051
8.50814	-15.92990	11.27051
8.51233	-15.92990	11.27051
8.51652	-15.92990	11.27051
8.52082	-15.90793	11.27051
8.52507	-15.90793	11.27051
8.52927	-15.92990	11.27051
8.53346	-15.90793	11.27051
8.53764	-15.90793	11.27051
8.54182	-15.90793	11.27051
8.54601	-15.90793	11.27051
8.55025	-15.90793	11.27051
8.55453	-15.90793	11.27051
8.55874	-15.90793	11.27051
8.56292	-15.90793	11.27051
8.56711	-15.90793	11.27051
8.57129	-15.88595	11.27051
8.57548	-15.88595	11.27051
8.57966	-15.90793	11.27051
8.58394	-15.88595	11.27051
8.58815	-15.88595	11.27051
8.59233	-15.88595	11.27051
8.59652	-15.88595	11.27051
8.60070	-15.88595	11.27051
8.60488	-15.88595	11.27051
8.60917	-15.88595	11.27051
8.61356	-15.88595	11.27051
8.61779	-15.88595	11.27051
8.62198	-15.88595	11.27051
8.62617	-15.88595	11.27051
8.63036	-15.88595	11.27051
8.63456	-15.88595	11.27051
8.63874	-15.88595	11.27051
8.64301	-15.88595	11.27051
8.64726	-15.88595	11.27051
8.65145	-15.88595	11.27051
8.65564	-15.88595	11.27051
8.65983	-15.88595	11.27051
8.66402	-15.88595	11.27051
8.66820	-15.88595	11.27051
8.67244	-15.88595	11.27051
8.67670	-15.88595	11.27051
8.68090	-15.88595	11.27051
8.68509	-15.88595	11.27051
8.68928	-15.88595	11.27051
8.69346	-15.88595	11.27051
8.69765	-15.88595	11.27051
8.70183	-15.88595	11.27051
8.70612	-15.88595	11.27051
8.71043	-15.88595	11.27051
8.71463	-15.88595	11.27051
8.71881	-15.88595	11.27051
8.72300	-15.88595	11.27051
8.72718	-15.88595	11.27051
8.73136	-15.88595	11.27051
8.73575	-15.88595	11.27051
8.73997	-15.88595	11.27051
8.74417	-15.88595	11.27051
8.74836	-15.90793	11.27051
8.75255	-15.90793	11.27051
8.75674	-15.90793	11.27051
8.76094	-15.90793	11.27051
8.76525	-15.90793	11.27051
8.76950	-15.90793	11.27051
8.77370	-15.90793	11.27051
8.77789	-15.90793	11.27051
8.78208	-15.90793	11.27051
8.78627	-15.90793	11.27051
8.79045	-15.92990	11.27051
8.79469	-15.92990	11.27051
8.79896	-15.92990	11.27051
8.80316	-15.92990	11.27051
8.80735	-15.92990	11.27051
8.81164	-15.95187	11.27051
8.81582	-15.95187	11.27051
8.82000	-15.95187	11.27051
8.82419	-15.95187	11.27051
8.82847	-15.95187	11.27051
8.83268	-15.95187	11.27051
8.83686	-15.97384	11.27051
8.84105	-15.97384	11.27051
8.84523	-15.97384	11.27051
8.84942	-15.97384	11.27051
8.85360	-15.97384	11.27051
8.85799	-15.99582	11.27051
8.86222	-15.99582	11.27051
8.86642	-15.99582	11.27051
8.87064	-15.99582	11.27051
8.87484	-16.01779	11.27051
8.87902	-15.99582	11.27051
8.88321	-16.01779	11.27051
8.88747	-16.01779	11.27051
8.89174	-16.01779	11.27051
8.89593	-16.01779	11.27051
8.90012	-16.03976	11.27051
8.90431	-16.03976	11.27051
8.90849	-16.03976	11.27051
8.91278	-16.06173	11.27051
8.91702	-16.06173	11.27051
8.92131	-16.06173	11.27051
8.92551	-16.06173	11.27051
8.92970	-16.08371	11.27051
8.93388	-16.08371	11.27051
8.93806	-16.10568	11.27051
8.94225	-16.10568	11.27051
8.94643	-16.10568	11.27051
8.95074	-16.10568	11.27051
8.95493	-16.12765	11.27051
8.95912	-16.12765	11.27051
8.96330	-16.14963	11.27051
8.96749	-16.14963	11.27051
8.97167	-16.14963	11.27051
8.97585	-16.14963	11.27051
8.98013	-16.14963	11.27051
8.98436	-16.17160	11.27051
8.98855	-16.19357	11.27051
8.99397	-16.19357	11.27051
8.99816	-16.21554	11.27051
9.00235	-16.21554	11.27051
9.00656	-16.21554	11.27051
9.01082	-16.21554	11.27051
9.01518	-16.23752	11.27051
9.01937	-16.23752	11.27051
9.02356	-16.25949	11.27051
9.02775	-16.25949	11.27051
9.03193	-16.25949	11.27051
9.03612	-16.25949	11.27051
9.04038	-16.28146	11.27051
9.04464	-16.28146	11.27051
9.04883	-16.30343	11.27051
9.05302	-16.30343	11.27051
9.05720	-16.30343	11.27051
9.06139	-16.32541	11.27051
9.06557	-16.32541	11.27051
9.06983	-16.34738	11.27051
9.07411	-16.34738	11.27051
9.07831	-16.36935	11.27051
9.08249	-16.36935	11.27051
9.08664	-16.36935	11.27051
9.09083	-16.39132	11.27051
9.09501	-16.39132	11.27051
9.09920	-16.41330	11.27051
9.10350	-16.41330	11.27051
9.10770	-16.43527	11.27051
9.11189	-16.43527	11.27051
9.11618	-16.43527	11.27051
9.12036	-16.43527	11.27051
9.12455	-16.45724	11.27051
9.12873	-16.47922	11.27051
9.13314	-16.47922	11.27051
9.13737	-16.47922	11.27051
9.14156	-16.50119	11.27051
9.14576	-16.50119	11.27051
9.14995	-16.50119	11.27051
9.15415	-16.52316	11.27051
9.15834	-16.54513	11.27051
9.16264	-16.54513	11.27051
9.16691	-16.54513	11.27051
9.17111	-16.56711	11.27051
9.17530	-16.56711	11.27051
9.17949	-16.58908	11.27051
9.18368	-16.58908	11.27051
9.18786	-16.58908	11.27051
9.19211	-16.61105	11.27051
9.19640	-16.61105	11.27051
9.20061	-16.63302	11.27051
9.20480	-16.63302	11.27051
9.20899	-16.65500	11.27051
9.21318	-16.65500	11.27051
9.21748	-16.65500	11.27051
9.22167	-16.65500	11.27051
9.22598	-16.67697	11.27051
9.23019	-16.69894	11.27051
9.23438	-16.69894	11.27051
9.23858	-16.72091	11.27051
9.24277	-16.72091	11.27051
9.24696	-16.72091	11.27051
9.25115	-16.72091	11.27051
9.25558	-16.72091	11.27051
9.25979	-16.76486	11.27051
9.26398	-16.76486	11.27051
9.26819	-16.76486	11.27051
9.27240	-16.76486	11.27051
9.27660	-16.78683	11.27051
9.28079	-16.80881	11.27051
9.28508	-16.80881	11.27051
9.28934	-16.80881	11.27051
9.29354	-16.83078	11.27051
9.29773	-16.83078	11.27051
9.30192	-16.83078	11.27051
9.30611	-16.85275	11.27051
9.31030	-16.85275	11.27051
9.31460	-16.87472	11.27051
9.31901	-16.87472	11.27051
9.32321	-16.87472	11.27051
9.32741	-16.87472	11.27051
9.33160	-16.89670	11.27051
9.33579	-16.89670	11.27051
9.33998	-16.91867	11.27051
9.34418	-16.91867	11.27051
9.34849	-16.91867	11.27051
9.35270	-16.94064	11.27051
9.35689	-16.94064	11.27051
9.36107	-16.94064	11.27051
9.36526	-16.94064	11.27051
9.36944	-16.96261	11.27051
9.37363	-16.96261	11.27051
9.37805	-16.96261	11.27051
9.38226	-16.98459	11.27051
9.38646	-16.98459	11.27051
9.39065	-17.00656	11.27051
9.39484	-17.00656	11.27051
9.39903	-17.00656	11.27051
9.40322	-17.00656	11.27051
9.40751	-17.02853	11.27051
9.41177	-17.02853	11.27051
9.41597	-17.02853	11.27051
9.42028	-17.05050	11.27051
9.42447	-17.05050	11.27051
9.42866	-17.05050	11.27051
9.43285	-17.05050	11.27051
9.43710	-17.07248	11.27051
9.44139	-17.07248	11.27051
9.44559	-17.07248	11.27051
9.44979	-17.09445	11.27051
9.45398	-17.09445	11.27051
9.45817	-17.09445	11.27051
9.46236	-17.09445	11.27051
9.46656	-17.09445	11.27051
9.47086	-17.11642	11.27051
9.47507	-17.11642	11.27051
9.47926	-17.11642	11.27051
9.48346	-17.11642	11.27051
9.48765	-17.13839	11.27051
9.49184	-17.13839	11.27051
9.49603	-17.16037	11.27051
9.50043	-17.16037	11.27051
9.50465	-17.16037	11.27051
9.50885	-17.16037	11.27051
9.51304	-17.16037	11.27051
9.51723	-17.16037	11.27051
9.52153	-17.18234	11.27051
9.52572	-17.18234	11.27051
9.53001	-17.18234	11.27051
9.53426	-17.20431	11.27051
9.53846	-17.20431	11.27051
9.54264	-17.18234	11.27051
9.54683	-17.20431	11.27051
9.55101	-17.18234	11.27051
9.55519	-17.20431	11.27051
9.55944	-17.20431	11.27051
9.56370	-17.20431	11.27051
9.56791	-17.20431	11.27051
9.57210	-17.22629	11.27051
9.57628	-17.22629	11.27051
9.58047	-17.22629	11.27051
9.58465	-17.22629	11.27051
9.58884	-17.22629	11.27051
9.59313	-17.22629	11.27051
9.59734	-17.24826	11.27051
9.60153	-17.22629	11.27051
9.60571	-17.24826	11.27051
9.60990	-17.24826	11.27051
9.61408	-17.24826	11.27051
9.61827	-17.24826	11.27051
9.62283	-17.24826	11.27051
9.62704	-17.24826	11.27051
9.63124	-17.27023	11.27051
9.63543	-17.27023	11.27051
9.63962	-17.27023	11.27051
9.64382	-17.27023	11.27051
9.64800	-17.27023	11.27051
9.65228	-17.27023	11.27051
9.65653	-17.27023	11.27051
9.66073	-17.27023	11.27051
9.66492	-17.29220	11.27051
9.66911	-17.29220	11.27051
9.67330	-17.29220	11.27051
9.67748	-17.29220	11.27051
9.68172	-17.29220	11.27051
9.68599	-17.29220	11.27051
9.69019	-17.29220	11.27051
9.69438	-17.29220	11.27051
9.69857	-17.29220	11.27051
9.70276	-17.31418	11.27051
9.70694	-17.31418	11.27051
9.71113	-17.31418	11.27051
9.71541	-17.31418	11.27051
9.71963	-17.31418	11.27051
9.72392	-17.31418	11.27051
9.72810	-17.31418	11.27051
9.73228	-17.29220	11.27051
9.73647	-17.31418	11.27051
9.74065	-17.31418	11.27051
9.74504	-17.31418	11.27051
9.74927	-17.33615	11.27051
9.75346	-17.31418	11.27051
9.75766	-17.33615	11.27051
9.76185	-17.33615	11.27051
9.76604	-17.33615	11.27051
9.77023	-17.33615	11.27051
9.77453	-17.33615	11.27051
9.77878	-17.33615	11.27051
9.78299	-17.33615	11.27051
9.78718	-17.33615	11.27051
9.79137	-17.33615	11.27051
9.79556	-17.35812	11.27051
9.79975	-17.35812	11.27051
9.80399	-17.35812	11.27051
9.80826	-17.35812	11.27051
9.81246	-17.33615	11.27051
9.81666	-17.35812	11.27051
9.82085	-17.35812	11.27051
9.82515	-17.35812	11.27051
9.82934	-17.35812	11.27051
9.83353	-17.38009	11.27051
9.83782	-17.35812	11.27051
9.84203	-17.38009	11.27051
9.84622	-17.38009	11.27051
9.85040	-17.38009	11.27051
9.85460	-17.38009	11.27051
9.85879	-17.38009	11.27051
9.86297	-17.38009	11.27051
9.86737	-17.38009	11.27051
9.87159	-17.40207	11.27051
9.87579	-17.40207	11.27051
9.87997	-17.40207	11.27051
9.88417	-17.40207	11.27051
9.88836	-17.40207	11.27051
9.89255	-17.40207	11.27051
9.89683	-17.40207	11.27051
9.90108	-17.42404	11.27051
9.90529	-17.42404	11.27051
9.90948	-17.42404	11.27051
9.91367	-17.42404	11.27051
9.91786	-17.42404	11.27051
9.92205	-17.42404	11.27051
9.92642	-17.42404	11.27051
9.93070	-17.42404	11.27051
9.93492	-17.42404	11.27051
9.93911	-17.42404	11.27051
9.94330	-17.44601	11.27051
9.94750	-17.44601	11.27051
9.95169	-17.44601	11.27051
9.95587	-17.44601	11.27051
9.96017	-17.44601	11.27051
9.96438	-17.46798	11.27051
9.96858	-17.44601	11.27051
9.97277	-17.46798	11.27051
9.97695	-17.46798	11.27051
9.98113	-17.46798	11.27051
9.98532	-17.46798	11.27051
9.98973	-17.46798	11.27051
9.99395	-17.46798	11.27051
9.99814	-17.48996	11.27051
10.00234	-17.46798	11.27051
10.00654	-17.48996	11.27051
10.01073	-17.48996	11.27051
10.01492	-17.48996	11.27051
10.01921	-17.48996	11.27051
10.02347	-17.48996	11.27051
10.02779	-17.48996	11.27051
10.03198	-17.48996	11.27051
10.03617	-17.48996	11.27051
10.04036	-17.48996	11.27051
10.04456	-17.51193	11.27051
10.04881	-17.51193	11.27051
10.05309	-17.51193	11.27051
10.05730	-17.51193	11.27051
10.06149	-17.51193	11.27051
10.06568	-17.51193	11.27051
10.06988	-17.51193	11.27051
10.07406	-17.51193	11.27051
10.07825	-17.51193	11.27051
10.08256	-17.51193	11.27051
10.08677	-17.51193	11.27051
10.09096	-17.53390	11.27051
10.09515	-17.53390	11.27051
10.09933	-17.51193	11.27051
10.10352	-17.51193	11.27051
10.10770	-17.53390	11.27051
10.11210	-17.51193	11.27051
10.11633	-17.51193	11.27051
10.12053	-17.53390	11.27051
10.12472	-17.51193	11.27051
10.12902	-17.53390	11.27051
10.13321	-17.51193	11.27051
10.13740	-17.53390	11.27051
10.14169	-17.53390	11.27051
10.14595	-17.53390	11.27051
10.15016	-17.51193	11.27051
10.15436	-17.53390	11.27051
10.15856	-17.53390	11.27051
10.16275	-17.51193	11.27051
10.16694	-17.51193	11.27051
10.17120	-17.53390	11.27051
10.17547	-17.51193	11.27051
10.17967	-17.53390	11.27051
10.18387	-17.51193	11.27051
10.18806	-17.51193	11.27051
10.19225	-17.51193	11.27051
10.19644	-17.51193	11.27051
10.20066	-17.51193	11.27051
10.20495	-17.51193	11.27051
10.20917	-17.51193	11.27051
10.21338	-17.51193	11.27051
10.21757	-17.48996	11.27051
10.22177	-17.48996	11.27051
10.22597	-17.51193	11.27051
10.23028	-17.51193	11.27051
10.23470	-17.48996	11.27051
10.23892	-17.48996	11.27051
10.24311	-17.48996	11.27051
10.24730	-17.48996	11.27051
10.25149	-17.48996	11.27051
10.25568	-17.48996	11.27051
10.25987	-17.48996	11.27051
10.26417	-17.48996	11.27051
10.26841	-17.46798	11.27051
10.27264	-17.46798	11.27051
10.27683	-17.46798	11.27051
10.28102	-17.46798	11.27051
10.28521	-17.46798	11.27051
10.28939	-17.46798	11.27051
10.29364	-17.46798	11.27051
10.29792	-17.46798	11.27051
10.30214	-17.42404	11.27051
10.30633	-17.42404	11.27051
10.31052	-17.44601	11.27051
10.31470	-17.42404	11.27051
10.31889	-17.42404	11.27051
10.32307	-17.42404	11.27051
10.32736	-17.42404	11.27051
10.33167	-17.42404	11.27051
10.33586	-17.40207	11.27051
10.34005	-17.40207	11.27051
10.34423	-17.40207	11.27051
10.34842	-17.40207	11.27051
10.35260	-17.38009	11.27051
10.35699	-17.38009	11.27051
10.36122	-17.38009	11.27051
10.36541	-17.38009	11.27051
10.36961	-17.38009	11.27051
10.37380	-17.35812	11.27051
10.37799	-17.35812	11.27051
10.38218	-17.35812	11.27051
10.38648	-17.35812	11.27051
10.39071	-17.35812	11.27051
10.39492	-17.35812	11.27051
10.39912	-17.33615	11.27051
10.40331	-17.33615	11.27051
10.40750	-17.33615	11.27051
10.41169	-17.31418	11.27051
10.41593	-17.31418	11.27051
10.42023	-17.31418	11.27051
10.42444	-17.31418	11.27051
10.42863	-17.29220	11.27051
10.43294	-17.29220	11.27051
10.43713	-17.29220	11.27051
10.44132	-17.29220	11.27051
10.44552	-17.27023	11.27051
10.44981	-17.27023	11.27051
10.45402	-17.27023	11.27051
10.45821	-17.24826	11.27051
10.46240	-17.24826	11.27051
10.46659	-17.24826	11.27051
10.47077	-17.24826	11.27051
10.47496	-17.24826	11.27051
10.47936	-17.22629	11.27051
10.48359	-17.22629	11.27051
10.48778	-17.22629	11.27051
10.49197	-17.20431	11.27051
10.49616	-17.20431	11.27051
10.50035	-17.20431	11.27051
10.50454	-17.18234	11.27051
10.50883	-17.18234	11.27051
10.51308	-17.18234	11.27051
10.51729	-17.16037	11.27051
10.52148	-17.16037	11.27051
10.52567	-17.16037	11.27051
10.52986	-17.13839	11.27051
10.53416	-17.13839	11.27051
10.53840	-17.13839	11.27051
10.54268	-17.13839	11.27051
10.54689	-17.13839	11.27051
10.55109	-17.11642	11.27051
10.55528	-17.11642	11.27051
10.55947	-17.11642	11.27051
10.56366	-17.09445	11.27051
10.56785	-17.09445	11.27051
10.57214	-17.09445	11.27051
10.57637	-17.09445	11.27051
10.58056	-17.07248	11.27051
10.58475	-17.07248	11.27051
10.58895	-17.07248	11.27051
10.59314	-17.07248	11.27051
10.59732	-17.05050	11.27051
10.60179	-17.02853	11.27051
10.60602	-17.02853	11.27051
10.61022	-17.02853	11.27051
10.61441	-17.02853	11.27051
10.61860	-17.00656	11.27051
10.62279	-17.00656	11.27051
10.62698	-17.00656	11.27051
10.63125	-17.00656	11.27051
10.63561	-16.98459	11.27051
10.63981	-16.98459	11.27051
10.64399	-16.98459	11.27051
10.64818	-16.98459	11.27051
10.65237	-16.96261	11.27051
10.65655	-16.96261	11.27051
10.66080	-16.94064	11.27051
10.66507	-16.94064	11.27051
10.66928	-16.94064	11.27051
10.67347	-16.94064	11.27051
10.67766	-16.94064	11.27051
10.68185	-16.91867	11.27051
10.68603	-16.91867	11.27051
10.69022	-16.89670	11.27051
10.69452	-16.89670	11.27051
10.69874	-16.89670	11.27051
10.70302	-16.89670	11.27051
10.70722	-16.89670	11.27051
10.71141	-16.87472	11.27051
10.71560	-16.87472	11.27051
10.71979	-16.85275	11.27051
10.72424	-16.85275	11.27051
10.72847	-16.85275	11.27051
10.73267	-16.85275	11.27051
10.73698	-16.85275	11.27051
10.74117	-16.83078	11.27051
10.74536	-16.83078	11.27051
10.74955	-16.83078	11.27051
10.75385	-16.80881	11.27051
10.75811	-16.80881	11.27051
10.76231	-16.78683	11.27051
10.76651	-16.78683	11.27051
10.77071	-16.78683	11.27051
10.77490	-16.78683	11.27051
10.77909	-16.78683	11.27051
10.78334	-16.76486	11.27051
10.78761	-16.76486	11.27051
10.79182	-16.74289	11.27051
10.79601	-16.74289	11.27051
10.80020	-16.74289	11.27051
10.80439	-16.74289	11.27051
10.80859	-16.74289	11.27051
10.81278	-16.72091	11.27051
10.81707	-16.72091	11.27051
10.82129	-16.72091	11.27051
10.82548	-16.69894	11.27051
10.82967	-16.69894	11.27051
10.83386	-16.69894	11.27051
10.83817	-16.69894	11.27051
10.84236	-16.69894	11.27051
10.84679	-16.67697	11.27051
10.85102	-16.67697	11.27051
10.85521	-16.67697	11.27051
10.85940	-16.67697	11.27051
10.86359	-16.67697	11.27051
10.86778	-16.65500	11.27051
10.87197	-16.65500	11.27051
10.87626	-16.65500	11.27051
10.88051	-16.65500	11.27051
10.88476	-16.65500	11.27051
10.88897	-16.65500	11.27051
10.89316	-16.63302	11.27051
10.89735	-16.63302	11.27051
10.90154	-16.63302	11.27051
10.90583	-16.63302	11.27051
10.91011	-16.61105	11.27051
10.91431	-16.61105	11.27051
10.91852	-16.61105	11.27051
10.92271	-16.61105	11.27051
10.92689	-16.61105	11.27051
10.93108	-16.58908	11.27051
10.93526	-16.58908	11.27051
10.93966	-16.58908	11.27051
10.94388	-16.58908	11.27051
10.94807	-16.58908	11.27051
10.95226	-16.56711	11.27051
10.95645	-16.56711	11.27051
10.96065	-16.56711	11.27051
10.96484	-16.56711	11.27051
10.96924	-16.56711	11.27051
10.97347	-16.56711	11.27051
10.97766	-16.54513	11.27051
10.98184	-16.54513	11.27051
10.98603	-16.54513	11.27051
10.99021	-16.54513	11.27051
10.99440	-16.54513	11.27051
10.99867	-16.54513	11.27051
11.00292	-16.52316	11.27051
11.00712	-16.52316	11.27051
11.01131	-16.52316	11.27051
11.01549	-16.52316	11.27051
11.01968	-16.52316	11.27051
11.02386	-16.52316	11.27051
11.02811	-16.52316	11.27051
11.03237	-16.50119	11.27051
11.03658	-16.50119	11.27051
11.04087	-16.50119	11.27051
11.04505	-16.50119	11.27051
11.04924	-16.50119	11.27051
11.05342	-16.50119	11.27051
11.05760	-16.50119	11.27051
11.06189	-16.47922	11.27051
11.06611	-16.47922	11.27051
11.07030	-16.47922	11.27051
11.07448	-16.47922	11.27051
11.07864	-16.47922	11.27051
11.08283	-16.47922	11.27051
11.08701	-16.45724	11.27051
11.09140	-16.45724	11.27051
11.09563	-16.45724	11.27051
11.09983	-16.45724	11.27051
11.10402	-16.45724	11.27051
11.10821	-16.45724	11.27051
11.11240	-16.43527	11.27051
11.11659	-16.43527	11.27051
11.12089	-16.43527	11.27051
11.12514	-16.43527	11.27051
11.12934	-16.43527	11.27051
11.13353	-16.43527	11.27051
11.13773	-16.43527	11.27051
11.14203	-16.43527	11.27051
11.14622	-16.43527	11.27051
11.15048	-16.43527	11.27051
11.15473	-16.41330	11.27051
11.15894	-16.41330	11.27051
11.16313	-16.41330	11.27051
11.16732	-16.41330	11.27051
11.17152	-16.41330	11.27051
11.17571	-16.41330	11.27051
11.17990	-16.41330	11.27051
11.18419	-16.41330	11.27051
11.18841	-16.39132	11.27051
11.19260	-16.39132	11.27051
11.19678	-16.39132	11.27051
11.20097	-16.39132	11.27051
11.20516	-16.39132	11.27051
11.20935	-16.39132	11.27051
11.21374	-16.36935	11.27051
11.21798	-16.36935	11.27051
11.22217	-16.36935	11.27051
11.22636	-16.36935	11.27051
11.23056	-16.36935	11.27051
11.23475	-16.36935	11.27051
11.23894	-16.36935	11.27051
11.24339	-16.36935	11.27051
11.24764	-16.34738	11.27051
11.25184	-16.36935	11.27051
11.25604	-16.36935	11.27051
11.26023	-16.34738	11.27051
11.26442	-16.36935	11.27051
11.26861	-16.34738	11.27051
11.27291	-16.34738	11.27051
11.27719	-16.34738	11.27051
11.28141	-16.34738	11.27051
11.28561	-16.34738	11.27051
11.28980	-16.34738	11.27051
11.29399	-16.34738	11.27051
11.29819	-16.32541	11.27051
11.30239	-16.34738	11.27051
11.30671	-16.34738	11.27051
11.31093	-16.34738	11.27051
11.31512	-16.34738	11.27051
11.31930	-16.32541	11.27051
11.32349	-16.34738	11.27051
11.32767	-16.32541	11.27051
11.33186	-16.32541	11.27051
11.33625	-16.32541	11.27051
11.34047	-16.32541	11.27051
11.34478	-16.32541	11.27051
11.34897	-16.32541	11.27051
11.35317	-16.32541	11.27051
11.35736	-16.32541	11.27051
11.36155	-16.32541	11.27051
11.36584	-16.32541	11.27051
11.37010	-16.32541	11.27051
11.37430	-16.32541	11.27051
11.37849	-16.32541	11.27051
11.38266	-16.32541	11.27051
11.38685	-16.32541	11.27051
11.39104	-16.32541	11.27051
11.39529	-16.32541	11.27051
11.39955	-16.30343	11.27051
11.40376	-16.30343	11.27051
11.40795	-16.30343	11.27051
11.41214	-16.30343	11.27051
11.41634	-16.30343	11.27051
11.42053	-16.30343	11.27051
11.42472	-16.30343	11.27051
11.42901	-16.30343	11.27051
11.43323	-16.30343	11.27051
11.43743	-16.30343	11.27051
11.44162	-16.30343	11.27051
11.44592	-16.30343	11.27051
11.45010	-16.30343	11.27051
11.45429	-16.30343	11.27051
11.45871	-16.32541	11.27051
11.46293	-16.30343	11.27051
11.46713	-16.30343	11.27051
11.47132	-16.30343	11.27051
11.47551	-16.30343	11.27051
11.47970	-16.30343	11.27051
11.48388	-16.30343	11.27051
11.48814	-16.30343	11.27051
11.49238	-16.30343	11.27051
11.49658	-16.30343	11.27051
11.50077	-16.30343	11.27051
11.50496	-16.30343	11.27051
11.50914	-16.30343	11.27051
11.51333	-16.30343	11.27051
11.51757	-16.30343	11.27051
11.52183	-16.30343	11.27051
11.52603	-16.30343	11.27051
11.53022	-16.30343	11.27051
11.53441	-16.30343	11.27051
11.53860	-16.32541	11.27051
11.54278	-16.30343	11.27051
11.54707	-16.30343	11.27051
11.55136	-16.32541	11.27051
11.55557	-16.32541	11.27051
11.55976	-16.32541	11.27051
11.56394	-16.32541	11.27051
11.56813	-16.32541	11.27051
11.57231	-16.32541	11.27051
11.57650	-16.32541	11.27051
11.58088	-16.32541	11.27051
11.58512	-16.32541	11.27051
11.58932	-16.32541	11.27051
11.59351	-16.32541	11.27051
11.59770	-16.32541	11.27051
11.60189	-16.32541	11.27051
11.60608	-16.32541	11.27051
11.61037	-16.32541	11.27051
11.61463	-16.34738	11.27051
11.61884	-16.34738	11.27051
11.62303	-16.34738	11.27051
11.62722	-16.34738	11.27051
11.63141	-16.34738	11.27051
11.63560	-16.34738	11.27051
11.63984	-16.34738	11.27051
11.64410	-16.36935	11.27051
11.64842	-16.36935	11.27051
11.65262	-16.36935	11.27051
11.65681	-16.36935	11.27051
11.66100	-16.36935	11.27051
11.66519	-16.36935	11.27051
11.66938	-16.39132	11.27051
11.67366	-16.39132	11.27051
11.67788	-16.39132	11.27051
11.68207	-16.39132	11.27051
11.68626	-16.39132	11.27051
11.69044	-16.39132	11.27051
11.69463	-16.41330	11.27051
11.69882	-16.41330	11.27051
11.70321	-16.41330	11.27051
11.70744	-16.41330	11.27051
11.71163	-16.41330	11.27051
11.71583	-16.43527	11.27051
11.72002	-16.43527	11.27051
11.72421	-16.43527	11.27051
11.72840	-16.45724	11.27051
11.73269	-16.45724	11.27051
11.73694	-16.45724	11.27051
11.74115	-16.45724	11.27051
11.74534	-16.45724	11.27051
11.74965	-16.45724	11.27051
11.75384	-16.47922	11.27051
11.75803	-16.47922	11.27051
11.76228	-16.47922	11.27051
11.76656	-16.50119	11.27051
11.77077	-16.50119	11.27051
11.77497	-16.50119	11.27051
11.77915	-16.50119	11.27051
11.78334	-16.50119	11.27051
11.78752	-16.52316	11.27051
11.79170	-16.52316	11.27051
11.79599	-16.52316	11.27051
11.80021	-16.54513	11.27051
11.80440	-16.54513	11.27051
11.80858	-16.54513	11.27051
11.81277	-16.54513	11.27051
11.81695	-16.56711	11.27051
11.82114	-16.56711	11.27051
11.82553	-16.58908	11.27051
11.82976	-16.58908	11.27051
11.83396	-16.58908	11.27051
11.83815	-16.58908	11.27051
11.84234	-16.61105	11.27051
11.84654	-16.61105	11.27051
11.85084	-16.61105	11.27051
11.85513	-16.63302	11.27051
11.85938	-16.63302	11.27051
11.86358	-16.63302	11.27051
11.86777	-16.63302	11.27051
11.87196	-16.65500	11.27051
11.87615	-16.65500	11.27051
11.88034	-16.65500	11.27051
11.88463	-16.67697	11.27051
11.88891	-16.67697	11.27051
11.89313	-16.67697	11.27051
11.89732	-16.67697	11.27051
11.90151	-16.69894	11.27051
11.90570	-16.69894	11.27051
11.90988	-16.72091	11.27051
11.91407	-16.72091	11.27051
11.91836	-16.72091	11.27051
11.92258	-16.72091	11.27051
11.92677	-16.72091	11.27051
11.93096	-16.74289	11.27051
11.93514	-16.74289	11.27051
11.93933	-16.76486	11.27051
11.94352	-16.76486	11.27051
11.94791	-16.76486	11.27051
11.95225	-16.78683	11.27051
11.95645	-16.78683	11.27051
11.96064	-16.78683	11.27051
11.96483	-16.78683	11.27051
11.96902	-16.80881	11.27051
11.97321	-16.80881	11.27051
11.97750	-16.80881	11.27051
11.98175	-16.80881	11.27051
11.98595	-16.83078	11.27051
11.99014	-16.83078	11.27051
11.99433	-16.83078	11.27051
11.99853	-16.83078	11.27051
12.00272	-16.85275	11.27051
12.00696	-16.85275	11.27051
12.01123	-16.87472	11.27051
12.01544	-16.87472	11.27051
12.01964	-16.87472	11.27051
12.02383	-16.87472	11.27051
12.02802	-16.87472	11.27051
12.03221	-16.89670	11.27051
12.03640	-16.89670	11.27051
12.04069	-16.89670	11.27051
12.04491	-16.89670	11.27051
12.04910	-16.89670	11.27051
12.05341	-16.91867	11.27051
12.05759	-16.91867	11.27051
12.06178	-16.94064	11.27051
12.06596	-16.94064	11.27051
12.07035	-16.94064	11.27051
12.07458	-16.94064	11.27051
12.07878	-16.94064	11.27051
12.08297	-16.96261	11.27051
12.08717	-16.96261	11.27051
12.09136	-16.96261	11.27051
12.09555	-16.98459	11.27051
12.09985	-16.98459	11.27051
12.10410	-16.98459	11.27051
12.10830	-16.98459	11.27051
12.11249	-16.98459	11.27051
12.11668	-17.00656	11.27051
12.12087	-17.00656	11.27051
12.12506	-17.00656	11.27051
12.12930	-17.00656	11.27051
12.13357	-17.00656	11.27051
12.13778	-17.02853	11.27051
12.14197	-17.02853	11.27051
12.14616	-17.02853	11.27051
12.15034	-17.05050	11.27051
12.15464	-17.05050	11.27051
12.15883	-17.02853	11.27051
12.16312	-17.05050	11.27051
12.16733	-17.05050	11.27051
12.17152	-17.05050	11.27051
12.17571	-17.07248	11.27051
12.17989	-17.07248	11.27051
12.18408	-17.07248	11.27051
12.18828	-17.07248	11.27051
12.19272	-17.09445	11.27051
12.19700	-17.09445	11.27051
12.20122	-17.09445	11.27051
12.20541	-17.09445	11.27051
12.20960	-17.09445	11.27051
12.21379	-17.09445	11.27051
12.21797	-17.09445	11.27051
12.22224	-17.11642	11.27051
12.22650	-17.11642	11.27051
12.23066	-17.11642	11.27051
12.23486	-17.13839	11.27051
12.23904	-17.13839	11.27051
12.24323	-17.13839	11.27051
12.24742	-17.13839	11.27051
12.25168	-17.13839	11.27051
12.25605	-17.13839	11.27051
12.26025	-17.13839	11.27051
12.26444	-17.13839	11.27051
12.26862	-17.16037	11.27051
12.27284	-17.16037	11.27051
12.27702	-17.16037	11.27051
12.28121	-17.16037	11.27051
12.28552	-17.16037	11.27051
12.28974	-17.16037	11.27051
12.29393	-17.18234	11.27051
12.29812	-17.18234	11.27051
12.30231	-17.18234	11.27051
12.30649	-17.18234	11.27051
12.31064	-17.18234	11.27051
12.31504	-17.18234	11.27051
12.31926	-17.20431	11.27051
12.32345	-17.20431	11.27051
12.32763	-17.20431	11.27051
12.33182	-17.20431	11.27051
12.33601	-17.20431	11.27051
12.34019	-17.20431	11.27051
12.34445	-17.22629	11.27051
12.34872	-17.22629	11.27051
12.35292	-17.22629	11.27051
12.35721	-17.22629	11.27051
12.36140	-17.22629	11.27051
12.36558	-17.22629	11.27051
12.36977	-17.24826	11.27051
12.37402	-17.24826	11.27051
12.37829	-17.24826	11.27051
12.38250	-17.24826	11.27051
12.38665	-17.24826	11.27051
12.39083	-17.24826	11.27051
12.39502	-17.24826	11.27051
12.39920	-17.24826	11.27051
12.40338	-17.27023	11.27051
12.40767	-17.27023	11.27051
12.41188	-17.27023	11.27051
12.41607	-17.27023	11.27051
12.42026	-17.27023	11.27051
12.42445	-17.27023	11.27051
12.42863	-17.29220	11.27051
12.43281	-17.27023	11.27051
12.43723	-17.29220	11.27051
12.44145	-17.29220	11.27051
12.44564	-17.29220	11.27051
12.44983	-17.29220	11.27051
12.45401	-17.29220	11.27051
12.45830	-17.29220	11.27051
12.46249	-17.31418	11.27051
12.46673	-17.29220	11.27051
12.47097	-17.29220	11.27051
12.47516	-17.31418	11.27051
12.47935	-17.31418	11.27051
12.48353	-17.31418	11.27051
12.48772	-17.31418	11.27051
12.49190	-17.31418	11.27051
12.49616	-17.31418	11.27051
12.50042	-17.31418	11.27051
12.50463	-17.33615	11.27051
12.50881	-17.33615	11.27051
12.51300	-17.33615	11.27051
12.51718	-17.33615	11.27051
12.52136	-17.35812	11.27051
12.52555	-17.35812	11.27051
12.52984	-17.33615	11.27051
12.53406	-17.35812	11.27051
12.53825	-17.33615	11.27051
12.54244	-17.35812	11.27051
12.54663	-17.35812	11.27051
12.55081	-17.33615	11.27051
12.55500	-17.33615	11.27051
12.55953	-17.35812	11.27051
12.56375	-17.35812	11.27051
12.56794	-17.38009	11.27051
12.57213	-17.35812	11.27051
12.57632	-17.35812	11.27051
12.58051	-17.35812	11.27051
12.58470	-17.35812	11.27051
12.58900	-17.35812	11.27051
12.59326	-17.35812	11.27051
12.59746	-17.35812	11.27051
12.60165	-17.35812	11.27051
12.60584	-17.38009	11.27051
12.61003	-17.35812	11.27051
12.61422	-17.35812	11.27051
12.61846	-17.38009	11.27051
12.62273	-17.35812	11.27051
12.62694	-17.38009	11.27051
12.63113	-17.38009	11.27051
12.63533	-17.35812	11.27051
12.63951	-17.38009	11.27051
12.64370	-17.38009	11.27051
12.64788	-17.38009	11.27051
12.65217	-17.38009	11.27051
12.65638	-17.38009	11.27051
12.66068	-17.38009	11.27051
12.66486	-17.38009	11.27051
12.66905	-17.38009	11.27051
12.67323	-17.38009	11.27051
12.67741	-17.38009	11.27051
12.68181	-17.38009	11.27051
12.68603	-17.38009	11.27051
12.69023	-17.38009	11.27051
12.69442	-17.35812	11.27051
12.69862	-17.38009	11.27051
12.70281	-17.38009	11.27051
12.70699	-17.35812	11.27051
12.71129	-17.35812	11.27051
12.71554	-17.38009	11.27051
12.71974	-17.38009	11.27051
12.72393	-17.38009	11.27051
12.72812	-17.35812	11.27051
12.73231	-17.35812	11.27051
12.73650	-17.35812	11.27051
12.74074	-17.35812	11.27051
12.74501	-17.35812	11.27051
12.74922	-17.35812	11.27051
12.75341	-17.33615	11.27051
12.75760	-17.35812	11.27051
12.76190	-17.35812	11.27051
12.76609	-17.35812	11.27051
12.77028	-17.35812	11.27051
12.77457	-17.35812	11.27051
12.77878	-17.33615	11.27051
12.78297	-17.35812	11.27051
12.78715	-17.35812	11.27051
12.79135	-17.33615	11.27051
12.79553	-17.33615	11.27051
12.79972	-17.33615	11.27051
12.80411	-17.33615	11.27051
12.80833	-17.33615	11.27051
12.81253	-17.33615	11.27051
12.81672	-17.31418	11.27051
12.82091	-17.33615	11.27051
12.82510	-17.31418	11.27051
12.82929	-17.31418	11.27051
12.83359	-17.31418	11.27051
12.83784	-17.31418	11.27051
12.84204	-17.31418	11.27051
12.84623	-17.31418	11.27051
12.85042	-17.29220	11.27051
12.85463	-17.31418	11.27051
12.85890	-17.29220	11.27051
12.86328	-17.29220	11.27051
12.86754	-17.29220	11.27051
12.87176	-17.29220	11.27051
12.87595	-17.27023	11.27051
12.88014	-17.29220	11.27051
12.88433	-17.27023	11.27051
12.88852	-17.27023	11.27051
12.89271	-17.27023	11.27051
12.89700	-17.24826	11.27051
12.90122	-17.24826	11.27051
12.90541	-17.24826	11.27051
12.90959	-17.24826	11.27051
12.91378	-17.24826	11.27051
12.91796	-17.22629	11.27051
12.92214	-17.22629	11.27051
12.92655	-17.22629	11.27051
12.93078	-17.22629	11.27051
12.93497	-17.20431	11.27051
12.93916	-17.20431	11.27051
12.94335	-17.20431	11.27051
12.94754	-17.20431	11.27051
12.95173	-17.20431	11.27051
12.95602	-17.20431	11.27051
12.96027	-17.18234	11.27051
12.96458	-17.18234	11.27051
12.96877	-17.18234	11.27051
12.97297	-17.16037	11.27051
12.97716	-17.16037	11.27051
12.98135	-17.16037	11.27051
12.98558	-17.16037	11.27051
12.98985	-17.13839	11.27051
12.99511	-17.13839	11.27051
12.99934	-17.13839	11.27051
13.00353	-17.11642	11.27051
13.00772	-17.11642	11.27051
13.01191	-17.11642	11.27051
13.01616	-17.11642	11.27051
13.02045	-17.09445	11.27051
13.02464	-17.09445	11.27051
13.02883	-17.07248	11.27051
13.03301	-17.07248	11.27051
13.03720	-17.07248	11.27051
13.04138	-17.07248	11.27051
13.04556	-17.07248	11.27051
13.04987	-17.05050	11.27051
13.05407	-17.05050	11.27051
13.05825	-17.05050	11.27051
13.06245	-17.05050	11.27051
13.06674	-17.02853	11.27051
13.07093	-17.02853	11.27051
13.07511	-17.00656	11.27051
13.07967	-17.00656	11.27051
13.08394	-17.00656	11.27051
13.08817	-17.00656	11.27051
13.09238	-16.98459	11.27051
13.09659	-16.98459	11.27051
13.10078	-16.96261	11.27051
13.10497	-16.98459	11.27051
13.10923	-16.96261	11.27051
13.11351	-16.96261	11.27051
13.11775	-16.94064	11.27051
13.12196	-16.96261	11.27051
13.12616	-16.94064	11.27051
13.13035	-16.94064	11.27051
13.13454	-16.91867	11.27051
13.13880	-16.91867	11.27051
13.14311	-16.91867	11.27051
13.14733	-16.91867	11.27051
13.15153	-16.89670	11.27051
13.15572	-16.89670	11.27051
13.15991	-16.87472	11.27051
13.16411	-16.87472	11.27051
13.16841	-16.87472	11.27051
13.17275	-16.87472	11.27051
13.17697	-16.85275	11.27051
13.18116	-16.85275	11.27051
13.18536	-16.83078	11.27051
13.18956	-16.83078	11.27051
13.19375	-16.83078	11.27051
13.19794	-16.83078	11.27051
13.20252	-16.83078	11.27051
13.20676	-16.80881	11.27051
13.21096	-16.78683	11.27051
13.21515	-16.80881	11.27051
13.21934	-16.78683	11.27051
13.22353	-16.78683	11.27051
13.22771	-16.78683	11.27051
13.23197	-16.76486	11.27051
13.23625	-16.76486	11.27051
13.24045	-16.76486	11.27051
13.24464	-16.74289	11.27051
13.24882	-16.74289	11.27051
13.25301	-16.74289	11.27051
13.25719	-16.74289	11.27051
13.26143	-16.72091	11.27051
13.26572	-16.72091	11.27051
13.27003	-16.72091	11.27051
13.27422	-16.72091	11.27051
13.27840	-16.72091	11.27051
13.28260	-16.69894	11.27051
13.28678	-16.69894	11.27051
13.29097	-16.67697	11.27051
13.29527	-16.67697	11.27051
13.29947	-16.67697	11.27051
13.30366	-16.67697	11.27051
13.30785	-16.65500	11.27051
13.31204	-16.65500	11.27051
13.31623	-16.63302	11.27051
13.32041	-16.65500	11.27051
13.32481	-16.65500	11.27051
13.32904	-16.63302	11.27051
13.33324	-16.63302	11.27051
13.33742	-16.63302	11.27051
13.34161	-16.61105	11.27051
13.34579	-16.61105	11.27051
13.34998	-16.61105	11.27051
13.35424	-16.61105	11.27051
13.35852	-16.61105	11.27051
13.36272	-16.61105	11.27051
13.36691	-16.61105	11.27051
13.37120	-16.58908	11.27051
13.37538	-16.58908	11.27051
13.37957	-16.58908	11.27051
13.38381	-16.58908	11.27051
13.38813	-16.56711	11.27051
13.39234	-16.56711	11.27051
13.39653	-16.56711	11.27051
13.40072	-16.56711	11.27051
13.40491	-16.56711	11.27051
13.40910	-16.56711	11.27051
13.41328	-16.54513	11.27051
13.41758	-16.56711	11.27051
13.42182	-16.56711	11.27051
13.42602	-16.54513	11.27051
13.43021	-16.54513	11.27051
13.43440	-16.54513	11.27051
13.43860	-16.54513	11.27051
13.44278	-16.54513	11.27051
13.44718	-16.54513	11.27051
13.45143	-16.54513	11.27051
13.45562	-16.52316	11.27051
13.45981	-16.52316	11.27051
13.46399	-16.52316	11.27051
13.46818	-16.52316	11.27051
13.47246	-16.52316	11.27051
13.47672	-16.52316	11.27051
13.48099	-16.52316	11.27051
13.48519	-16.52316	11.27051
13.48938	-16.52316	11.27051
13.49356	-16.52316	11.27051
13.49776	-16.50119	11.27051
13.50194	-16.52316	11.27051
13.50618	-16.50119	11.27051
13.51047	-16.52316	11.27051
13.51466	-16.50119	11.27051
13.51885	-16.50119	11.27051
13.52303	-16.50119	11.27051
13.52721	-16.52316	11.27051
13.53140	-16.50119	11.27051
13.53558	-16.52316	11.27051
13.53988	-16.52316	11.27051
13.54408	-16.50119	11.27051
13.54827	-16.52316	11.27051
13.55245	-16.50119	11.27051
13.55663	-16.50119	11.27051
13.56082	-16.50119	11.27051
13.56500	-16.50119	11.27051
13.56944	-16.50119	11.27051
13.57376	-16.50119	11.27051
13.57795	-16.50119	11.27051
13.58213	-16.50119	11.27051
13.58631	-16.50119	11.27051
13.59050	-16.50119	11.27051
13.59464	-16.50119	11.27051
13.59889	-16.52316	11.27051
13.60317	-16.50119	11.27051
13.60736	-16.50119	11.27051
13.61154	-16.50119	11.27051
13.61573	-16.50119	11.27051
13.61991	-16.50119	11.27051
13.62410	-16.52316	11.27051
13.62833	-16.50119	11.27051
13.63262	-16.52316	11.27051
13.63682	-16.50119	11.27051
13.64101	-16.52316	11.27051
13.64519	-16.52316	11.27051
13.64937	-16.52316	11.27051
13.65356	-16.52316	11.27051
13.65774	-16.52316	11.27051
13.66204	-16.52316	11.27051
13.66624	-16.52316	11.27051
13.67043	-16.52316	11.27051
13.67472	-16.52316	11.27051
13.67891	-16.52316	11.27051
13.68309	-16.52316	11.27051
13.68728	-16.52316	11.27051
13.69171	-16.54513	11.27051
13.69592	-16.54513	11.27051
13.70011	-16.54513	11.27051
13.70429	-16.54513	11.27051
13.70848	-16.54513	11.27051
13.71266	-16.54513	11.27051
13.71685	-16.54513	11.27051
13.72110	-16.54513	11.27051
13.72536	-16.54513	11.27051
13.72956	-16.54513	11.27051
13.73374	-16.56711	11.27051
13.73793	-16.56711	11.27051
13.74211	-16.56711	11.27051
13.74629	-16.56711	11.27051
13.75054	-16.56711	11.27051
13.75482	-16.56711	11.27051
13.75902	-16.56711	11.27051
13.76320	-16.58908	11.27051
13.76739	-16.58908	11.27051
13.77157	-16.58908	11.27051
13.77586	-16.58908	11.27051
13.78004	-16.58908	11.27051
13.78434	-16.58908	11.27051
13.78866	-16.61105	11.27051
13.79296	-16.61105	11.27051
13.79716	-16.61105	11.27051
13.80136	-16.61105	11.27051
13.80555	-16.61105	11.27051
13.80974	-16.61105	11.27051
13.81419	-16.61105	11.27051
13.81842	-16.63302	11.27051
13.82262	-16.63302	11.27051
13.82680	-16.63302	11.27051
13.83099	-16.63302	11.27051
13.83518	-16.63302	11.27051
13.83936	-16.63302	11.27051
13.84363	-16.65500	11.27051
13.84791	-16.65500	11.27051
13.85213	-16.65500	11.27051
13.85634	-16.65500	11.27051
13.86055	-16.67697	11.27051
13.86475	-16.67697	11.27051
13.86896	-16.67697	11.27051
13.87485	-16.69894	11.27051
13.87931	-16.67697	11.27051
13.88355	-16.72091	11.27051
13.88779	-16.69894	11.27051
13.89202	-16.72091	11.27051
13.89625	-16.72091	11.27051
13.90047	-16.72091	11.27051
13.90532	-16.72091	11.27051
13.90964	-16.74289	11.27051
13.91386	-16.74289	11.27051
13.91807	-16.76486	11.27051
13.92228	-16.76486	11.27051
13.92649	-16.76486	11.27051
13.93065	-16.78683	11.27051
13.93492	-16.78683	11.27051
13.93921	-16.76486	11.27051
13.94341	-16.78683	11.27051
13.94759	-16.78683	11.27051
13.95178	-16.78683	11.27051
13.95597	-16.80881	11.27051
13.96015	-16.80881	11.27051
13.96434	-16.80881	11.27051
13.96863	-16.83078	11.27051
13.97284	-16.83078	11.27051
13.97703	-16.85275	11.27051
13.98132	-16.85275	11.27051
13.98550	-16.85275	11.27051
13.98969	-16.87472	11.27051
13.99387	-16.87472	11.27051
13.99830	-16.87472	11.27051
14.00254	-16.89670	11.27051
14.00673	-16.89670	11.27051
14.01093	-16.89670	11.27051
14.01512	-16.89670	11.27051
14.01931	-16.91867	11.27051
14.02350	-16.91867	11.27051
14.02780	-16.94064	11.27051
14.03206	-16.94064	11.27051
14.03626	-16.94064	11.27051
14.04045	-16.96261	11.27051
14.04464	-16.96261	11.27051
14.04883	-16.96261	11.27051
14.05302	-16.96261	11.27051
14.05725	-16.96261	11.27051
14.06154	-16.98459	11.27051
14.06575	-16.98459	11.27051
14.06995	-17.00656	11.27051
14.07414	-17.00656	11.27051
14.07833	-17.02853	11.27051
14.08264	-17.02853	11.27051
14.08683	-17.02853	11.27051
14.09114	-17.02853	11.27051
14.09534	-17.05050	11.27051
14.09953	-17.05050	11.27051
14.10372	-17.07248	11.27051
14.10790	-17.09445	11.27051
14.11208	-17.09445	11.27051
14.11627	-17.07248	11.27051
14.12068	-17.09445	11.27051
14.12490	-17.09445	11.27051
14.12909	-17.09445	11.27051
14.13332	-17.11642	11.27051
14.13752	-17.11642	11.27051
14.14172	-17.11642	11.27051
14.14591	-17.13839	11.27051
14.15020	-17.13839	11.27051
14.15447	-17.13839	11.27051
14.15866	-17.16037	11.27051
14.16286	-17.16037	11.27051
14.16705	-17.16037	11.27051
14.17124	-17.18234	11.27051
14.17544	-17.18234	11.27051
14.17968	-17.18234	11.27051
14.18408	-17.20431	11.27051
14.18828	-17.20431	11.27051
14.19248	-17.20431	11.27051
14.19667	-17.20431	11.27051
14.20087	-17.20431	11.27051
14.20506	-17.22629	11.27051
14.20925	-17.22629	11.27051
14.21356	-17.22629	11.27051
14.21777	-17.22629	11.27051
14.22197	-17.24826	11.27051
14.22616	-17.24826	11.27051
14.23034	-17.24826	11.27051
14.23454	-17.27023	11.27051
14.23873	-17.27023	11.27051
14.24315	-17.27023	11.27051
14.24736	-17.27023	11.27051
14.25156	-17.29220	11.27051
14.25575	-17.29220	11.27051
14.25994	-17.29220	11.27051
14.26413	-17.31418	11.27051
14.26832	-17.29220	11.27051
14.27261	-17.31418	11.27051
14.27691	-17.31418	11.27051
14.28111	-17.31418	11.27051
14.28541	-17.31418	11.27051
14.28960	-17.31418	11.27051
14.29379	-17.33615	11.27051
14.29798	-17.33615	11.27051
14.30223	-17.33615	11.27051
14.30653	-17.33615	11.27051
14.31074	-17.35812	11.27051
14.31493	-17.33615	11.27051
14.31912	-17.35812	11.27051
14.32331	-17.35812	11.27051
14.32751	-17.35812	11.27051
14.33170	-17.35812	11.27051
14.33600	-17.38009	11.27051
14.34021	-17.35812	11.27051
14.34440	-17.38009	11.27051
14.34859	-17.38009	11.27051
14.35279	-17.38009	11.27051
14.35697	-17.38009	11.27051
14.36116	-17.38009	11.27051
14.36557	-17.38009	11.27051
14.36979	-17.40207	11.27051
14.37398	-17.38009	11.27051
14.37817	-17.38009	11.27051
14.38236	-17.38009	11.27051
14.38668	-17.40207	11.27051
14.39087	-17.40207	11.27051
14.39517	-17.40207	11.27051
14.39943	-17.40207	11.27051
14.40364	-17.40207	11.27051
14.40783	-17.40207	11.27051
14.41202	-17.40207	11.27051
14.41621	-17.40207	11.27051
14.42040	-17.40207	11.27051
14.42466	-17.40207	11.27051
14.42893	-17.40207	11.27051
14.43315	-17.40207	11.27051
14.43734	-17.42404	11.27051
14.44153	-17.40207	11.27051
14.44572	-17.42404	11.27051
14.44991	-17.42404	11.27051
14.45410	-17.42404	11.27051
14.45840	-17.42404	11.27051
14.46262	-17.40207	11.27051
14.46681	-17.42404	11.27051
14.47100	-17.42404	11.27051
14.47519	-17.42404	11.27051
14.47938	-17.42404	11.27051
14.48356	-17.40207	11.27051
14.48810	-17.40207	11.27051
14.49231	-17.42404	11.27051
14.49650	-17.40207	11.27051
14.50069	-17.40207	11.27051
14.50488	-17.42404	11.27051
14.50907	-17.40207	11.27051
14.51325	-17.40207	11.27051
14.51752	-17.40207	11.27051
14.52176	-17.40207	11.27051
14.52596	-17.40207	11.27051
14.53015	-17.40207	11.27051
14.53434	-17.40207	11.27051
14.53853	-17.40207	11.27051
14.54272	-17.40207	11.27051
14.54696	-17.38009	11.27051
14.55123	-17.38009	11.27051
14.55543	-17.38009	11.27051
14.55961	-17.38009	11.27051
14.56380	-17.38009	11.27051
14.56798	-17.38009	11.27051
14.57217	-17.38009	11.27051
14.57635	-17.38009	11.27051
14.58064	-17.35812	11.27051
14.58485	-17.35812	11.27051
14.58916	-17.35812	11.27051
14.59335	-17.35812	11.27051
14.59753	-17.35812	11.27051
14.60172	-17.33615	11.27051
14.60591	-17.33615	11.27051
14.61033	-17.33615	11.27051
14.61457	-17.33615	11.27051
14.61876	-17.33615	11.27051
14.62295	-17.33615	11.27051
14.62713	-17.31418	11.27051
14.63132	-17.31418	11.27051
14.63551	-17.31418	11.27051
14.63977	-17.31418	11.27051
14.64403	-17.29220	11.27051
14.64823	-17.29220	11.27051
14.65242	-17.27023	11.27051
14.65661	-17.27023	11.27051
14.66079	-17.27023	11.27051
14.66497	-17.27023	11.27051
14.66922	-17.27023	11.27051
14.67348	-17.24826	11.27051
14.67769	-17.24826	11.27051
14.68188	-17.24826	11.27051
14.68606	-17.22629	11.27051
14.69035	-17.22629	11.27051
14.69455	-17.22629	11.27051
14.69873	-17.20431	11.27051
14.70302	-17.20431	11.27051
14.70723	-17.20431	11.27051
14.71141	-17.18234	11.27051
14.71560	-17.18234	11.27051
14.71979	-17.18234	11.27051
14.72397	-17.18234	11.27051
14.72815	-17.16037	11.27051
14.73255	-17.16037	11.27051
14.73677	-17.16037	11.27051
14.74096	-17.13839	11.27051
14.74515	-17.13839	11.27051
14.74935	-17.13839	11.27051
14.75355	-17.11642	11.27051
14.75774	-17.11642	11.27051
14.76203	-17.09445	11.27051
14.76629	-17.09445	11.27051
14.77049	-17.09445	11.27051
14.77464	-17.09445	11.27051
14.77883	-17.07248	11.27051
14.78302	-17.07248	11.27051
14.78720	-17.07248	11.27051
14.79158	-17.05050	11.27051
14.79584	-17.02853	11.27051
14.80004	-17.02853	11.27051
14.80423	-17.02853	11.27051
14.80843	-17.02853	11.27051
14.81261	-17.00656	11.27051
14.81680	-17.00656	11.27051
14.82098	-17.00656	11.27051
14.82527	-17.00656	11.27051
14.82948	-16.98459	11.27051
14.83368	-16.98459	11.27051
14.83786	-16.96261	11.27051
14.84205	-16.96261	11.27051
14.84624	-16.94064	11.27051
14.85042	-16.94064	11.27051
14.85485	-16.94064	11.27051
14.85907	-16.91867	11.27051
14.86327	-16.91867	11.27051
14.86747	-16.91867	11.27051
14.87166	-16.89670	11.27051
14.87586	-16.89670	11.27051
14.88005	-16.89670	11.27051
14.88434	-16.89670	11.27051
14.88860	-16.87472	11.27051
14.89292	-16.87472	11.27051
14.89711	-16.87472	11.27051
14.90130	-16.85275	11.27051
14.90550	-16.85275	11.27051
14.90972	-16.85275	11.27051
14.91465	-16.85275	11.27051
14.91898	-16.83078	11.27051
14.92321	-16.83078	11.27051
14.92742	-16.80881	11.27051
14.93162	-16.80881	11.27051
14.93583	-16.80881	11.27051
14.94004	-16.80881	11.27051
14.94454	-16.78683	11.27051
14.94889	-16.78683	11.27051
14.95314	-16.78683	11.27051
14.95735	-16.78683	11.27051
14.96156	-16.78683	11.27051
14.96576	-16.76486	11.27051
14.96997	-16.76486	11.27051
14.97417	-16.76486	11.27051
14.97876	-16.74289	11.27051
14.98300	-16.74289	11.27051
14.98720	-16.74289	11.27051
14.99139	-16.72091	11.27051
14.99569	-16.72091	11.27051
14.99988	-16.72091	11.27051
15.00448	-16.72091	1.54348
15.00854	-16.72091	1.54348
15.01260	-16.69894	1.54348
15.01667	-16.69894	1.54348
15.02073	-16.69894	1.54348
15.02479	-16.69894	1.54348
15.02885	-16.69894	1.54348
15.03290	-16.67697	1.54348
15.03696	-16.67697	1.54348
15.04102	-16.67697	1.54348
15.04508	-16.67697	1.54348
15.04913	-16.67697	1.54348
15.05319	-16.65500	1.54348
15.05725	-16.65500	1.54348
15.06130	-16.65500	1.54348
15.06536	-16.65500	1.54348
15.06942	-16.63302	1.54348
15.07348	-16.63302	1.54348
15.07754	-16.61105	1.54348
15.08159	-16.61105	1.54348
15.08565	-16.61105	1.54348
15.08971	-16.58908	1.54348
15.09376	-16.58908	1.54348
15.09782	-16.58908	1.54348
15.10188	-16.58908	1.54348
15.10615	-16.56711	1.54348
15.11021	-16.54513	1.54348
15.11426	-16.54513	1.54348
15.11832	-16.52316	1.54348
15.12238	-16.50119	1.54348
15.12644	-16.50119	1.54348
15.13050	-16.50119	1.54348
15.13454	-16.47922	1.54348
15.13860	-16.45724	1.54348
15.14266	-16.43527	1.54348
15.14672	-16.43527	1.54348
15.15079	-16.41330	1.54348
15.15484	-16.39132	1.54348
15.15890	-16.36935	1.54348
15.16296	-16.34738	1.54348
15.16702	-16.32541	1.54348
15.17107	-16.32541	1.54348
15.17513	-16.30343	1.54348
15.17919	-16.28146	1.54348
15.18325	-16.25949	1.54348
15.18730	-16.21554	1.54348
15.19136	-16.21554	1.54348
15.19542	-16.19357	1.54348
15.19947	-16.17160	1.54348
15.20353	-16.12765	1.54348
15.20782	-16.10568	1.54348
15.21188	-16.06173	1.54348
15.21594	-16.06173	1.54348
15.22000	-16.03976	1.54348
15.22406	-15.99582	1.54348
15.22811	-15.97384	1.54348
15.23217	-15.92990	1.54348
15.23631	-15.92990	1.54348
15.24037	-15.90793	1.54348
15.24443	-15.84201	1.54348
15.24850	-15.79806	1.54348
15.25255	-15.77609	1.54348
15.25661	-15.73214	1.54348
15.26067	-15.73214	1.54348
15.26473	-15.68820	1.54348
15.26878	-15.64425	1.54348
15.27284	-15.57834	1.54348
15.27691	-15.57834	1.54348
15.28096	-15.53439	1.54348
15.28502	-15.49045	1.54348
15.28908	-15.44650	1.54348
15.29314	-15.40256	1.54348
15.29719	-15.35861	1.54348
15.30125	-15.35861	1.54348
15.30531	-15.29269	1.54348
15.30959	-15.24875	1.54348
15.31365	-15.18283	1.54348
15.31771	-15.13888	1.54348
15.32177	-15.13888	1.54348
15.32583	-15.07297	1.54348
15.32989	-15.00705	1.54348
15.33394	-14.94113	1.54348
15.33804	-14.89718	1.54348
15.34210	-14.89718	1.54348
15.34616	-14.83127	1.54348
15.35022	-14.76535	1.54348
15.35428	-14.69943	1.54348
15.35834	-14.63351	1.54348
15.36240	-14.63351	1.54348
15.36645	-14.56759	1.54348
15.37051	-14.50168	1.54348
15.37457	-14.43576	1.54348
15.37863	-14.34787	1.54348
15.38268	-14.30392	1.54348
15.38674	-14.30392	1.54348
15.39080	-14.21603	1.54348
15.39486	-14.15011	1.54348
15.39891	-14.06222	1.54348
15.40297	-14.06222	1.54348
15.40703	-13.99631	1.54348
15.41132	-13.93039	1.54348
15.41538	-13.86447	1.54348
15.41944	-13.77658	1.54348
15.42350	-13.71066	1.54348
15.42756	-13.62277	1.54348
15.43162	-13.62277	1.54348
15.43567	-13.55685	1.54348
15.43974	-13.46896	1.54348
15.44380	-13.38107	1.54348
15.44798	-13.29318	1.54348
15.45204	-13.29318	1.54348
15.45610	-13.20529	1.54348
15.46016	-13.13937	1.54348
15.46421	-13.05148	1.54348
15.46827	-12.98556	1.54348
15.47233	-12.98556	1.54348
15.47639	-12.87570	1.54348
15.48045	-12.78781	1.54348
15.48450	-12.69992	1.54348
15.48856	-12.61203	1.54348
15.49262	-12.61203	1.54348
15.49668	-12.52414	1.54348
15.50073	-12.43625	1.54348
15.50479	-12.34836	1.54348
15.50885	-12.26047	1.54348
15.51313	-12.17257	1.54348
15.51719	-12.17257	1.54348
15.52125	-12.06271	1.54348
15.52531	-11.97482	1.54348
15.52936	-11.88693	1.54348
15.53342	-11.77707	1.54348
15.53748	-11.77707	1.54348
15.54158	-11.68918	1.54348
15.54564	-11.57931	1.54348
15.54971	-11.49142	1.54348
15.55376	-11.40353	1.54348
15.55782	-11.29367	1.54348
15.56188	-11.29367	1.54348
15.56594	-11.20578	1.54348
15.57000	-11.11789	1.54348
15.57405	-10.98605	1.54348
15.57811	-10.89816	1.54348
15.58217	-10.89816	1.54348
15.58622	-10.78830	1.54348
15.59028	-10.70041	1.54348
15.59434	-10.59054	1.54348
15.59839	-10.59054	1.54348
15.60245	-10.48068	1.54348
15.60651	-10.37082	1.54348
15.61057	-10.26095	1.54348
15.61486	-10.17306	1.54348
15.61891	-10.17306	1.54348
15.62297	-10.06320	1.54348
15.62703	-9.93136	1.54348
15.63109	-9.84347	1.54348
15.63514	-9.73361	1.54348
15.63920	-9.64572	1.54348
15.64333	-9.64572	1.54348
15.64739	-9.53586	1.54348
15.65145	-9.42599	1.54348
15.65551	-9.31613	1.54348
15.65956	-9.20627	1.54348
15.66362	-9.20627	1.54348
15.66768	-9.09640	1.54348
15.67173	-8.98654	1.54348
15.67579	-8.87668	1.54348
15.67985	-8.76681	1.54348
15.68391	-8.65695	1.54348
15.68796	-8.65695	1.54348
15.69202	-8.54709	1.54348
15.69608	-8.43722	1.54348
15.70014	-8.32736	1.54348
15.70419	-8.21750	1.54348
15.70825	-8.21750	1.54348
15.71231	-8.08566	1.54348
15.71659	-7.99777	1.54348
15.72065	-7.88791	1.54348
15.72471	-7.77804	1.54348
15.72877	-7.66818	1.54348
15.73282	-7.66818	1.54348
15.73688	-7.55832	1.54348
15.74094	-7.44845	1.54348
15.74503	-7.33859	1.54348
15.74910	-7.20675	1.54348
15.75316	-7.20675	1.54348
15.75722	-7.09689	1.54348
15.76128	-6.98703	1.54348
15.76534	-6.87716	1.54348
15.76939	-6.78927	1.54348
15.77345	-6.78927	1.54348
15.77751	-6.65744	1.54348
15.78157	-6.54757	1.54348
15.78562	-6.43771	1.54348
15.78968	-6.32785	1.54348
15.79374	-6.32785	1.54348
15.79780	-6.21798	1.54348
15.80185	-6.08615	1.54348
15.80591	-5.97629	1.54348
15.80997	-5.88839	1.54348
15.81402	-5.77853	1.54348
15.81831	-5.77853	1.54348
15.82237	-5.66867	1.54348
15.82642	-5.55881	1.54348
15.83048	-5.44894	1.54348
15.83453	-5.31711	1.54348
15.83859	-5.31711	1.54348
15.84264	-5.20724	1.54348
15.84678	-5.09738	1.54348
15.85084	-4.98752	1.54348
15.85490	-4.87765	1.54348
15.85895	-4.87765	1.54348
15.86301	-4.74582	1.54348
15.86707	-4.63595	1.54348
15.87113	-4.54806	1.54348
15.87518	-4.41623	1.54348
15.87924	-4.41623	1.54348
15.88330	-4.30636	1.54348
15.88736	-4.19650	1.54348
15.89141	-4.08664	1.54348
15.89547	-3.99875	1.54348
15.89953	-3.99875	1.54348
15.90358	-3.88888	1.54348
15.90764	-3.77902	1.54348
15.91170	-3.66916	1.54348
15.91576	-3.55929	1.54348
15.92005	-3.55929	1.54348
15.92411	-3.44943	1.54348
15.92816	-3.33957	1.54348
15.93222	-3.22970	1.54348
15.93628	-3.14181	1.54348
15.94034	-3.05392	1.54348
15.94439	-3.05392	1.54348
15.94854	-2.94406	1.54348
15.95260	-2.83420	1.54348
15.95666	-2.72433	1.54348
15.96072	-2.61447	1.54348
15.96478	-2.61447	1.54348
15.96884	-2.52658	1.54348
15.97290	-2.41672	1.54348
15.97696	-2.30685	1.54348
15.98101	-2.21896	1.54348
15.98507	-2.10910	1.54348
15.98913	-2.10910	1.54348
15.99319	-2.02121	1.54348
15.99724	-1.93332	1.54348
16.00130	-1.82345	1.54348
16.00536	-1.71359	1.54348
16.00941	-1.71359	1.54348
16.01347	-1.62570	1.54348
16.01753	-1.51584	1.54348
16.02182	-1.44992	1.54348
16.02587	-1.34006	1.54348
16.02993	-1.25216	1.54348
16.03399	-1.25216	1.54348
16.03805	-1.16427	1.54348
16.04210	-1.05441	1.54348
16.04616	-0.96652	1.54348
16.05025	-0.87863	1.54348
16.05431	-0.87863	1.54348
16.05837	-0.79074	1.54348
16.06243	-0.70285	1.54348
16.06649	-0.61496	1.54348
16.07051	-0.52707	1.54348
16.07457	-0.52707	1.54348
16.07863	-0.43918	1.54348
16.08269	-0.35129	1.54348
16.08674	-0.26339	1.54348
16.09080	-0.17550	1.54348
16.09486	-0.17550	1.54348
16.09892	-0.08761	1.54348
16.10297	0.00028	1.54348
16.10703	0.08817	1.54348
16.11109	0.17606	1.54348
16.11514	0.17606	1.54348
16.11921	0.24198	1.54348
16.12349	0.32987	1.54348
16.12755	0.41776	1.54348
16.13161	0.48368	1.54348
16.13567	0.48368	1.54348
16.13972	0.57157	1.54348
16.14378	0.65946	1.54348
16.14784	0.72537	1.54348
16.15191	0.79129	1.54348
16.15597	0.85721	1.54348
16.16005	0.85721	1.54348
16.16411	0.94510	1.54348
16.16817	1.03299	1.54348
16.17223	1.09891	1.54348
16.17628	1.16483	1.54348
16.18034	1.16483	1.54348
16.18440	1.23075	1.54348
16.18846	1.31864	1.54348
16.19251	1.36258	1.54348
16.19657	1.42850	1.54348
16.20063	1.42850	1.54348
16.20468	1.51639	1.54348
16.20874	1.58231	1.54348
16.21280	1.64823	1.54348
16.21686	1.71414	1.54348
16.22092	1.71414	1.54348
16.22520	1.78006	1.54348
16.22926	1.84598	1.54348
16.23332	1.91190	1.54348
16.23738	1.95584	1.54348
16.24143	2.02176	1.54348
16.24549	2.02176	1.54348
16.24955	2.06571	1.54348
16.25366	2.15360	1.54348
16.25772	2.19754	1.54348
16.26178	2.26346	1.54348
16.26585	2.26346	1.54348
16.26990	2.30741	1.54348
16.27396	2.37332	1.54348
16.27803	2.41727	1.54348
16.28209	2.46121	1.54348
16.28614	2.52713	1.54348
16.29020	2.52713	1.54348
16.29426	2.57108	1.54348
16.29831	2.61502	1.54348
16.30237	2.68094	1.54348
16.30643	2.72489	1.54348
16.31049	2.72489	1.54348
16.31452	2.76883	1.54348
16.31858	2.81278	1.54348
16.32263	2.85672	1.54348
16.32692	2.90067	1.54348
16.33098	2.94461	1.54348
16.33503	2.94461	1.54348
16.33909	2.98856	1.54348
16.34315	3.03250	1.54348
16.34721	3.07645	1.54348
16.35126	3.12039	1.54348
16.35537	3.12039	1.54348
16.35943	3.16434	1.54348
16.36349	3.18631	1.54348
16.36755	3.23026	1.54348
16.37161	3.23026	1.54348
16.37567	3.25223	1.54348
16.37972	3.29618	1.54348
16.38378	3.34012	1.54348
16.38784	3.36209	1.54348
16.39189	3.36209	1.54348
16.39595	3.40604	1.54348
16.40001	3.42801	1.54348
16.40407	3.44998	1.54348
16.40812	3.47196	1.54348
16.41218	3.49393	1.54348
16.41624	3.49393	1.54348
16.42029	3.53787	1.54348
16.42435	3.55985	1.54348
16.42864	3.58182	1.54348
16.43270	3.62577	1.54348
16.43676	3.62577	1.54348
16.44081	3.62577	1.54348
16.44487	3.64774	1.54348
16.44893	3.66971	1.54348
16.45299	3.66971	1.54348
16.45714	3.69168	1.54348
16.46121	3.69168	1.54348
16.46527	3.71366	1.54348
16.46933	3.73563	1.54348
16.47339	3.75760	1.54348
16.47744	3.75760	1.54348
16.48150	3.75760	1.54348
16.48556	3.77957	1.54348
16.48962	3.80155	1.54348
16.49367	3.80155	1.54348
16.49773	3.80155	1.54348
16.50179	3.80155	1.54348
16.50585	3.80155	1.54348
16.50990	3.82352	1.54348
16.51396	3.82352	1.54348
16.51802	3.82352	1.54348
16.52207	3.82352	1.54348
16.52613	3.84549	1.54348
16.53042	3.84549	1.54348
16.53448	3.84549	1.54348
16.53851	3.84549	1.54348
16.54257	3.84549	1.54348
16.54663	3.84549	1.54348
16.55068	3.84549	1.54348
16.55474	3.84549	1.54348
16.55889	3.84549	1.54348
16.56295	3.84549	1.54348
16.56701	3.84549	1.54348
16.57107	3.82352	1.54348
16.57513	3.84549	1.54348
16.57919	3.82352	1.54348
16.58325	3.82352	1.54348
16.58730	3.80155	1.54348
16.59136	3.80155	1.54348
16.59542	3.80155	1.54348
16.59947	3.77957	1.54348
16.60353	3.77957	1.54348
16.60759	3.77957	1.54348
16.61165	3.77957	1.54348
16.61570	3.75760	1.54348
16.61976	3.73563	1.54348
16.62383	3.71366	1.54348
16.62788	3.71366	1.54348
16.63217	3.71366	1.54348
16.63623	3.69168	1.54348
16.64028	3.66971	1.54348
16.64434	3.64774	1.54348
16.64840	3.62577	1.54348
16.65246	3.62577	1.54348
16.65651	3.60379	1.54348
16.66063	3.58182	1.54348
16.66470	3.55985	1.54348
16.66875	3.55985	1.54348
16.67281	3.51590	1.54348
16.67687	3.51590	1.54348
16.68093	3.49393	1.54348
16.68498	3.47196	1.54348
16.68904	3.44998	1.54348
16.69310	3.44998	1.54348
16.69715	3.40604	1.54348
16.70121	3.40604	1.54348
16.70527	3.36209	1.54348
16.70933	3.34012	1.54348
16.71338	3.31815	1.54348
16.71744	3.31815	1.54348
16.72150	3.27420	1.54348
16.72556	3.25223	1.54348
16.72962	3.20828	1.54348
16.73391	3.18631	1.54348
16.73796	3.18631	1.54348
16.74202	3.14237	1.54348
16.74608	3.09842	1.54348
16.75014	3.07645	1.54348
16.75419	3.05448	1.54348
16.75825	3.01053	1.54348
16.76234	3.01053	1.54348
16.76640	2.96659	1.54348
16.77046	2.92264	1.54348
16.77451	2.90067	1.54348
16.77857	2.83475	1.54348
16.78263	2.83475	1.54348
16.78669	2.81278	1.54348
16.79074	2.76883	1.54348
16.79480	2.72489	1.54348
16.79886	2.68094	1.54348
16.80292	2.63700	1.54348
16.80697	2.63700	1.54348
16.81103	2.61502	1.54348
16.81509	2.54911	1.54348
16.81914	2.50516	1.54348
16.82320	2.50516	1.54348
16.82726	2.46121	1.54348
16.83132	2.41727	1.54348
16.83560	2.37332	1.54348
16.83966	2.32938	1.54348
16.84372	2.26346	1.54348
16.84778	2.26346	1.54348
16.85184	2.24149	1.54348
16.85589	2.17557	1.54348
16.85995	2.13162	1.54348
16.86406	2.06571	1.54348
16.86812	2.06571	1.54348
16.87218	2.02176	1.54348
16.87623	1.95584	1.54348
16.88029	1.91190	1.54348
16.88435	1.84598	1.54348
16.88841	1.84598	1.54348
16.89247	1.80203	1.54348
16.89653	1.73612	1.54348
16.90058	1.69217	1.54348
16.90464	1.62625	1.54348
16.90870	1.62625	1.54348
16.91275	1.56034	1.54348
16.91681	1.51639	1.54348
16.92087	1.47244	1.54348
16.92493	1.40653	1.54348
16.92898	1.34061	1.54348
16.93304	1.34061	1.54348
16.93733	1.29666	1.54348
16.94139	1.23075	1.54348
16.94544	1.16483	1.54348
16.94950	1.09891	1.54348
16.95356	1.09891	1.54348
16.95762	1.05496	1.54348
16.96167	0.98905	1.54348
16.96577	0.92313	1.54348
16.96983	0.87918	1.54348
16.97389	0.81327	1.54348
16.97795	0.81327	1.54348
16.98201	0.74735	1.54348
16.98607	0.65946	1.54348
16.99013	0.61551	1.54348
16.99418	0.61551	1.54348
16.99825	0.54959	1.54348
17.00231	0.48368	1.54348
17.00637	0.41776	1.54348
17.01043	0.35184	1.54348
17.01448	0.28592	1.54348
17.01851	0.28592	1.54348
17.02257	0.22000	1.54348
17.02663	0.15409	1.54348
17.03068	0.08817	1.54348
17.03474	0.02225	1.54348
17.03902	0.02225	1.54348
17.04308	-0.04367	1.54348
17.04714	-0.10959	1.54348
17.05120	-0.17550	1.54348
17.05525	-0.24142	1.54348
17.05931	-0.30734	1.54348
17.06337	-0.30734	1.54348
17.06746	-0.37326	1.54348
17.07152	-0.43918	1.54348
17.07558	-0.50509	1.54348
17.07963	-0.59298	1.54348
17.08370	-0.59298	1.54348
17.08776	-0.65890	1.54348
17.09181	-0.70285	1.54348
17.09587	-0.76877	1.54348
17.09993	-0.85666	1.54348
17.10399	-0.92257	1.54348
17.10804	-0.92257	1.54348
17.11210	-0.98849	1.54348
17.11616	-1.05441	1.54348
17.12022	-1.12033	1.54348
17.12427	-1.12033	1.54348
17.12834	-1.18625	1.54348
17.13240	-1.27414	1.54348
17.13646	-1.34006	1.54348
17.14074	-1.40597	1.54348
17.14480	-1.40597	1.54348
17.14886	-1.47189	1.54348
17.15292	-1.55978	1.54348
17.15697	-1.62570	1.54348
17.16103	-1.69162	1.54348
17.16509	-1.69162	1.54348
17.16924	-1.75754	1.54348
17.17330	-1.84543	1.54348
17.17736	-1.88937	1.54348
17.18142	-1.95529	1.54348
17.18548	-2.02121	1.54348
17.18954	-2.02121	1.54348
17.19359	-2.08713	1.54348
17.19765	-2.17502	1.54348
17.20171	-2.24093	1.54348
17.20577	-2.30685	1.54348
17.20982	-2.30685	1.54348
17.21388	-2.37277	1.54348
17.21794	-2.43869	1.54348
17.22200	-2.50461	1.54348
17.22605	-2.57052	1.54348
17.23011	-2.63644	1.54348
17.23417	-2.63644	1.54348
17.23823	-2.70236	1.54348
17.24253	-2.79025	1.54348
17.24659	-2.85617	1.54348
17.25065	-2.92209	1.54348
17.25471	-2.92209	1.54348
17.25876	-2.98800	1.54348
17.26282	-3.03195	1.54348
17.26688	-3.11984	1.54348
17.27129	-3.18576	1.54348
17.27535	-3.25168	1.54348
17.27941	-3.25168	1.54348
17.28347	-3.31759	1.54348
17.28753	-3.38351	1.54348
17.29159	-3.44943	1.54348
17.29565	-3.51535	1.54348
17.29971	-3.55929	1.54348
17.30376	-3.55929	1.54348
17.30782	-3.64718	1.54348
17.31188	-3.71310	1.54348
17.31594	-3.77902	1.54348
17.32000	-3.77902	1.54348
17.32405	-3.84494	1.54348
17.32811	-3.91086	1.54348
17.33217	-3.97677	1.54348
17.33623	-4.04269	1.54348
17.34028	-4.04269	1.54348
17.34456	-4.10861	1.54348
17.34862	-4.15256	1.54348
17.35268	-4.21847	1.54348
17.35673	-4.28439	1.54348
17.36079	-4.35031	1.54348
17.36485	-4.35031	1.54348
17.36890	-4.41623	1.54348
17.37300	-4.48214	1.54348
17.37706	-4.52609	1.54348
17.38112	-4.59201	1.54348
17.38518	-4.59201	1.54348
17.38924	-4.65793	1.54348
17.39330	-4.72384	1.54348
17.39735	-4.78976	1.54348
17.40141	-4.85568	1.54348
17.40547	-4.85568	1.54348
17.40952	-4.89963	1.54348
17.41358	-4.96554	1.54348
17.41764	-5.03146	1.54348
17.42170	-5.07541	1.54348
17.42575	-5.07541	1.54348
17.42981	-5.14132	1.54348
17.43387	-5.18527	1.54348
17.43792	-5.25119	1.54348
17.44198	-5.29513	1.54348
17.44627	-5.36105	1.54348
17.45033	-5.36105	1.54348
17.45439	-5.42697	1.54348
17.45845	-5.47091	1.54348
17.46251	-5.53683	1.54348
17.46657	-5.58078	1.54348
17.47062	-5.62472	1.54348
17.47482	-5.62472	1.54348
17.47888	-5.69064	1.54348
17.48294	-5.75656	1.54348
17.48700	-5.80050	1.54348
17.49106	-5.84445	1.54348
17.49512	-5.84445	1.54348
17.49918	-5.91037	1.54348
17.50323	-5.95431	1.54348
17.50729	-6.02023	1.54348
17.51135	-6.02023	1.54348
17.51541	-6.06418	1.54348
17.51946	-6.08615	1.54348
17.52352	-6.15207	1.54348
17.52758	-6.19601	1.54348
17.53164	-6.23996	1.54348
17.53570	-6.23996	1.54348
17.53976	-6.30588	1.54348
17.54382	-6.34982	1.54348
17.54811	-6.39377	1.54348
17.55216	-6.43771	1.54348
17.55622	-6.48166	1.54348
17.56028	-6.48166	1.54348
17.56434	-6.52560	1.54348
17.56839	-6.56955	1.54348
17.57245	-6.61349	1.54348
17.57660	-6.65744	1.54348
17.58067	-6.65744	1.54348
17.58473	-6.70138	1.54348
17.58879	-6.74533	1.54348
17.59284	-6.78927	1.54348
17.59690	-6.83322	1.54348
17.60096	-6.85519	1.54348
17.60502	-6.85519	1.54348
17.60907	-6.89914	1.54348
17.61313	-6.94308	1.54348
17.61719	-6.96506	1.54348
17.62124	-7.00900	1.54348
17.62530	-7.00900	1.54348
17.62936	-7.05295	1.54348
17.63342	-7.09689	1.54348
17.63747	-7.11886	1.54348
17.64153	-7.11886	1.54348
17.64559	-7.16281	1.54348
17.64988	-7.18478	1.54348
17.65394	-7.22873	1.54348
17.65799	-7.27267	1.54348
17.66205	-7.29464	1.54348
17.66611	-7.29464	1.54348
17.67017	-7.31662	1.54348
17.67422	-7.36056	1.54348
17.67835	-7.38254	1.54348
17.68242	-7.38254	1.54348
17.68648	-7.42648	1.54348
17.69051	-7.44845	1.54348
17.69457	-7.47043	1.54348
17.69863	-7.49240	1.54348
17.70269	-7.53634	1.54348
17.70674	-7.53634	1.54348
17.71080	-7.55832	1.54348
17.71486	-7.58029	1.54348
17.71892	-7.60226	1.54348
17.72297	-7.62423	1.54348
17.72703	-7.62423	1.54348
17.73109	-7.62423	1.54348
17.73514	-7.66818	1.54348
17.73920	-7.69015	1.54348
17.74326	-7.71213	1.54348
17.74732	-7.73410	1.54348
17.75161	-7.73410	1.54348
17.75567	-7.73410	1.54348
17.75973	-7.75607	1.54348
17.76379	-7.77804	1.54348
17.76785	-7.80002	1.54348
17.77190	-7.80002	1.54348
17.77596	-7.80002	1.54348
17.78012	-7.82199	1.54348
17.78418	-7.82199	1.54348
17.78824	-7.82199	1.54348
17.79230	-7.86593	1.54348
17.79636	-7.86593	1.54348
17.80042	-7.86593	1.54348
17.80447	-7.88791	1.54348
17.80853	-7.88791	1.54348
17.81259	-7.88791	1.54348
17.81665	-7.88791	1.54348
17.82070	-7.88791	1.54348
17.82476	-7.90988	1.54348
17.82882	-7.90988	1.54348
17.83287	-7.90988	1.54348
17.83693	-7.90988	1.54348
17.84099	-7.93185	1.54348
17.84505	-7.93185	1.54348
17.84910	-7.93185	1.54348
17.85339	-7.93185	1.54348
17.85745	-7.93185	1.54348
17.86151	-7.93185	1.54348
17.86556	-7.93185	1.54348
17.86962	-7.93185	1.54348
17.87368	-7.93185	1.54348
17.87774	-7.93185	1.54348
17.88184	-7.93185	1.54348
17.88590	-7.93185	1.54348
17.88996	-7.93185	1.54348
17.89401	-7.93185	1.54348
17.89808	-7.93185	1.54348
17.90214	-7.93185	1.54348
17.90620	-7.93185	1.54348
17.91025	-7.90988	1.54348
17.91431	-7.90988	1.54348
17.91837	-7.90988	1.54348
17.92243	-7.90988	1.54348
17.92648	-7.88791	1.54348
17.93051	-7.88791	1.54348
17.93457	-7.88791	1.54348
17.93863	-7.86593	1.54348
17.94268	-7.86593	1.54348
17.94674	-7.86593	1.54348
17.95080	-7.84396	1.54348
17.95508	-7.84396	1.54348
17.95914	-7.82199	1.54348
17.96320	-7.80002	1.54348
17.96726	-7.80002	1.54348
17.97131	-7.80002	1.54348
17.97537	-7.77804	1.54348
17.97943	-7.75607	1.54348
17.98359	-7.75607	1.54348
17.98765	-7.75607	1.54348
17.99171	-7.73410	1.54348
17.99577	-7.71213	1.54348
17.99983	-7.71213	1.54348
18.00389	-7.69015	1.54348
18.00795	-7.69015	1.54348
18.01201	-7.66818	1.54348
18.01607	-7.64621	1.54348
18.02012	-7.62423	1.54348
18.02418	-7.60226	1.54348
18.02824	-7.58029	1.54348
18.03229	-7.58029	1.54348
18.03635	-7.55832	1.54348
18.04041	-7.53634	1.54348
18.04447	-7.53634	1.54348
18.04852	-7.49240	1.54348
18.05258	-7.49240	1.54348
18.05687	-7.47043	1.54348
18.06093	-7.44845	1.54348
18.06498	-7.42648	1.54348
18.06904	-7.40451	1.54348
18.07310	-7.36056	1.54348
18.07715	-7.36056	1.54348
18.08121	-7.33859	1.54348
18.08533	-7.31662	1.54348
18.08939	-7.27267	1.54348
18.09345	-7.25070	1.54348
18.09752	-7.25070	1.54348
18.10157	-7.20675	1.54348
18.10563	-7.18478	1.54348
18.10969	-7.16281	1.54348
18.11375	-7.14084	1.54348
18.11780	-7.09689	1.54348
18.12186	-7.09689	1.54348
18.12592	-7.07492	1.54348
18.12998	-7.05295	1.54348
18.13403	-7.00900	1.54348
18.13809	-7.00900	1.54348
18.14215	-6.98703	1.54348
18.14621	-6.94308	1.54348
18.15026	-6.89914	1.54348
18.15432	-6.87716	1.54348
18.15861	-6.87716	1.54348
18.16267	-6.83322	1.54348
18.16673	-6.81125	1.54348
18.17079	-6.76730	1.54348
18.17484	-6.74533	1.54348
18.17890	-6.74533	1.54348
18.18296	-6.70138	1.54348
18.18709	-6.65744	1.54348
18.19116	-6.63547	1.54348
18.19521	-6.59152	1.54348
18.19928	-6.54757	1.54348
18.20334	-6.54757	1.54348
18.20740	-6.52560	1.54348
18.21145	-6.48166	1.54348
18.21551	-6.43771	1.54348
18.21957	-6.41574	1.54348
18.22363	-6.41574	1.54348
18.22768	-6.37179	1.54348
18.23174	-6.32785	1.54348
18.23580	-6.28390	1.54348
18.23985	-6.23996	1.54348
18.24391	-6.21798	1.54348
18.24797	-6.21798	1.54348
18.25203	-6.19601	1.54348
18.25608	-6.13009	1.54348
18.26037	-6.08615	1.54348
18.26442	-6.04220	1.54348
18.26848	-6.04220	1.54348
18.27254	-5.99826	1.54348
18.27660	-5.95431	1.54348
18.28066	-5.93234	1.54348
18.28472	-5.88839	1.54348
18.28885	-5.82248	1.54348
18.29291	-5.82248	1.54348
18.29698	-5.80050	1.54348
18.30104	-5.75656	1.54348
18.30510	-5.71261	1.54348
18.30915	-5.71261	1.54348
18.31321	-5.66867	1.54348
18.31727	-5.62472	1.54348
18.32132	-5.58078	1.54348
18.32538	-5.53683	1.54348
18.32944	-5.49289	1.54348
18.33350	-5.49289	1.54348
18.33755	-5.47091	1.54348
18.34161	-5.40500	1.54348
18.34567	-5.36105	1.54348
18.34972	-5.33908	1.54348
18.35378	-5.33908	1.54348
18.35784	-5.27316	1.54348
18.36213	-5.22922	1.54348
18.36619	-5.18527	1.54348
18.37024	-5.14132	1.54348
18.37430	-5.09738	1.54348
18.37836	-5.09738	1.54348
18.38241	-5.05343	1.54348
18.38647	-5.00949	1.54348
18.39057	-4.96554	1.54348
18.39465	-4.92160	1.54348
18.39871	-4.92160	1.54348
18.40276	-4.87765	1.54348
18.40682	-4.83371	1.54348
18.41088	-4.76779	1.54348
18.41494	-4.72384	1.54348
18.41899	-4.72384	1.54348
18.42305	-4.67990	1.54348
18.42711	-4.63595	1.54348
18.43117	-4.59201	1.54348
18.43522	-4.54806	1.54348
18.43928	-4.54806	1.54348
18.44334	-4.50412	1.54348
18.44740	-4.46017	1.54348
18.45145	-4.39425	1.54348
18.45551	-4.37228	1.54348
18.45957	-4.37228	1.54348
18.46387	-4.30636	1.54348
18.46793	-4.28439	1.54348
18.47199	-4.21847	1.54348
18.47604	-4.17453	1.54348
18.48010	-4.17453	1.54348
18.48416	-4.13058	1.54348
18.48822	-4.08664	1.54348
18.49228	-4.04269	1.54348
18.49634	-3.99875	1.54348
18.50043	-3.95480	1.54348
18.50449	-3.95480	1.54348
18.50854	-3.91086	1.54348
18.51260	-3.86691	1.54348
18.51666	-3.82297	1.54348
18.52072	-3.77902	1.54348
18.52477	-3.77902	1.54348
18.52883	-3.73507	1.54348
18.53289	-3.69113	1.54348
18.53694	-3.64718	1.54348
18.54100	-3.60324	1.54348
18.54506	-3.55929	1.54348
18.54912	-3.55929	1.54348
18.55317	-3.51535	1.54348
18.55723	-3.47140	1.54348
18.56129	-3.42746	1.54348
18.56558	-3.38351	1.54348
18.56964	-3.38351	1.54348
18.57370	-3.33957	1.54348
18.57776	-3.29562	1.54348
18.58181	-3.25168	1.54348
18.58587	-3.22970	1.54348
18.58993	-3.16379	1.54348
18.59400	-3.16379	1.54348
18.59806	-3.14181	1.54348
18.60212	-3.09787	1.54348
18.60618	-3.05392	1.54348
18.61023	-3.05392	1.54348
18.61429	-3.00998	1.54348
18.61835	-2.96603	1.54348
18.62241	-2.92209	1.54348
18.62646	-2.87814	1.54348
18.63051	-2.85617	1.54348
18.63457	-2.85617	1.54348
18.63863	-2.81222	1.54348
18.64268	-2.76828	1.54348
18.64674	-2.72433	1.54348
18.65080	-2.70236	1.54348
18.65486	-2.70236	1.54348
18.65891	-2.65841	1.54348
18.66297	-2.61447	1.54348
18.66727	-2.57052	1.54348
18.67133	-2.52658	1.54348
18.67539	-2.52658	1.54348
18.67945	-2.48263	1.54348
18.68351	-2.46066	1.54348
18.68756	-2.41672	1.54348
18.69162	-2.37277	1.54348
18.69568	-2.37277	1.54348
18.69974	-2.35080	1.54348
18.70380	-2.30685	1.54348
18.70786	-2.28488	1.54348
18.71191	-2.24093	1.54348
18.71597	-2.21896	1.54348
18.72003	-2.21896	1.54348
18.72409	-2.17502	1.54348
18.72814	-2.13107	1.54348
18.73220	-2.10910	1.54348
18.73626	-2.10910	1.54348
18.74031	-2.06515	1.54348
18.74437	-2.02121	1.54348
18.74843	-1.99923	1.54348
18.75249	-1.97726	1.54348
18.75654	-1.93332	1.54348
18.76060	-1.93332	1.54348
18.76466	-1.91134	1.54348
18.76895	-1.86740	1.54348
18.77301	-1.84543	1.54348
18.77707	-1.80148	1.54348
18.78112	-1.80148	1.54348
18.78518	-1.77951	1.54348
18.78924	-1.75754	1.54348
18.79329	-1.71359	1.54348
18.79736	-1.69162	1.54348
18.80142	-1.64767	1.54348
18.80548	-1.64767	1.54348
18.80954	-1.62570	1.54348
18.81359	-1.60373	1.54348
18.81765	-1.58175	1.54348
18.82171	-1.53781	1.54348
18.82576	-1.53781	1.54348
18.82982	-1.51584	1.54348
18.83388	-1.49386	1.54348
18.83794	-1.47189	1.54348
18.84199	-1.44992	1.54348
18.84605	-1.40597	1.54348
18.85011	-1.40597	1.54348
18.85417	-1.38400	1.54348
18.85822	-1.36203	1.54348
18.86228	-1.31808	1.54348
18.86634	-1.29611	1.54348
18.87064	-1.29611	1.54348
18.87470	-1.29611	1.54348
18.87875	-1.25216	1.54348
18.88282	-1.25216	1.54348
18.88687	-1.20822	1.54348
18.89093	-1.18625	1.54348
18.89499	-1.18625	1.54348
18.89906	-1.18625	1.54348
18.90312	-1.14230	1.54348
18.90718	-1.12033	1.54348
18.91123	-1.12033	1.54348
18.91529	-1.12033	1.54348
18.91935	-1.09836	1.54348
18.92341	-1.07638	1.54348
18.92746	-1.05441	1.54348
18.93152	-1.05441	1.54348
18.93558	-1.03244	1.54348
18.93964	-1.01047	1.54348
18.94369	-0.98849	1.54348
18.94775	-0.96652	1.54348
18.95181	-0.96652	1.54348
18.95586	-0.94455	1.54348
18.95992	-0.94455	1.54348
18.96398	-0.92257	1.54348
18.96804	-0.90060	1.54348
18.97233	-0.90060	1.54348
18.97638	-0.90060	1.54348
18.98044	-0.87863	1.54348
18.98450	-0.85666	1.54348
18.98856	-0.83468	1.54348
18.99261	-0.83468	1.54348
18.99667	-0.83468	1.54348
19.00074	-0.81271	1.54348
19.00479	-0.79074	1.54348
19.00885	-0.79074	1.54348
19.01291	-0.79074	1.54348
19.01697	-0.76877	1.54348
19.02102	-0.76877	1.54348
19.02508	-0.74679	1.54348
19.02914	-0.74679	1.54348
19.03319	-0.72482	1.54348
19.03725	-0.72482	1.54348
19.04131	-0.72482	1.54348
19.04537	-0.70285	1.54348
19.04942	-0.70285	1.54348
19.05348	-0.70285	1.54348
19.05754	-0.68088	1.54348
19.06159	-0.68088	1.54348
19.06565	-0.68088	1.54348
19.06971	-0.65890	1.54348
19.07400	-0.65890	1.54348
19.07806	-0.65890	1.54348
19.08212	-0.65890	1.54348
19.08617	-0.65890	1.54348
19.09023	-0.63693	1.54348
19.09429	-0.63693	1.54348
19.09835	-0.63693	1.54348
19.10241	-0.63693	1.54348
19.10647	-0.63693	1.54348
19.11051	-0.63693	1.54348
19.11457	-0.63693	1.54348
19.11863	-0.61496	1.54348
19.12269	-0.61496	1.54348
19.12674	-0.61496	1.54348
19.13080	-0.61496	1.54348
19.13486	-0.61496	1.54348
19.13892	-0.61496	1.54348
19.14298	-0.61496	1.54348
19.14704	-0.61496	1.54348
19.15110	-0.61496	1.54348
19.15516	-0.61496	1.54348
19.15921	-0.59298	1.54348
19.16327	-0.59298	1.54348
19.16733	-0.59298	1.54348
19.17139	-0.59298	1.54348
19.17567	-0.61496	1.54348
19.17973	-0.61496	1.54348
19.18379	-0.61496	1.54348
19.18784	-0.61496	1.54348
19.19190	-0.61496	1.54348
19.19596	-0.61496	1.54348
19.20002	-0.61496	1.54348
19.20408	-0.61496	1.54348
19.20814	-0.61496	1.54348
19.21220	-0.63693	1.54348
19.21626	-0.63693	1.54348
19.22032	-0.63693	1.54348
19.22437	-0.63693	1.54348
19.22843	-0.63693	1.54348
19.23249	-0.63693	1.54348
19.23654	-0.65890	1.54348
19.24060	-0.65890	1.54348
19.24466	-0.65890	1.54348
19.24872	-0.68088	1.54348
19.25277	-0.68088	1.54348
19.25683	-0.68088	1.54348
19.26089	-0.68088	1.54348
19.26494	-0.70285	1.54348
19.26900	-0.72482	1.54348
19.27306	-0.72482	1.54348
19.27735	-0.72482	1.54348
19.28141	-0.72482	1.54348
19.28547	-0.74679	1.54348
19.28953	-0.74679	1.54348
19.29358	-0.76877	1.54348
19.29764	-0.76877	1.54348
19.30170	-0.76877	1.54348
19.30577	-0.76877	1.54348
19.30983	-0.79074	1.54348
19.31388	-0.79074	1.54348
19.31794	-0.81271	1.54348
19.32200	-0.81271	1.54348
19.32606	-0.83468	1.54348
19.33011	-0.83468	1.54348
19.33417	-0.85666	1.54348
19.33824	-0.85666	1.54348
19.34229	-0.85666	1.54348
19.34635	-0.87863	1.54348
19.35041	-0.87863	1.54348
19.35447	-0.90060	1.54348
19.35851	-0.90060	1.54348
19.36257	-0.90060	1.54348
19.36663	-0.92257	1.54348
19.37068	-0.94455	1.54348
19.37474	-0.94455	1.54348
19.37903	-0.96652	1.54348
19.38309	-0.96652	1.54348
19.38715	-0.98849	1.54348
19.39120	-1.01047	1.54348
19.39526	-1.01047	1.54348
19.39932	-1.03244	1.54348
19.40338	-1.05441	1.54348
19.40744	-1.05441	1.54348
19.41150	-1.05441	1.54348
19.41556	-1.07638	1.54348
19.41962	-1.09836	1.54348
19.42368	-1.12033	1.54348
19.42773	-1.12033	1.54348
19.43179	-1.12033	1.54348
19.43585	-1.14230	1.54348
19.43991	-1.18625	1.54348
19.44396	-1.18625	1.54348
19.44802	-1.18625	1.54348
19.45208	-1.18625	1.54348
19.45614	-1.20822	1.54348
19.46019	-1.23019	1.54348
19.46425	-1.23019	1.54348
19.46831	-1.25216	1.54348
19.47237	-1.25216	1.54348
19.47642	-1.27414	1.54348
19.48071	-1.27414	1.54348
19.48477	-1.31808	1.54348
19.48883	-1.31808	1.54348
19.49288	-1.31808	1.54348
19.49694	-1.34006	1.54348
19.50100	-1.36203	1.54348
19.50506	-1.38400	1.54348
19.50913	-1.38400	1.54348
19.51319	-1.40597	1.54348
19.51725	-1.42795	1.54348
19.52131	-1.42795	1.54348
19.52536	-1.44992	1.54348
19.52942	-1.47189	1.54348
19.53348	-1.47189	1.54348
19.53754	-1.49386	1.54348
19.54160	-1.49386	1.54348
19.54566	-1.51584	1.54348
19.54972	-1.53781	1.54348
19.55377	-1.53781	1.54348
19.55783	-1.55978	1.54348
19.56189	-1.58175	1.54348
19.56594	-1.60373	1.54348
19.57000	-1.62570	1.54348
19.57406	-1.62570	1.54348
19.57812	-1.62570	1.54348
19.58240	-1.66964	1.54348
19.58646	-1.66964	1.54348
19.59051	-1.69162	1.54348
19.59457	-1.71359	1.54348
19.59863	-1.71359	1.54348
19.60268	-1.73556	1.54348
19.60674	-1.73556	1.54348
19.61081	-1.75754	1.54348
19.61487	-1.77951	1.54348
19.61893	-1.77951	1.54348
19.62298	-1.80148	1.54348
19.62704	-1.82345	1.54348
19.63110	-1.84543	1.54348
19.63515	-1.86740	1.54348
19.63921	-1.86740	1.54348
19.64327	-1.88937	1.54348
19.64733	-1.91134	1.54348
19.65138	-1.91134	1.54348
19.65544	-1.93332	1.54348
19.65950	-1.95529	1.54348
19.66356	-1.95529	1.54348
19.66761	-1.97726	1.54348
19.67167	-1.99923	1.54348
19.67573	-2.02121	1.54348
19.67979	-2.02121	1.54348
19.68407	-2.02121	1.54348
19.68813	-2.04318	1.54348
19.69219	-2.06515	1.54348
19.69624	-2.08713	1.54348
19.70030	-2.10910	1.54348
19.70436	-2.10910	1.54348
19.70842	-2.13107	1.54348
19.71248	-2.13107	1.54348
19.71655	-2.17502	1.54348
19.72060	-2.17502	1.54348
19.72466	-2.17502	1.54348
19.72872	-2.19699	1.54348
19.73277	-2.21896	1.54348
19.73683	-2.21896	1.54348
19.74089	-2.24093	1.54348
19.74495	-2.24093	1.54348
19.74900	-2.26291	1.54348
19.75306	-2.28488	1.54348
19.75712	-2.30685	1.54348
19.76117	-2.32882	1.54348
19.76523	-2.32882	1.54348
19.76929	-2.32882	1.54348
19.77335	-2.35080	1.54348
19.77740	-2.37277	1.54348
19.78146	-2.37277	1.54348
19.78574	-2.39474	1.54348
19.78980	-2.39474	1.54348
19.79386	-2.41672	1.54348
19.79792	-2.43869	1.54348
19.80197	-2.43869	1.54348
19.80603	-2.46066	1.54348
19.81009	-2.46066	1.54348
19.81416	-2.48263	1.54348
19.81822	-2.48263	1.54348
19.82227	-2.50461	1.54348
19.82633	-2.52658	1.54348
19.83039	-2.52658	1.54348
19.83444	-2.52658	1.54348
19.83851	-2.54855	1.54348
19.84256	-2.57052	1.54348
19.84662	-2.57052	1.54348
19.85068	-2.59250	1.54348
19.85474	-2.59250	1.54348
19.85879	-2.61447	1.54348
19.86285	-2.61447	1.54348
19.86691	-2.63644	1.54348
19.87096	-2.63644	1.54348
19.87502	-2.65841	1.54348
19.87908	-2.65841	1.54348
19.88314	-2.68039	1.54348
19.88743	-2.68039	1.54348
19.89149	-2.70236	1.54348
19.89555	-2.70236	1.54348
19.89961	-2.70236	1.54348
19.90367	-2.72433	1.54348
19.90772	-2.72433	1.54348
19.91178	-2.74631	1.54348
19.91584	-2.74631	1.54348
19.91990	-2.74631	1.54348
19.92396	-2.76828	1.54348
19.92802	-2.76828	1.54348
19.93208	-2.79025	1.54348
19.93614	-2.79025	1.54348
19.94019	-2.79025	1.54348
19.94425	-2.81222	1.54348
19.94831	-2.81222	1.54348
19.95237	-2.83420	1.54348
19.95642	-2.83420	1.54348
19.96048	-2.83420	1.54348
19.96454	-2.85617	1.54348
19.96859	-2.85617	1.54348
19.97265	-2.85617	1.54348
19.97671	-2.87814	1.54348
19.98076	-2.87814	1.54348
19.98482	-2.87814	1.54348
19.98910	-2.90011	1.54348
19.99316	-2.90011	1.54348
19.99722	-2.90011	1.54348
20.00127	-2.92209	1.54348
20.00533	-2.92209	1.54348
20.00939	-2.92209	1.54348
20.01344	-2.94406	1.54348
20.01751	-2.94406	1.54348
20.02157	-2.94406	1.54348
20.02563	-2.94406	1.54348
20.02969	-2.94406	1.54348
20.03374	-2.96603	1.54348
20.03780	-2.96603	1.54348
20.04186	-2.96603	1.54348
20.04592	-2.96603	1.54348
20.04998	-2.96603	1.54348
20.05404	-2.98800	1.54348
20.05810	-2.98800	1.54348
20.06215	-2.98800	1.54348
20.06621	-2.98800	1.54348
20.07027	-3.00998	1.54348
20.07433	-3.00998	1.54348
20.07838	-3.00998	1.54348
20.08244	-3.00998	1.54348
20.08650	-3.00998	1.54348
20.09074	-3.00998	1.54348
20.09480	-3.00998	1.54348
20.09886	-3.03195	1.54348
20.10292	-3.03195	1.54348
20.10697	-3.03195	1.54348
20.11103	-3.03195	1.54348
20.11509	-3.03195	1.54348
20.11916	-3.03195	1.54348
20.12321	-3.03195	1.54348
20.12727	-3.03195	1.54348
20.13133	-3.05392	1.54348
20.13539	-3.05392	1.54348
20.13945	-3.05392	1.54348
20.14351	-3.05392	1.54348
20.14757	-3.05392	1.54348
20.15163	-3.05392	1.54348
20.15568	-3.05392	1.54348
20.15974	-3.05392	1.54348
20.16380	-3.05392	1.54348
20.16786	-3.07589	1.54348
20.17191	-3.05392	1.54348
20.17597	-3.05392	1.54348
20.18003	-3.07589	1.54348
20.18408	-3.07589	1.54348
20.18814	-3.07589	1.54348
20.19242	-3.07589	1.54348
20.19649	-3.07589	1.54348
20.20055	-3.07589	1.54348
20.20461	-3.07589	1.54348
20.20867	-3.07589	1.54348
20.21273	-3.07589	1.54348
20.21678	-3.07589	1.54348
20.22086	-3.05392	1.54348
20.22492	-3.07589	1.54348
20.22897	-3.07589	1.54348
20.23303	-3.07589	1.54348
20.23709	-3.07589	1.54348
20.24115	-3.07589	1.54348
20.24520	-3.07589	1.54348
20.24926	-3.07589	1.54348
20.25332	-3.05392	1.54348
20.25737	-3.07589	1.54348
20.26143	-3.07589	1.54348
20.26549	-3.05392	1.54348
20.26954	-3.05392	1.54348
20.27360	-3.05392	1.54348
20.27766	-3.05392	1.54348
20.28171	-3.05392	1.54348
20.28577	-3.05392	1.54348
20.28983	-3.05392	1.54348
20.29413	-3.05392	1.54348
20.29818	-3.05392	1.54348
20.30224	-3.05392	1.54348
20.30630	-3.05392	1.54348
20.31035	-3.05392	1.54348
20.31441	-3.05392	1.54348
20.31847	-3.03195	1.54348
20.32253	-3.03195	1.54348
20.32659	-3.03195	1.54348
20.33064	-3.05392	1.54348
20.33470	-3.03195	1.54348
20.33876	-3.03195	1.54348
20.34282	-3.03195	1.54348
20.34687	-3.03195	1.54348
20.35093	-3.00998	1.54348
20.35499	-3.03195	1.54348
20.35904	-3.00998	1.54348
20.36310	-3.03195	1.54348
20.36716	-3.03195	1.54348
20.37122	-3.00998	1.54348
20.37527	-3.00998	1.54348
20.37933	-3.00998	1.54348
20.38343	-3.00998	1.54348
20.38749	-3.00998	1.54348
20.39155	-3.00998	1.54348
20.39583	-3.00998	1.54348
20.39989	-2.98800	1.54348
20.40395	-2.98800	1.54348
20.40800	-2.98800	1.54348
20.41206	-2.98800	1.54348
20.41612	-2.98800	1.54348
20.42018	-2.98800	1.54348
20.42424	-2.96603	1.54348
20.42830	-2.96603	1.54348
20.43236	-2.96603	1.54348
20.43642	-2.96603	1.54348
20.44048	-2.96603	1.54348
20.44454	-2.96603	1.54348
20.44859	-2.96603	1.54348
20.45265	-2.94406	1.54348
20.45671	-2.94406	1.54348
20.46077	-2.94406	1.54348
20.46482	-2.94406	1.54348
20.46888	-2.94406	1.54348
20.47294	-2.94406	1.54348
20.47699	-2.92209	1.54348
20.48105	-2.92209	1.54348
20.48511	-2.92209	1.54348
20.48917	-2.92209	1.54348
20.49322	-2.92209	1.54348
20.49751	-2.90011	1.54348
20.50159	-2.90011	1.54348
20.50565	-2.90011	1.54348
20.50971	-2.90011	1.54348
20.51377	-2.87814	1.54348
20.51782	-2.87814	1.54348
20.52188	-2.87814	1.54348
20.52595	-2.87814	1.54348
20.53001	-2.85617	1.54348
20.53406	-2.85617	1.54348
20.53812	-2.85617	1.54348
20.54218	-2.85617	1.54348
20.54624	-2.85617	1.54348
20.55029	-2.83420	1.54348
20.55435	-2.83420	1.54348
20.55841	-2.83420	1.54348
20.56246	-2.83420	1.54348
20.56651	-2.81222	1.54348
20.57057	-2.81222	1.54348
20.57463	-2.81222	1.54348
20.57868	-2.81222	1.54348
20.58274	-2.81222	1.54348
20.58680	-2.79025	1.54348
20.59085	-2.79025	1.54348
20.59491	-2.76828	1.54348
20.59920	-2.76828	1.54348
20.60326	-2.76828	1.54348
20.60732	-2.76828	1.54348
20.61137	-2.74631	1.54348
20.61543	-2.74631	1.54348
20.61949	-2.74631	1.54348
20.62354	-2.74631	1.54348
20.62761	-2.74631	1.54348
20.63166	-2.72433	1.54348
20.63572	-2.72433	1.54348
20.63978	-2.72433	1.54348
20.64384	-2.70236	1.54348
20.64789	-2.70236	1.54348
20.65195	-2.70236	1.54348
20.65601	-2.68039	1.54348
20.66006	-2.68039	1.54348
20.66412	-2.68039	1.54348
20.66818	-2.68039	1.54348
20.67224	-2.65841	1.54348
20.67629	-2.65841	1.54348
20.68035	-2.65841	1.54348
20.68441	-2.65841	1.54348
20.68846	-2.63644	1.54348
20.69252	-2.63644	1.54348
20.69658	-2.63644	1.54348
20.70086	-2.63644	1.54348
20.70492	-2.61447	1.54348
20.70898	-2.61447	1.54348
20.71304	-2.61447	1.54348
20.71709	-2.61447	1.54348
20.72115	-2.61447	1.54348
20.72521	-2.59250	1.54348
20.72927	-2.59250	1.54348
20.73333	-2.59250	1.54348
20.73739	-2.59250	1.54348
20.74145	-2.57052	1.54348
20.74550	-2.57052	1.54348
20.74957	-2.57052	1.54348
20.75363	-2.57052	1.54348
20.75768	-2.57052	1.54348
20.76174	-2.57052	1.54348
20.76580	-2.54855	1.54348
20.76986	-2.54855	1.54348
20.77391	-2.54855	1.54348
20.77797	-2.54855	1.54348
20.78203	-2.54855	1.54348
20.78608	-2.54855	1.54348
20.79014	-2.54855	1.54348
20.79420	-2.54855	1.54348
20.79825	-2.54855	1.54348
20.80256	-2.52658	1.54348
20.80661	-2.52658	1.54348
20.81067	-2.52658	1.54348
20.81473	-2.52658	1.54348
20.81878	-2.52658	1.54348
20.82284	-2.50461	1.54348
20.82690	-2.52658	1.54348
20.83096	-2.52658	1.54348
20.83502	-2.52658	1.54348
20.83907	-2.52658	1.54348
20.84313	-2.52658	1.54348
20.84719	-2.52658	1.54348
20.85125	-2.52658	1.54348
20.85530	-2.50461	1.54348
20.85936	-2.52658	1.54348
20.86342	-2.52658	1.54348
20.86748	-2.52658	1.54348
20.87153	-2.52658	1.54348
20.87559	-2.52658	1.54348
20.87965	-2.52658	1.54348
20.88370	-2.52658	1.54348
20.88776	-2.52658	1.54348
20.89182	-2.52658	1.54348
20.89588	-2.52658	1.54348
20.89994	-2.54855	1.54348
20.90422	-2.52658	1.54348
20.90828	-2.52658	1.54348
20.91234	-2.52658	1.54348
20.91639	-2.54855	1.54348
20.92045	-2.54855	1.54348
20.92451	-2.54855	1.54348
20.92857	-2.54855	1.54348
20.93263	-2.54855	1.54348
20.93669	-2.54855	1.54348
20.94075	-2.57052	1.54348
20.94480	-2.54855	1.54348
20.94886	-2.54855	1.54348
20.95292	-2.57052	1.54348
20.95698	-2.57052	1.54348
20.96103	-2.57052	1.54348
20.96509	-2.59250	1.54348
20.96915	-2.59250	1.54348
20.97320	-2.59250	1.54348
20.97726	-2.59250	1.54348
20.98132	-2.59250	1.54348
20.98537	-2.59250	1.54348
20.98946	-2.59250	1.54348
20.99352	-2.61447	1.54348
20.99758	-2.61447	1.54348
21.00163	-2.61447	1.54348
21.00592	-2.63644	1.54348
21.00998	-2.63644	1.54348
21.01404	-2.63644	1.54348
21.01810	-2.63644	1.54348
21.02215	-2.63644	1.54348
21.02621	-2.65841	1.54348
21.03027	-2.65841	1.54348
21.03433	-2.65841	1.54348
21.03839	-2.65841	1.54348
21.04245	-2.68039	1.54348
21.04651	-2.68039	1.54348
21.05058	-2.68039	1.54348
21.05463	-2.68039	1.54348
21.05869	-2.70236	1.54348
21.06275	-2.70236	1.54348
21.06681	-2.70236	1.54348
21.07086	-2.70236	1.54348
21.07492	-2.70236	1.54348
21.07898	-2.72433	1.54348
21.08304	-2.72433	1.54348
21.08710	-2.74631	1.54348
21.09115	-2.74631	1.54348
21.09521	-2.74631	1.54348
21.09927	-2.74631	1.54348
21.10332	-2.74631	1.54348
21.10760	-2.76828	1.54348
21.11166	-2.76828	1.54348
21.11572	-2.79025	1.54348
21.11978	-2.79025	1.54348
21.12383	-2.79025	1.54348
21.12789	-2.79025	1.54348
21.13195	-2.81222	1.54348
21.13601	-2.81222	1.54348
21.14007	-2.81222	1.54348
21.14413	-2.81222	1.54348
21.14819	-2.81222	1.54348
21.15225	-2.83420	1.54348
21.15630	-2.83420	1.54348
21.16036	-2.85617	1.54348
21.16442	-2.85617	1.54348
21.16848	-2.85617	1.54348
21.17253	-2.85617	1.54348
21.17659	-2.85617	1.54348
21.18065	-2.85617	1.54348
21.18470	-2.87814	1.54348
21.18876	-2.87814	1.54348
21.19282	-2.87814	1.54348
21.19687	-2.87814	1.54348
21.20093	-2.90011	1.54348
21.20499	-2.90011	1.54348
21.20927	-2.90011	1.54348
21.21333	-2.90011	1.54348
21.21739	-2.92209	1.54348
21.22144	-2.92209	1.54348
21.22550	-2.92209	1.54348
21.22956	-2.92209	1.54348
21.23361	-2.92209	1.54348
21.23768	-2.94406	1.54348
21.24174	-2.94406	1.54348
21.24580	-2.94406	1.54348
21.24986	-2.94406	1.54348
21.25393	-2.94406	1.54348
21.25798	-2.94406	1.54348
21.26204	-2.94406	1.54348
21.26610	-2.94406	1.54348
21.27016	-2.96603	1.54348
21.27421	-2.96603	1.54348
21.27827	-2.96603	1.54348
21.28233	-2.96603	1.54348
21.28638	-2.96603	1.54348
21.29044	-2.96603	1.54348
21.29450	-2.98800	1.54348
21.29851	-2.98800	1.54348
21.30257	-2.98800	1.54348
21.30663	-2.98800	1.54348
21.31091	-2.98800	1.54348
21.31497	-2.98800	1.54348
21.31903	-3.00998	1.54348
21.32309	-3.00998	1.54348
21.32715	-3.00998	1.54348
21.33120	-3.00998	1.54348
21.33526	-3.00998	1.54348
21.33933	-3.00998	1.54348
21.34339	-3.00998	1.54348
21.34744	-3.03195	1.54348
21.35150	-3.03195	1.54348
21.35556	-3.03195	1.54348
21.35962	-3.03195	1.54348
21.36367	-3.03195	1.54348
21.36773	-3.03195	1.54348
21.37179	-3.03195	1.54348
21.37584	-3.03195	1.54348
21.37990	-3.03195	1.54348
21.38396	-3.03195	1.54348
21.38802	-3.03195	1.54348
21.39208	-3.03195	1.54348
21.39614	-3.05392	1.54348
21.40019	-3.05392	1.54348
21.40425	-3.05392	1.54348
21.40831	-3.03195	1.54348
21.41259	-3.05392	1.54348
21.41665	-3.03195	1.54348
21.42071	-3.03195	1.54348
21.42476	-3.05392	1.54348
21.42882	-3.05392	1.54348
21.43288	-3.05392	1.54348
21.43693	-3.05392	1.54348
21.44100	-3.05392	1.54348
21.44506	-3.05392	1.54348
21.44912	-3.05392	1.54348
21.45318	-3.05392	1.54348
21.45724	-3.05392	1.54348
21.46129	-3.05392	1.54348
21.46535	-3.05392	1.54348
21.46941	-3.05392	1.54348
21.47346	-3.05392	1.54348
21.47752	-3.05392	1.54348
21.48158	-3.05392	1.54348
21.48564	-3.05392	1.54348
21.48969	-3.05392	1.54348
21.49375	-3.05392	1.54348
21.49781	-3.03195	1.54348
21.50186	-3.03195	1.54348
21.50593	-3.05392	1.54348
21.50998	-3.05392	1.54348
21.51427	-3.05392	1.54348
21.51833	-3.05392	1.54348
21.52238	-3.05392	1.54348
21.52644	-3.05392	1.54348
21.53050	-3.05392	1.54348
21.53451	-3.03195	1.54348
21.53857	-3.03195	1.54348
21.54264	-3.03195	1.54348
21.54670	-3.03195	1.54348
21.55076	-3.03195	1.54348
21.55482	-3.03195	1.54348
21.55888	-3.03195	1.54348
21.56294	-3.03195	1.54348
21.56700	-3.03195	1.54348
21.57105	-3.03195	1.54348
21.57511	-3.03195	1.54348
21.57917	-3.03195	1.54348
21.58322	-3.03195	1.54348
21.58728	-3.00998	1.54348
21.59134	-3.00998	1.54348
21.59539	-3.00998	1.54348
21.59945	-3.03195	1.54348
21.60351	-3.00998	1.54348
21.60756	-3.00998	1.54348
21.61162	-3.00998	1.54348
21.61590	-3.00998	1.54348
21.61996	-2.98800	1.54348
21.62402	-2.98800	1.54348
21.62807	-2.98800	1.54348
21.63213	-2.98800	1.54348
21.63619	-2.98800	1.54348
21.64024	-2.98800	1.54348
21.64431	-2.98800	1.54348
21.64837	-2.98800	1.54348
21.65243	-2.96603	1.54348
21.65649	-2.96603	1.54348
21.66054	-2.96603	1.54348
21.66460	-2.96603	1.54348
21.66866	-2.94406	1.54348
21.67272	-2.96603	1.54348
21.67677	-2.96603	1.54348
21.68083	-2.94406	1.54348
21.68489	-2.94406	1.54348
21.68894	-2.94406	1.54348
21.69300	-2.94406	1.54348
21.69706	-2.92209	1.54348
21.70112	-2.92209	1.54348
21.70517	-2.92209	1.54348
21.70923	-2.92209	1.54348
21.71329	-2.92209	1.54348
21.71758	-2.92209	1.54348
21.72164	-2.92209	1.54348
21.72569	-2.90011	1.54348
21.72975	-2.90011	1.54348
21.73381	-2.90011	1.54348
21.73787	-2.90011	1.54348
21.74192	-2.90011	1.54348
21.74599	-2.87814	1.54348
21.75005	-2.87814	1.54348
21.75411	-2.87814	1.54348
21.75818	-2.87814	1.54348
21.76223	-2.87814	1.54348
21.76629	-2.87814	1.54348
21.77035	-2.85617	1.54348
21.77441	-2.85617	1.54348
21.77846	-2.85617	1.54348
21.78251	-2.87814	1.54348
21.78657	-2.85617	1.54348
21.79063	-2.83420	1.54348
21.79468	-2.83420	1.54348
21.79874	-2.83420	1.54348
21.80280	-2.83420	1.54348
21.80685	-2.83420	1.54348
21.81091	-2.81222	1.54348
21.81497	-2.81222	1.54348
21.81927	-2.81222	1.54348
21.82333	-2.81222	1.54348
21.82739	-2.81222	1.54348
21.83145	-2.81222	1.54348
21.83550	-2.81222	1.54348
21.83956	-2.81222	1.54348
21.84362	-2.79025	1.54348
21.84768	-2.79025	1.54348
21.85174	-2.79025	1.54348
21.85579	-2.79025	1.54348
21.85985	-2.76828	1.54348
21.86391	-2.79025	1.54348
21.86797	-2.79025	1.54348
21.87203	-2.79025	1.54348
21.87608	-2.76828	1.54348
21.88014	-2.76828	1.54348
21.88424	-2.76828	1.54348
21.88830	-2.76828	1.54348
21.89236	-2.76828	1.54348
21.89642	-2.76828	1.54348
21.90048	-2.76828	1.54348
21.90453	-2.76828	1.54348
21.90859	-2.74631	1.54348
21.91265	-2.74631	1.54348
21.91671	-2.74631	1.54348
21.92099	-2.74631	1.54348
21.92505	-2.74631	1.54348
21.92910	-2.74631	1.54348
21.93316	-2.74631	1.54348
21.93722	-2.74631	1.54348
21.94127	-2.72433	1.54348
21.94533	-2.72433	1.54348
21.94940	-2.74631	1.54348
21.95346	-2.72433	1.54348
21.95751	-2.72433	1.54348
21.96157	-2.72433	1.54348
21.96563	-2.72433	1.54348
21.96969	-2.72433	1.54348
21.97374	-2.72433	1.54348
21.97780	-2.72433	1.54348
21.98186	-2.72433	1.54348
21.98591	-2.70236	1.54348
21.98997	-2.70236	1.54348
21.99403	-2.70236	1.54348
21.99808	-2.70236	1.54348
22.00214	-2.70236	1.54348
22.00620	-2.70236	1.54348
22.01026	-2.70236	1.54348
22.01431	-2.70236	1.54348
22.01837	-2.70236	1.54348
22.02267	-2.70236	1.54348
22.02673	-2.70236	1.54348
22.03078	-2.70236	1.54348
22.03484	-2.68039	1.54348
22.03890	-2.68039	1.54348
22.04295	-2.68039	1.54348
22.04701	-2.68039	1.54348
22.05107	-2.68039	1.54348
22.05513	-2.68039	1.54348
22.05919	-2.68039	1.54348
22.06325	-2.68039	1.54348
22.06730	-2.68039	1.54348
22.07136	-2.68039	1.54348
22.07542	-2.65841	1.54348
22.07947	-2.68039	1.54348
22.08353	-2.68039	1.54348
22.08759	-2.65841	1.54348
22.09164	-2.65841	1.54348
22.09570	-2.65841	1.54348
22.09976	-2.65841	1.54348
22.10381	-2.65841	1.54348
22.10787	-2.65841	1.54348
22.11193	-2.65841	1.54348
22.11599	-2.65841	1.54348
22.12004	-2.65841	1.54348
22.12433	-2.63644	1.54348
22.12839	-2.63644	1.54348
22.13244	-2.63644	1.54348
22.13650	-2.63644	1.54348
22.14056	-2.63644	1.54348
22.14462	-2.63644	1.54348
22.14867	-2.63644	1.54348
22.15274	-2.63644	1.54348
22.15679	-2.63644	1.54348
22.16086	-2.63644	1.54348
22.16492	-2.61447	1.54348
22.16898	-2.63644	1.54348
22.17303	-2.63644	1.54348
22.17709	-2.63644	1.54348
22.18115	-2.63644	1.54348
22.18521	-2.61447	1.54348
22.18926	-2.61447	1.54348
22.19332	-2.61447	1.54348
22.19738	-2.61447	1.54348
22.20143	-2.61447	1.54348
22.20549	-2.61447	1.54348
22.20955	-2.61447	1.54348
22.21360	-2.61447	1.54348
22.21766	-2.61447	1.54348
22.22172	-2.61447	1.54348
22.22600	-2.61447	1.54348
22.23006	-2.59250	1.54348
22.23411	-2.59250	1.54348
22.23817	-2.59250	1.54348
22.24223	-2.59250	1.54348
22.24629	-2.59250	1.54348
22.25034	-2.59250	1.54348
22.25441	-2.59250	1.54348
22.25847	-2.59250	1.54348
22.26251	-2.59250	1.54348
22.26657	-2.59250	1.54348
22.27063	-2.59250	1.54348
22.27468	-2.59250	1.54348
22.27874	-2.59250	1.54348
22.28280	-2.59250	1.54348
22.28686	-2.59250	1.54348
22.29091	-2.59250	1.54348
22.29497	-2.57052	1.54348
22.29903	-2.57052	1.54348
22.30308	-2.57052	1.54348
22.30714	-2.57052	1.54348
22.31120	-2.57052	1.54348
22.31525	-2.57052	1.54348
22.31931	-2.59250	1.54348
22.32337	-2.57052	1.54348
22.32765	-2.57052	1.54348
22.33171	-2.57052	1.54348
22.33577	-2.57052	1.54348
22.33983	-2.57052	1.54348
22.34388	-2.57052	1.54348
22.34794	-2.57052	1.54348
22.35200	-2.57052	1.54348
22.35606	-2.57052	1.54348
22.36012	-2.57052	1.54348
22.36418	-2.57052	1.54348
22.36823	-2.57052	1.54348
22.37229	-2.57052	1.54348
22.37635	-2.57052	1.54348
22.38040	-2.54855	1.54348
22.38446	-2.54855	1.54348
22.38852	-2.57052	1.54348
22.39258	-2.57052	1.54348
22.39664	-2.57052	1.54348
22.40070	-2.57052	1.54348
22.40475	-2.57052	1.54348
22.40881	-2.57052	1.54348
22.41287	-2.57052	1.54348
22.41692	-2.57052	1.54348
22.42098	-2.57052	1.54348
22.42504	-2.54855	1.54348
22.42932	-2.54855	1.54348
22.43338	-2.57052	1.54348
22.43744	-2.57052	1.54348
22.44149	-2.54855	1.54348
22.44555	-2.57052	1.54348
22.44961	-2.57052	1.54348
22.45367	-2.54855	1.54348
22.45773	-2.54855	1.54348
22.46179	-2.54855	1.54348
22.46585	-2.54855	1.54348
22.46991	-2.54855	1.54348
22.47397	-2.57052	1.54348
22.47802	-2.54855	1.54348
22.48208	-2.54855	1.54348
22.48614	-2.57052	1.54348
22.49019	-2.57052	1.54348
22.49425	-2.54855	1.54348
22.49831	-2.54855	1.54348
22.50236	-2.54855	1.54348
22.50643	-2.54855	1.54348
22.51048	-2.54855	1.54348
22.51451	-2.54855	1.54348
22.51857	-2.54855	1.54348
22.52263	-2.54855	1.54348
22.52668	-2.54855	1.54348
22.53097	-2.54855	1.54348
22.53503	-2.54855	1.54348
22.53909	-2.54855	1.54348
22.54314	-2.54855	1.54348
22.54720	-2.54855	1.54348
22.55126	-2.54855	1.54348
22.55531	-2.54855	1.54348
22.55938	-2.54855	1.54348
22.56344	-2.54855	1.54348
22.56750	-2.54855	1.54348
22.57156	-2.54855	1.54348
22.57561	-2.54855	1.54348
22.57967	-2.54855	1.54348
22.58373	-2.54855	1.54348
22.58779	-2.54855	1.54348
22.59184	-2.54855	1.54348
22.59590	-2.54855	1.54348
22.59996	-2.54855	1.54348
22.60401	-2.54855	1.54348
22.60807	-2.54855	1.54348
22.61213	-2.54855	1.54348
22.61618	-2.54855	1.54348
22.62024	-2.54855	1.54348
22.62430	-2.54855	1.54348
22.62836	-2.54855	1.54348
22.63264	-2.54855	1.54348
22.63670	-2.54855	1.54348
22.64076	-2.54855	1.54348
22.64482	-2.54855	1.54348
22.64887	-2.54855	1.54348
22.65293	-2.54855	1.54348
22.65699	-2.54855	1.54348
22.66105	-2.54855	1.54348
22.66511	-2.54855	1.54348
22.66917	-2.54855	1.54348
22.67323	-2.57052	1.54348
22.67729	-2.54855	1.54348
22.68134	-2.54855	1.54348
22.68540	-2.54855	1.54348
22.68946	-2.54855	1.54348
22.69351	-2.54855	1.54348
22.69757	-2.54855	1.54348
22.70163	-2.54855	1.54348
22.70568	-2.54855	1.54348
22.70974	-2.57052	1.54348
22.71380	-2.57052	1.54348
22.71786	-2.54855	1.54348
22.72191	-2.54855	1.54348
22.72597	-2.54855	1.54348
22.73003	-2.54855	1.54348
22.73431	-2.54855	1.54348
22.73837	-2.57052	1.54348
22.74243	-2.54855	1.54348
22.74649	-2.54855	1.54348
22.75051	-2.54855	1.54348
22.75457	-2.57052	1.54348
22.75863	-2.54855	1.54348
22.76269	-2.57052	1.54348
22.76675	-2.57052	1.54348
22.77081	-2.54855	1.54348
22.77487	-2.57052	1.54348
22.77892	-2.57052	1.54348
22.78298	-2.54855	1.54348
22.78704	-2.54855	1.54348
22.79110	-2.57052	1.54348
22.79515	-2.57052	1.54348
22.79921	-2.57052	1.54348
22.80327	-2.57052	1.54348
22.80732	-2.57052	1.54348
22.81138	-2.57052	1.54348
22.81544	-2.57052	1.54348
22.81950	-2.57052	1.54348
22.82355	-2.57052	1.54348
22.82761	-2.57052	1.54348
22.83167	-2.57052	1.54348
22.83595	-2.57052	1.54348
22.84000	-2.57052	1.54348
22.84406	-2.57052	1.54348
22.84812	-2.57052	1.54348
22.85218	-2.57052	1.54348
22.85623	-2.57052	1.54348
22.86029	-2.57052	1.54348
22.86436	-2.57052	1.54348
22.86841	-2.57052	1.54348
22.87247	-2.57052	1.54348
22.87653	-2.57052	1.54348
22.88058	-2.57052	1.54348
22.88468	-2.57052	1.54348
22.88874	-2.57052	1.54348
22.89280	-2.57052	1.54348
22.89686	-2.57052	1.54348
22.90091	-2.57052	1.54348
22.90497	-2.59250	1.54348
22.90903	-2.57052	1.54348
22.91309	-2.59250	1.54348
22.91714	-2.59250	1.54348
22.92120	-2.59250	1.54348
22.92526	-2.59250	1.54348
22.92931	-2.59250	1.54348
22.93337	-2.59250	1.54348
22.93766	-2.59250	1.54348
22.94171	-2.59250	1.54348
22.94577	-2.59250	1.54348
22.94983	-2.59250	1.54348
22.95388	-2.59250	1.54348
22.95794	-2.59250	1.54348
22.96200	-2.59250	1.54348
22.96607	-2.59250	1.54348
22.97013	-2.59250	1.54348
22.97419	-2.59250	1.54348
22.97825	-2.61447	1.54348
22.98230	-2.59250	1.54348
22.98636	-2.59250	1.54348
22.99042	-2.59250	1.54348
22.99448	-2.61447	1.54348
22.99851	-2.61447	1.54348
23.00257	-2.61447	1.54348
23.00663	-2.61447	1.54348
23.01068	-2.61447	1.54348
23.01474	-2.61447	1.54348
23.01880	-2.61447	1.54348
23.02286	-2.61447	1.54348
23.02691	-2.61447	1.54348
23.03097	-2.61447	1.54348
23.03503	-2.61447	1.54348
23.03931	-2.63644	1.54348
23.04337	-2.63644	1.54348
23.04743	-2.61447	1.54348
23.05149	-2.61447	1.54348
23.05555	-2.63644	1.54348
23.05961	-2.63644	1.54348
23.06367	-2.63644	1.54348
23.06774	-2.63644	1.54348
23.07180	-2.63644	1.54348
23.07586	-2.63644	1.54348
23.07992	-2.63644	1.54348
23.08398	-2.63644	1.54348
23.08804	-2.63644	1.54348
23.09209	-2.63644	1.54348
23.09615	-2.65841	1.54348
23.10021	-2.63644	1.54348
23.10426	-2.65841	1.54348
23.10832	-2.63644	1.54348
23.11237	-2.63644	1.54348
23.11643	-2.65841	1.54348
23.12049	-2.65841	1.54348
23.12454	-2.65841	1.54348
23.12860	-2.65841	1.54348
23.13265	-2.65841	1.54348
23.13671	-2.65841	1.54348
23.14096	-2.65841	1.54348
23.14502	-2.65841	1.54348
23.14908	-2.65841	1.54348
23.15314	-2.68039	1.54348
23.15719	-2.68039	1.54348
23.16125	-2.68039	1.54348
23.16531	-2.68039	1.54348
23.16945	-2.68039	1.54348
23.17351	-2.68039	1.54348
23.17757	-2.68039	1.54348
23.18163	-2.68039	1.54348
23.18569	-2.68039	1.54348
23.18975	-2.68039	1.54348
23.19381	-2.68039	1.54348
23.19787	-2.68039	1.54348
23.20193	-2.68039	1.54348
23.20598	-2.68039	1.54348
23.21004	-2.68039	1.54348
23.21410	-2.68039	1.54348
23.21815	-2.68039	1.54348
23.22221	-2.70236	1.54348
23.22627	-2.70236	1.54348
23.23032	-2.68039	1.54348
23.23438	-2.70236	1.54348
23.23844	-2.68039	1.54348
23.24272	-2.68039	1.54348
23.24678	-2.70236	1.54348
23.25083	-2.70236	1.54348
23.25490	-2.70236	1.54348
23.25895	-2.70236	1.54348
23.26301	-2.70236	1.54348
23.26708	-2.70236	1.54348
23.27116	-2.70236	1.54348
23.27522	-2.70236	1.54348
23.27928	-2.70236	1.54348
23.28334	-2.70236	1.54348
23.28739	-2.70236	1.54348
23.29145	-2.70236	1.54348
23.29551	-2.70236	1.54348
23.29957	-2.70236	1.54348
23.30363	-2.70236	1.54348
23.30769	-2.68039	1.54348
23.31174	-2.70236	1.54348
23.31580	-2.70236	1.54348
23.31986	-2.70236	1.54348
23.32392	-2.70236	1.54348
23.32798	-2.70236	1.54348
23.33203	-2.70236	1.54348
23.33609	-2.70236	1.54348
23.34015	-2.70236	1.54348
23.34444	-2.70236	1.54348
23.34850	-2.70236	1.54348
23.35256	-2.70236	1.54348
23.35663	-2.70236	1.54348
23.36069	-2.70236	1.54348
23.36474	-2.70236	1.54348
23.36881	-2.70236	1.54348
23.37288	-2.70236	1.54348
23.37693	-2.70236	1.54348
23.38117	-2.70236	1.54348
23.38527	-2.70236	1.54348
23.38933	-2.70236	1.54348
23.39339	-2.70236	1.54348
23.39745	-2.70236	1.54348
23.40151	-2.70236	1.54348
23.40557	-2.70236	1.54348
23.40963	-2.70236	1.54348
23.41369	-2.70236	1.54348
23.41775	-2.70236	1.54348
23.42181	-2.70236	1.54348
23.42587	-2.70236	1.54348
23.42992	-2.70236	1.54348
23.43398	-2.70236	1.54348
23.43804	-2.70236	1.54348
23.44210	-2.68039	1.54348
23.44639	-2.70236	1.54348
23.45045	-2.68039	1.54348
23.45451	-2.68039	1.54348
23.45857	-2.68039	1.54348
23.46264	-2.68039	1.54348
23.46670	-2.68039	1.54348
23.47075	-2.68039	1.54348
23.47482	-2.68039	1.54348
23.47889	-2.68039	1.54348
23.48295	-2.68039	1.54348
23.48701	-2.68039	1.54348
23.49107	-2.68039	1.54348
23.49513	-2.68039	1.54348
23.49919	-2.68039	1.54348
23.50325	-2.68039	1.54348
23.50731	-2.68039	1.54348
23.51137	-2.65841	1.54348
23.51543	-2.65841	1.54348
23.51949	-2.65841	1.54348
23.52354	-2.65841	1.54348
23.52760	-2.65841	1.54348
23.53166	-2.65841	1.54348
23.53572	-2.65841	1.54348
23.53978	-2.65841	1.54348
23.54384	-2.65841	1.54348
23.54812	-2.65841	1.54348
23.55218	-2.63644	1.54348
23.55624	-2.63644	1.54348
23.56030	-2.63644	1.54348
23.56436	-2.63644	1.54348
23.56842	-2.63644	1.54348
23.57248	-2.63644	1.54348
23.57655	-2.61447	1.54348
23.58062	-2.61447	1.54348
23.58468	-2.61447	1.54348
23.58874	-2.61447	1.54348
23.59280	-2.61447	1.54348
23.59686	-2.61447	1.54348
23.60092	-2.61447	1.54348
23.60498	-2.61447	1.54348
23.60904	-2.61447	1.54348
23.61311	-2.59250	1.54348
23.61717	-2.59250	1.54348
23.62122	-2.59250	1.54348
23.62528	-2.59250	1.54348
23.62935	-2.59250	1.54348
23.63341	-2.59250	1.54348
23.63746	-2.57052	1.54348
23.64152	-2.57052	1.54348
23.64558	-2.57052	1.54348
23.64987	-2.57052	1.54348
23.65393	-2.57052	1.54348
23.65798	-2.57052	1.54348
23.66204	-2.57052	1.54348
23.66610	-2.54855	1.54348
23.67016	-2.54855	1.54348
23.67422	-2.54855	1.54348
23.67828	-2.54855	1.54348
23.68235	-2.52658	1.54348
23.68640	-2.52658	1.54348
23.69046	-2.52658	1.54348
23.69452	-2.52658	1.54348
23.69858	-2.52658	1.54348
23.70264	-2.52658	1.54348
23.70669	-2.52658	1.54348
23.71075	-2.50461	1.54348
23.71481	-2.50461	1.54348
23.71887	-2.50461	1.54348
23.72292	-2.48263	1.54348
23.72698	-2.48263	1.54348
23.73104	-2.48263	1.54348
23.73510	-2.48263	1.54348
23.73916	-2.48263	1.54348
23.74321	-2.48263	1.54348
23.74727	-2.48263	1.54348
23.75155	-2.46066	1.54348
23.75561	-2.46066	1.54348
23.75966	-2.46066	1.54348
23.76373	-2.43869	1.54348
23.76778	-2.43869	1.54348
23.77185	-2.43869	1.54348
23.77591	-2.41672	1.54348
23.77997	-2.41672	1.54348
23.78403	-2.41672	1.54348
23.78809	-2.41672	1.54348
23.79215	-2.39474	1.54348
23.79621	-2.39474	1.54348
23.80027	-2.39474	1.54348
23.80432	-2.37277	1.54348
23.80838	-2.37277	1.54348
23.81244	-2.37277	1.54348
23.81650	-2.37277	1.54348
23.82056	-2.37277	1.54348
23.82461	-2.35080	1.54348
23.82867	-2.35080	1.54348
23.83273	-2.35080	1.54348
23.83679	-2.32882	1.54348
23.84084	-2.32882	1.54348
23.84490	-2.32882	1.54348
23.84896	-2.32882	1.54348
23.85323	-2.30685	1.54348
23.85729	-2.30685	1.54348
23.86135	-2.30685	1.54348
23.86541	-2.30685	1.54348
23.86947	-2.28488	1.54348
23.87353	-2.28488	1.54348
23.87759	-2.26291	1.54348
23.88166	-2.26291	1.54348
23.88575	-2.26291	1.54348
23.88981	-2.24093	1.54348
23.89387	-2.24093	1.54348
23.89793	-2.21896	1.54348
23.90199	-2.21896	1.54348
23.90605	-2.21896	1.54348
23.91011	-2.21896	1.54348
23.91417	-2.19699	1.54348
23.91823	-2.19699	1.54348
23.92228	-2.17502	1.54348
23.92634	-2.17502	1.54348
23.93040	-2.17502	1.54348
23.93446	-2.15304	1.54348
23.93851	-2.15304	1.54348
23.94257	-2.15304	1.54348
23.94663	-2.15304	1.54348
23.95068	-2.13107	1.54348
23.95496	-2.13107	1.54348
23.95902	-2.10910	1.54348
23.96308	-2.10910	1.54348
23.96713	-2.08713	1.54348
23.97119	-2.08713	1.54348
23.97525	-2.08713	1.54348
23.97931	-2.06515	1.54348
23.98337	-2.06515	1.54348
23.98743	-2.06515	1.54348
23.99149	-2.06515	1.54348
23.99556	-2.04318	1.54348
23.99962	-2.04318	1.54348
24.00367	-2.02121	1.54348
24.00773	-2.02121	1.54348
24.01179	-1.99923	1.54348
24.01585	-1.99923	1.54348
24.01991	-1.99923	1.54348
24.02396	-1.97726	1.54348
24.02802	-1.97726	1.54348
24.03208	-1.95529	1.54348
24.03613	-1.95529	1.54348
24.04019	-1.95529	1.54348
24.04425	-1.93332	1.54348
24.04830	-1.93332	1.54348
24.05236	-1.93332	1.54348
24.05663	-1.93332	1.54348
24.06069	-1.91134	1.54348
24.06475	-1.88937	1.54348
24.06881	-1.86740	1.54348
24.07286	-1.86740	1.54348
24.07694	-1.86740	1.54348
24.08100	-1.86740	1.54348
24.08508	-1.84543	1.54348
24.08914	-1.84543	1.54348
24.09319	-1.84543	1.54348
24.09725	-1.82345	1.54348
24.10131	-1.82345	1.54348
24.10536	-1.82345	1.54348
24.10942	-1.82345	1.54348
24.11348	-1.80148	1.54348
24.11754	-1.80148	1.54348
24.12159	-1.77951	1.54348
24.12565	-1.77951	1.54348
24.12971	-1.75754	1.54348
24.13378	-1.75754	1.54348
24.13784	-1.73556	1.54348
24.14190	-1.73556	1.54348
24.14596	-1.73556	1.54348
24.15002	-1.71359	1.54348
24.15408	-1.71359	1.54348
24.15836	-1.71359	1.54348
24.16242	-1.71359	1.54348
24.16648	-1.69162	1.54348
24.17051	-1.69162	1.54348
24.17457	-1.66964	1.54348
24.17863	-1.66964	1.54348
24.18269	-1.64767	1.54348
24.18676	-1.64767	1.54348
24.19082	-1.64767	1.54348
24.19488	-1.62570	1.54348
24.19893	-1.62570	1.54348
24.20299	-1.60373	1.54348
24.20705	-1.60373	1.54348
24.21110	-1.60373	1.54348
24.21516	-1.60373	1.54348
24.21922	-1.58175	1.54348
24.22328	-1.58175	1.54348
24.22733	-1.58175	1.54348
24.23139	-1.58175	1.54348
24.23545	-1.55978	1.54348
24.23951	-1.53781	1.54348
24.24357	-1.53781	1.54348
24.24762	-1.53781	1.54348
24.25168	-1.53781	1.54348
24.25574	-1.51584	1.54348
24.26002	-1.51584	1.54348
24.26408	-1.49386	1.54348
24.26814	-1.49386	1.54348
24.27220	-1.49386	1.54348
24.27625	-1.49386	1.54348
24.28031	-1.47189	1.54348
24.28437	-1.47189	1.54348
24.28844	-1.44992	1.54348
24.29250	-1.44992	1.54348
24.29656	-1.44992	1.54348
24.30061	-1.42795	1.54348
24.30467	-1.42795	1.54348
24.30873	-1.42795	1.54348
24.31278	-1.42795	1.54348
24.31684	-1.40597	1.54348
24.32090	-1.40597	1.54348
24.32495	-1.38400	1.54348
24.32901	-1.38400	1.54348
24.33307	-1.38400	1.54348
24.33712	-1.38400	1.54348
24.34118	-1.36203	1.54348
24.34524	-1.36203	1.54348
24.34929	-1.36203	1.54348
24.35335	-1.36203	1.54348
24.35741	-1.36203	1.54348
24.36169	-1.34006	1.54348
24.36575	-1.31808	1.54348
24.36981	-1.31808	1.54348
24.37386	-1.31808	1.54348
24.37792	-1.31808	1.54348
24.38198	-1.31808	1.54348
24.38604	-1.29611	1.54348
24.39012	-1.29611	1.54348
24.39418	-1.27414	1.54348
24.39824	-1.27414	1.54348
24.40229	-1.27414	1.54348
24.40635	-1.27414	1.54348
24.41041	-1.25216	1.54348
24.41447	-1.25216	1.54348
24.41852	-1.25216	1.54348
24.42258	-1.25216	1.54348
24.42663	-1.25216	1.54348
24.43069	-1.23019	1.54348
24.43475	-1.23019	1.54348
24.43881	-1.23019	1.54348
24.44286	-1.23019	1.54348
24.44692	-1.23019	1.54348
24.45098	-1.20822	1.54348
24.45503	-1.20822	1.54348
24.45909	-1.20822	1.54348
24.46338	-1.20822	1.54348
24.46744	-1.18625	1.54348
24.47150	-1.18625	1.54348
24.47556	-1.18625	1.54348
24.47961	-1.16427	1.54348
24.48367	-1.18625	1.54348
24.48773	-1.18625	1.54348
24.49179	-1.16427	1.54348
24.49585	-1.16427	1.54348
24.49991	-1.16427	1.54348
24.50397	-1.16427	1.54348
24.50803	-1.16427	1.54348
24.51209	-1.14230	1.54348
24.51615	-1.14230	1.54348
24.52020	-1.14230	1.54348
24.52426	-1.14230	1.54348
24.52832	-1.14230	1.54348
24.53238	-1.14230	1.54348
24.53643	-1.12033	1.54348
24.54049	-1.12033	1.54348
24.54455	-1.12033	1.54348
24.54860	-1.12033	1.54348
24.55266	-1.12033	1.54348
24.55672	-1.12033	1.54348
24.56077	-1.12033	1.54348
24.56506	-1.12033	1.54348
24.56912	-1.12033	1.54348
24.57317	-1.12033	1.54348
24.57723	-1.09836	1.54348
24.58129	-1.09836	1.54348
24.58535	-1.09836	1.54348
24.58941	-1.09836	1.54348
24.59348	-1.09836	1.54348
24.59753	-1.09836	1.54348
24.60159	-1.09836	1.54348
24.60565	-1.09836	1.54348
24.60971	-1.07638	1.54348
24.61376	-1.07638	1.54348
24.61782	-1.07638	1.54348
24.62188	-1.09836	1.54348
24.62594	-1.07638	1.54348
24.62999	-1.07638	1.54348
24.63405	-1.07638	1.54348
24.63811	-1.07638	1.54348
24.64216	-1.07638	1.54348
24.64622	-1.07638	1.54348
24.65028	-1.07638	1.54348
24.65434	-1.05441	1.54348
24.65839	-1.05441	1.54348
24.66245	-1.05441	1.54348
24.66674	-1.05441	1.54348
24.67080	-1.05441	1.54348
24.67485	-1.05441	1.54348
24.67891	-1.05441	1.54348
24.68297	-1.05441	1.54348
24.68703	-1.05441	1.54348
24.69108	-1.05441	1.54348
24.69515	-1.07638	1.54348
24.69920	-1.07638	1.54348
24.70326	-1.05441	1.54348
24.70732	-1.05441	1.54348
24.71138	-1.05441	1.54348
24.71543	-1.05441	1.54348
24.71949	-1.05441	1.54348
24.72355	-1.05441	1.54348
24.72760	-1.05441	1.54348
24.73166	-1.05441	1.54348
24.73572	-1.05441	1.54348
24.73977	-1.05441	1.54348
24.74383	-1.05441	1.54348
24.74789	-1.05441	1.54348
24.75195	-1.05441	1.54348
24.75600	-1.05441	1.54348
24.76006	-1.05441	1.54348
24.76412	-1.05441	1.54348
24.76840	-1.05441	1.54348
24.77246	-1.03244	1.54348
24.77652	-1.05441	1.54348
24.78057	-1.05441	1.54348
24.78463	-1.05441	1.54348
24.78869	-1.05441	1.54348
24.79275	-1.05441	1.54348
24.79681	-1.05441	1.54348
24.80087	-1.05441	1.54348
24.80493	-1.05441	1.54348
24.80899	-1.05441	1.54348
24.81304	-1.05441	1.54348
24.81710	-1.05441	1.54348
24.82116	-1.05441	1.54348
24.82521	-1.05441	1.54348
24.82927	-1.05441	1.54348
24.83333	-1.05441	1.54348
24.83738	-1.05441	1.54348
24.84144	-1.05441	1.54348
24.84550	-1.05441	1.54348
24.84956	-1.05441	1.54348
24.85361	-1.05441	1.54348
24.85767	-1.05441	1.54348
24.86173	-1.05441	1.54348
24.86578	-1.05441	1.54348
24.87007	-1.05441	1.54348
24.87413	-1.05441	1.54348
24.87818	-1.05441	1.54348
24.88224	-1.07638	1.54348
24.88630	-1.07638	1.54348
24.89036	-1.07638	1.54348
24.89442	-1.07638	1.54348
24.89848	-1.07638	1.54348
24.90254	-1.07638	1.54348
24.90660	-1.07638	1.54348
24.91065	-1.09836	1.54348
24.91471	-1.09836	1.54348
24.91877	-1.09836	1.54348
24.92283	-1.09836	1.54348
24.92689	-1.07638	1.54348
24.93095	-1.09836	1.54348
24.93500	-1.09836	1.54348
24.93906	-1.09836	1.54348
24.94312	-1.09836	1.54348
24.94718	-1.09836	1.54348
24.95123	-1.12033	1.54348
24.95529	-1.12033	1.54348
24.95935	-1.12033	1.54348
24.96340	-1.12033	1.54348
24.96746	-1.12033	1.54348
24.97176	-1.12033	1.54348
24.97582	-1.12033	1.54348
24.97987	-1.14230	1.54348
24.98394	-1.12033	1.54348
24.98800	-1.14230	1.54348
24.99206	-1.12033	1.54348
24.99612	-1.14230	1.54348
25.00020	-1.14230	1.54348
25.00427	-1.14230	1.54348
25.00833	-1.14230	1.54348
25.01238	-1.16427	1.54348
25.01644	-1.16427	1.54348
25.02050	-1.16427	1.54348
25.02455	-1.16427	1.54348
25.02861	-1.16427	1.54348
25.03267	-1.16427	1.54348
25.03673	-1.18625	1.54348
25.04078	-1.18625	1.54348
25.04484	-1.18625	1.54348
25.04890	-1.18625	1.54348
25.05295	-1.18625	1.54348
25.05701	-1.20822	1.54348
25.06107	-1.20822	1.54348
25.06513	-1.20822	1.54348
25.06918	-1.20822	1.54348
25.07348	-1.20822	1.54348
25.07754	-1.23019	1.54348
25.08160	-1.23019	1.54348
25.08566	-1.23019	1.54348
25.08972	-1.23019	1.54348
25.09377	-1.23019	1.54348
25.09783	-1.23019	1.54348
25.10189	-1.23019	1.54348
25.10595	-1.23019	1.54348
25.11001	-1.25216	1.54348
25.11406	-1.25216	1.54348
25.11812	-1.25216	1.54348
25.12218	-1.25216	1.54348
25.12623	-1.25216	1.54348
25.13029	-1.25216	1.54348
25.13435	-1.27414	1.54348
25.13841	-1.27414	1.54348
25.14247	-1.27414	1.54348
25.14651	-1.27414	1.54348
25.15057	-1.27414	1.54348
25.15463	-1.27414	1.54348
25.15868	-1.29611	1.54348
25.16274	-1.29611	1.54348
25.16680	-1.29611	1.54348
25.17085	-1.29611	1.54348
25.17514	-1.31808	1.54348
25.17920	-1.29611	1.54348
25.18326	-1.31808	1.54348
25.18731	-1.31808	1.54348
25.19137	-1.31808	1.54348
25.19543	-1.31808	1.54348
25.19949	-1.34006	1.54348
25.20356	-1.34006	1.54348
25.20762	-1.34006	1.54348
25.21167	-1.34006	1.54348
25.21573	-1.34006	1.54348
25.21979	-1.36203	1.54348
25.22385	-1.34006	1.54348
25.22790	-1.36203	1.54348
25.23196	-1.36203	1.54348
25.23602	-1.36203	1.54348
25.24007	-1.36203	1.54348
25.24413	-1.38400	1.54348
25.24819	-1.38400	1.54348
25.25225	-1.38400	1.54348
25.25630	-1.38400	1.54348
25.26036	-1.38400	1.54348
25.26442	-1.40597	1.54348
25.26847	-1.40597	1.54348
25.27253	-1.40597	1.54348
25.27683	-1.40597	1.54348
25.28089	-1.40597	1.54348
25.28496	-1.42795	1.54348
25.28901	-1.42795	1.54348
25.29307	-1.42795	1.54348
25.29713	-1.42795	1.54348
25.30119	-1.42795	1.54348
25.30526	-1.44992	1.54348
25.30932	-1.44992	1.54348
25.31338	-1.44992	1.54348
25.31743	-1.47189	1.54348
25.32149	-1.47189	1.54348
25.32555	-1.47189	1.54348
25.32960	-1.47189	1.54348
25.33366	-1.47189	1.54348
25.33772	-1.49386	1.54348
25.34178	-1.49386	1.54348
25.34583	-1.49386	1.54348
25.34989	-1.49386	1.54348
25.35395	-1.51584	1.54348
25.35800	-1.51584	1.54348
25.36206	-1.51584	1.54348
25.36612	-1.51584	1.54348
25.37017	-1.53781	1.54348
25.37423	-1.53781	1.54348
25.37855	-1.53781	1.54348
25.38261	-1.55978	1.54348
25.38667	-1.55978	1.54348
25.39073	-1.55978	1.54348
25.39478	-1.58175	1.54348
25.39884	-1.58175	1.54348
25.40290	-1.58175	1.54348
25.40696	-1.58175	1.54348
25.41102	-1.58175	1.54348
25.41508	-1.58175	1.54348
25.41914	-1.60373	1.54348
25.42320	-1.60373	1.54348
25.42725	-1.60373	1.54348
25.43131	-1.60373	1.54348
25.43537	-1.62570	1.54348
25.43943	-1.62570	1.54348
25.44348	-1.62570	1.54348
25.44754	-1.62570	1.54348
25.45160	-1.62570	1.54348
25.45566	-1.64767	1.54348
25.45971	-1.64767	1.54348
25.46377	-1.64767	1.54348
25.46783	-1.66964	1.54348
25.47188	-1.66964	1.54348
25.47594	-1.66964	1.54348
25.48024	-1.66964	1.54348
25.48430	-1.69162	1.54348
25.48836	-1.69162	1.54348
25.49242	-1.69162	1.54348
25.49647	-1.69162	1.54348
25.50053	-1.69162	1.54348
25.50459	-1.69162	1.54348
25.50866	-1.71359	1.54348
25.51272	-1.71359	1.54348
25.51677	-1.71359	1.54348
25.52083	-1.71359	1.54348
25.52489	-1.73556	1.54348
25.52895	-1.73556	1.54348
25.53300	-1.73556	1.54348
25.53706	-1.75754	1.54348
25.54112	-1.75754	1.54348
25.54517	-1.75754	1.54348
25.54923	-1.75754	1.54348
25.55329	-1.77951	1.54348
25.55735	-1.77951	1.54348
25.56140	-1.77951	1.54348
25.56546	-1.77951	1.54348
25.56952	-1.77951	1.54348
25.57357	-1.80148	1.54348
25.57763	-1.80148	1.54348
25.58193	-1.80148	1.54348
25.58599	-1.80148	1.54348
25.59005	-1.80148	1.54348
25.59411	-1.82345	1.54348
25.59817	-1.82345	1.54348
25.60222	-1.82345	1.54348
25.60628	-1.82345	1.54348
25.61035	-1.84543	1.54348
25.61441	-1.84543	1.54348
25.61846	-1.84543	1.54348
25.62252	-1.84543	1.54348
25.62657	-1.84543	1.54348
25.63063	-1.86740	1.54348
25.63469	-1.86740	1.54348
25.63875	-1.86740	1.54348
25.64280	-1.86740	1.54348
25.64686	-1.86740	1.54348
25.65092	-1.88937	1.54348
25.65497	-1.88937	1.54348
25.65903	-1.88937	1.54348
25.66309	-1.88937	1.54348
25.66714	-1.88937	1.54348
25.67120	-1.91134	1.54348
25.67526	-1.91134	1.54348
25.67931	-1.91134	1.54348
25.68361	-1.91134	1.54348
25.68767	-1.91134	1.54348
25.69174	-1.91134	1.54348
25.69579	-1.93332	1.54348
25.69985	-1.93332	1.54348
25.70391	-1.93332	1.54348
25.70796	-1.93332	1.54348
25.71203	-1.93332	1.54348
25.71608	-1.95529	1.54348
25.72014	-1.93332	1.54348
25.72420	-1.95529	1.54348
25.72826	-1.95529	1.54348
25.73232	-1.95529	1.54348
25.73637	-1.95529	1.54348
25.74043	-1.95529	1.54348
25.74449	-1.95529	1.54348
25.74854	-1.97726	1.54348
25.75260	-1.97726	1.54348
25.75666	-1.97726	1.54348
25.76072	-1.97726	1.54348
25.76477	-1.97726	1.54348
25.76883	-1.99923	1.54348
25.77289	-1.99923	1.54348
25.77694	-1.97726	1.54348
25.78100	-1.99923	1.54348
25.78530	-1.99923	1.54348
25.78936	-1.99923	1.54348
25.79342	-1.99923	1.54348
25.79748	-1.99923	1.54348
25.80154	-2.02121	1.54348
25.80559	-1.99923	1.54348
25.80965	-2.02121	1.54348
25.81372	-2.02121	1.54348
25.81777	-2.02121	1.54348
25.82183	-1.99923	1.54348
25.82589	-2.02121	1.54348
25.82995	-2.02121	1.54348
25.83400	-2.02121	1.54348
25.83806	-2.02121	1.54348
25.84212	-2.02121	1.54348
25.84617	-2.02121	1.54348
25.85023	-2.04318	1.54348
25.85429	-2.04318	1.54348
25.85835	-2.02121	1.54348
25.86240	-2.02121	1.54348
25.86646	-2.04318	1.54348
25.87051	-2.04318	1.54348
25.87457	-2.04318	1.54348
25.87863	-2.04318	1.54348
25.88269	-2.04318	1.54348
25.88698	-2.04318	1.54348
25.89104	-2.04318	1.54348
25.89510	-2.04318	1.54348
25.89916	-2.04318	1.54348
25.90321	-2.04318	1.54348
25.90727	-2.04318	1.54348
25.91133	-2.04318	1.54348
25.91539	-2.04318	1.54348
25.91945	-2.04318	1.54348
25.92350	-2.04318	1.54348
25.92756	-2.04318	1.54348
25.93162	-2.06515	1.54348
25.93567	-2.04318	1.54348
25.93973	-2.06515	1.54348
25.94379	-2.06515	1.54348
25.94784	-2.04318	1.54348
25.95190	-2.06515	1.54348
25.95596	-2.06515	1.54348
25.96002	-2.06515	1.54348
25.96407	-2.06515	1.54348
25.96813	-2.06515	1.54348
25.97219	-2.06515	1.54348
25.97624	-2.06515	1.54348
25.98030	-2.06515	1.54348
25.98436	-2.06515	1.54348
25.98865	-2.06515	1.54348
25.99271	-2.06515	1.54348
25.99678	-2.06515	1.54348
26.00083	-2.06515	1.54348
26.00489	-2.04318	1.54348
26.00895	-2.04318	1.54348
26.01300	-2.06515	1.54348
26.01707	-2.06515	1.54348
26.02113	-2.06515	1.54348
26.02518	-2.06515	1.54348
26.02924	-2.06515	1.54348
26.03330	-2.06515	1.54348
26.03736	-2.06515	1.54348
26.04141	-2.04318	1.54348
26.04547	-2.06515	1.54348
26.04953	-2.06515	1.54348
26.05358	-2.06515	1.54348
26.05764	-2.06515	1.54348
26.06170	-2.06515	1.54348
26.06576	-2.06515	1.54348
26.06982	-2.04318	1.54348
26.07388	-2.04318	1.54348
26.07794	-2.06515	1.54348
26.08199	-2.04318	1.54348
26.08605	-2.04318	1.54348
26.09035	-2.04318	1.54348
26.09440	-2.04318	1.54348
26.09846	-2.04318	1.54348
26.10251	-2.04318	1.54348
26.10657	-2.04318	1.54348
26.11063	-2.04318	1.54348
26.11469	-2.04318	1.54348
26.11875	-2.04318	1.54348
26.12281	-2.04318	1.54348
26.12687	-2.04318	1.54348
26.13092	-2.04318	1.54348
26.13498	-2.04318	1.54348
26.13904	-2.04318	1.54348
26.14310	-2.04318	1.54348
26.14716	-2.04318	1.54348
26.15121	-2.02121	1.54348
26.15527	-2.02121	1.54348
26.15933	-2.04318	1.54348
26.16338	-2.02121	1.54348
26.16744	-2.02121	1.54348
26.17150	-2.02121	1.54348
26.17556	-2.02121	1.54348
26.17961	-2.02121	1.54348
26.18367	-2.02121	1.54348
26.18773	-1.99923	1.54348
26.19202	-1.99923	1.54348
26.19607	-1.99923	1.54348
26.20014	-1.99923	1.54348
26.20420	-1.99923	1.54348
26.20826	-1.99923	1.54348
26.21232	-1.99923	1.54348
26.21638	-1.97726	1.54348
26.22045	-1.97726	1.54348
26.22451	-1.97726	1.54348
26.22857	-1.97726	1.54348
26.23262	-1.97726	1.54348
26.23668	-1.97726	1.54348
26.24074	-1.95529	1.54348
26.24480	-1.95529	1.54348
26.24885	-1.95529	1.54348
26.25291	-1.95529	1.54348
26.25697	-1.95529	1.54348
26.26102	-1.93332	1.54348
26.26508	-1.93332	1.54348
26.26914	-1.93332	1.54348
26.27319	-1.93332	1.54348
26.27725	-1.93332	1.54348
26.28131	-1.91134	1.54348
26.28537	-1.91134	1.54348
26.28943	-1.91134	1.54348
26.29373	-1.91134	1.54348
26.29779	-1.91134	1.54348
26.30185	-1.88937	1.54348
26.30591	-1.88937	1.54348
26.30997	-1.88937	1.54348
26.31402	-1.88937	1.54348
26.31808	-1.88937	1.54348
26.32215	-1.88937	1.54348
26.32621	-1.86740	1.54348
26.33027	-1.86740	1.54348
26.33432	-1.86740	1.54348
26.33838	-1.86740	1.54348
26.34244	-1.84543	1.54348
26.34650	-1.84543	1.54348
26.35052	-1.84543	1.54348
26.35457	-1.84543	1.54348
26.35863	-1.84543	1.54348
26.36269	-1.84543	1.54348
26.36674	-1.82345	1.54348
26.37080	-1.82345	1.54348
26.37486	-1.82345	1.54348
26.37892	-1.82345	1.54348
26.38297	-1.82345	1.54348
26.38703	-1.82345	1.54348
26.39109	-1.82345	1.54348
26.39538	-1.80148	1.54348
26.39944	-1.80148	1.54348
26.40350	-1.80148	1.54348
26.40755	-1.80148	1.54348
26.41161	-1.77951	1.54348
26.41567	-1.77951	1.54348
26.41973	-1.77951	1.54348
26.42379	-1.77951	1.54348
26.42785	-1.77951	1.54348
26.43191	-1.77951	1.54348
26.43597	-1.77951	1.54348
26.44002	-1.75754	1.54348
26.44408	-1.75754	1.54348
26.44814	-1.75754	1.54348
26.45220	-1.75754	1.54348
26.45625	-1.75754	1.54348
26.46031	-1.75754	1.54348
26.46437	-1.73556	1.54348
26.46842	-1.73556	1.54348
26.47248	-1.73556	1.54348
26.47654	-1.73556	1.54348
26.48059	-1.73556	1.54348
26.48465	-1.73556	1.54348
26.48871	-1.71359	1.54348
26.49277	-1.71359	1.54348
26.49705	-1.71359	1.54348
26.50112	-1.71359	1.54348
26.50517	-1.71359	1.54348
26.50923	-1.71359	1.54348
26.51329	-1.69162	1.54348
26.51734	-1.69162	1.54348
26.52140	-1.69162	1.54348
26.52547	-1.69162	1.54348
26.52953	-1.69162	1.54348
26.53359	-1.69162	1.54348
26.53765	-1.66964	1.54348
26.54170	-1.69162	1.54348
26.54576	-1.69162	1.54348
26.54982	-1.69162	1.54348
26.55388	-1.66964	1.54348
26.55793	-1.69162	1.54348
26.56199	-1.66964	1.54348
26.56605	-1.66964	1.54348
26.57010	-1.66964	1.54348
26.57416	-1.66964	1.54348
26.57822	-1.66964	1.54348
26.58228	-1.66964	1.54348
26.58633	-1.66964	1.54348
26.59039	-1.66964	1.54348
26.59445	-1.64767	1.54348
26.59875	-1.64767	1.54348
26.60281	-1.64767	1.54348
26.60686	-1.64767	1.54348
26.61092	-1.64767	1.54348
26.61498	-1.66964	1.54348
26.61904	-1.64767	1.54348
26.62309	-1.64767	1.54348
26.62715	-1.64767	1.54348
26.63121	-1.64767	1.54348
26.63527	-1.64767	1.54348
26.63933	-1.64767	1.54348
26.64339	-1.64767	1.54348
26.64744	-1.64767	1.54348
26.65150	-1.64767	1.54348
26.65556	-1.64767	1.54348
26.65961	-1.64767	1.54348
26.66367	-1.64767	1.54348
26.66773	-1.64767	1.54348
26.67178	-1.64767	1.54348
26.67584	-1.64767	1.54348
26.67990	-1.64767	1.54348
26.68396	-1.64767	1.54348
26.68801	-1.64767	1.54348
26.69208	-1.64767	1.54348
26.69613	-1.64767	1.54348
26.70042	-1.64767	1.54348
26.70448	-1.64767	1.54348
26.70854	-1.64767	1.54348
26.71259	-1.64767	1.54348
26.71665	-1.64767	1.54348
26.72071	-1.64767	1.54348
26.72476	-1.62570	1.54348
26.72883	-1.64767	1.54348
26.73289	-1.64767	1.54348
26.73695	-1.64767	1.54348
26.74101	-1.64767	1.54348
26.74506	-1.64767	1.54348
26.74912	-1.64767	1.54348
26.75318	-1.64767	1.54348
26.75724	-1.64767	1.54348
26.76129	-1.66964	1.54348
26.76535	-1.64767	1.54348
26.76941	-1.64767	1.54348
26.77346	-1.64767	1.54348
26.77752	-1.66964	1.54348
26.78158	-1.66964	1.54348
26.78564	-1.66964	1.54348
26.78969	-1.64767	1.54348
26.79375	-1.66964	1.54348
26.79781	-1.66964	1.54348
26.80209	-1.66964	1.54348
26.80615	-1.66964	1.54348
26.81021	-1.66964	1.54348
26.81426	-1.66964	1.54348
26.81832	-1.66964	1.54348
26.82238	-1.66964	1.54348
26.82643	-1.66964	1.54348
26.83051	-1.66964	1.54348
26.83457	-1.66964	1.54348
26.83863	-1.66964	1.54348
26.84268	-1.66964	1.54348
26.84674	-1.66964	1.54348
26.85080	-1.66964	1.54348
26.85485	-1.66964	1.54348
26.85891	-1.69162	1.54348
26.86297	-1.69162	1.54348
26.86702	-1.69162	1.54348
26.87108	-1.69162	1.54348
26.87514	-1.69162	1.54348
26.87920	-1.69162	1.54348
26.88325	-1.69162	1.54348
26.88731	-1.69162	1.54348
26.89137	-1.71359	1.54348
26.89542	-1.69162	1.54348
26.89948	-1.71359	1.54348
26.90377	-1.71359	1.54348
26.90783	-1.71359	1.54348
26.91189	-1.71359	1.54348
26.91595	-1.71359	1.54348
26.92000	-1.71359	1.54348
26.92406	-1.71359	1.54348
26.92812	-1.71359	1.54348
26.93219	-1.71359	1.54348
26.93624	-1.71359	1.54348
26.94030	-1.71359	1.54348
26.94436	-1.73556	1.54348
26.94842	-1.73556	1.54348
26.95247	-1.73556	1.54348
26.95653	-1.73556	1.54348
26.96059	-1.73556	1.54348
26.96465	-1.73556	1.54348
26.96870	-1.73556	1.54348
26.97276	-1.73556	1.54348
26.97682	-1.73556	1.54348
26.98087	-1.73556	1.54348
26.98493	-1.73556	1.54348
26.98899	-1.73556	1.54348
26.99304	-1.73556	1.54348
26.99710	-1.73556	1.54348
27.00116	-1.73556	1.54348
27.00545	-1.75754	1.54348
27.00950	-1.75754	1.54348
27.01356	-1.75754	1.54348
27.01762	-1.75754	1.54348
27.02168	-1.75754	1.54348
27.02573	-1.75754	1.54348
27.02979	-1.75754	1.54348
27.03386	-1.75754	1.54348
27.03792	-1.75754	1.54348
27.04197	-1.75754	1.54348
27.04603	-1.75754	1.54348
27.05009	-1.75754	1.54348
27.05415	-1.75754	1.54348
27.05820	-1.75754	1.54348
27.06226	-1.75754	1.54348
27.06632	-1.75754	1.54348
27.07037	-1.75754	1.54348
27.07443	-1.75754	1.54348
27.07849	-1.75754	1.54348
27.08251	-1.75754	1.54348
27.08657	-1.77951	1.54348
27.09063	-1.75754	1.54348
27.09468	-1.77951	1.54348
27.09874	-1.75754	1.54348
27.10280	-1.75754	1.54348
27.10708	-1.75754	1.54348
27.11114	-1.77951	1.54348
27.11519	-1.77951	1.54348
27.11925	-1.77951	1.54348
27.12331	-1.77951	1.54348
27.12736	-1.75754	1.54348
27.13142	-1.77951	1.54348
27.13549	-1.75754	1.54348
27.13955	-1.75754	1.54348
27.14361	-1.77951	1.54348
27.14767	-1.77951	1.54348
27.15172	-1.75754	1.54348
27.15578	-1.77951	1.54348
27.15984	-1.77951	1.54348
27.16390	-1.77951	1.54348
27.16795	-1.77951	1.54348
27.17201	-1.77951	1.54348
27.17607	-1.77951	1.54348
27.18012	-1.75754	1.54348
27.18418	-1.75754	1.54348
27.18824	-1.77951	1.54348
27.19230	-1.77951	1.54348
27.19635	-1.75754	1.54348
27.20041	-1.77951	1.54348
27.20447	-1.75754	1.54348
27.20875	-1.75754	1.54348
27.21281	-1.77951	1.54348
27.21687	-1.77951	1.54348
27.22093	-1.77951	1.54348
27.22498	-1.77951	1.54348
27.22904	-1.77951	1.54348
27.23310	-1.77951	1.54348
27.23716	-1.75754	1.54348
27.24122	-1.77951	1.54348
27.24528	-1.77951	1.54348
27.24934	-1.75754	1.54348
27.25339	-1.75754	1.54348
27.25745	-1.75754	1.54348
27.26151	-1.75754	1.54348
27.26557	-1.75754	1.54348
27.26962	-1.75754	1.54348
27.27368	-1.75754	1.54348
27.27775	-1.75754	1.54348
27.28181	-1.75754	1.54348
27.28587	-1.75754	1.54348
27.28993	-1.75754	1.54348
27.29399	-1.75754	1.54348
27.29805	-1.75754	1.54348
27.30210	-1.75754	1.54348
27.30616	-1.75754	1.54348
27.31046	-1.75754	1.54348
27.31451	-1.75754	1.54348
27.31857	-1.75754	1.54348
27.32263	-1.75754	1.54348
27.32669	-1.75754	1.54348
27.33074	-1.75754	1.54348
27.33480	-1.75754	1.54348
27.33886	-1.75754	1.54348
27.34292	-1.75754	1.54348
27.34698	-1.75754	1.54348
27.35104	-1.73556	1.54348
27.35510	-1.75754	1.54348
27.35916	-1.75754	1.54348
27.36321	-1.75754	1.54348
27.36727	-1.73556	1.54348
27.37133	-1.75754	1.54348
27.37539	-1.73556	1.54348
27.37944	-1.73556	1.54348
27.38350	-1.73556	1.54348
27.38756	-1.73556	1.54348
27.39161	-1.73556	1.54348
27.39567	-1.73556	1.54348
27.39973	-1.75754	1.54348
27.40378	-1.73556	1.54348
27.40784	-1.73556	1.54348
27.41213	-1.73556	1.54348
27.41619	-1.73556	1.54348
27.42025	-1.73556	1.54348
27.42430	-1.73556	1.54348
27.42836	-1.73556	1.54348
27.43242	-1.73556	1.54348
27.43648	-1.73556	1.54348
27.44055	-1.73556	1.54348
27.44461	-1.73556	1.54348
27.44866	-1.73556	1.54348
27.45272	-1.73556	1.54348
27.45678	-1.73556	1.54348
27.46084	-1.73556	1.54348
27.46489	-1.73556	1.54348
27.46895	-1.73556	1.54348
27.47301	-1.71359	1.54348
27.47707	-1.71359	1.54348
27.48112	-1.71359	1.54348
27.48518	-1.71359	1.54348
27.48924	-1.71359	1.54348
27.49329	-1.71359	1.54348
27.49735	-1.71359	1.54348
27.50141	-1.71359	1.54348
27.50547	-1.71359	1.54348
27.50952	-1.71359	1.54348
27.51383	-1.71359	1.54348
27.51789	-1.71359	1.54348
27.52195	-1.71359	1.54348
27.52600	-1.71359	1.54348
27.53006	-1.71359	1.54348
27.53412	-1.71359	1.54348
27.53817	-1.71359	1.54348
27.54224	-1.71359	1.54348
27.54630	-1.71359	1.54348
27.55036	-1.71359	1.54348
27.55442	-1.71359	1.54348
27.55847	-1.71359	1.54348
27.56251	-1.71359	1.54348
27.56657	-1.71359	1.54348
27.57063	-1.71359	1.54348
27.57468	-1.69162	1.54348
27.57874	-1.71359	1.54348
27.58280	-1.71359	1.54348
27.58685	-1.71359	1.54348
27.59091	-1.69162	1.54348
27.59497	-1.69162	1.54348
27.59903	-1.71359	1.54348
27.60308	-1.69162	1.54348
27.60714	-1.71359	1.54348
27.61120	-1.71359	1.54348
27.61549	-1.71359	1.54348
27.61954	-1.69162	1.54348
27.62360	-1.69162	1.54348
27.62766	-1.71359	1.54348
27.63172	-1.71359	1.54348
27.63578	-1.71359	1.54348
27.63983	-1.71359	1.54348
27.64390	-1.69162	1.54348
27.64796	-1.71359	1.54348
27.65202	-1.69162	1.54348
27.65607	-1.69162	1.54348
27.66013	-1.71359	1.54348
27.66419	-1.71359	1.54348
27.66825	-1.71359	1.54348
27.67230	-1.69162	1.54348
27.67636	-1.71359	1.54348
27.68042	-1.71359	1.54348
27.68448	-1.69162	1.54348
27.68853	-1.71359	1.54348
27.69259	-1.69162	1.54348
27.69665	-1.69162	1.54348
27.70070	-1.71359	1.54348
27.70476	-1.69162	1.54348
27.70882	-1.69162	1.54348
27.71288	-1.71359	1.54348
27.71717	-1.69162	1.54348
27.72123	-1.69162	1.54348
27.72529	-1.71359	1.54348
27.72934	-1.71359	1.54348
27.73340	-1.71359	1.54348
27.73746	-1.71359	1.54348
27.74152	-1.71359	1.54348
27.74558	-1.71359	1.54348
27.74964	-1.71359	1.54348
27.75370	-1.71359	1.54348
27.75776	-1.71359	1.54348
27.76182	-1.71359	1.54348
27.76588	-1.71359	1.54348
27.76994	-1.73556	1.54348
27.77400	-1.71359	1.54348
27.77805	-1.73556	1.54348
27.78211	-1.71359	1.54348
27.78617	-1.71359	1.54348
27.79023	-1.71359	1.54348
27.79428	-1.73556	1.54348
27.79834	-1.73556	1.54348
27.80240	-1.73556	1.54348
27.80646	-1.73556	1.54348
27.81051	-1.73556	1.54348
27.81457	-1.73556	1.54348
27.81886	-1.73556	1.54348
27.82292	-1.73556	1.54348
27.82697	-1.75754	1.54348
27.83103	-1.75754	1.54348
27.83509	-1.75754	1.54348
27.83915	-1.75754	1.54348
27.84320	-1.75754	1.54348
27.84727	-1.75754	1.54348
27.85133	-1.75754	1.54348
27.85538	-1.75754	1.54348
27.85944	-1.77951	1.54348
27.86350	-1.77951	1.54348
27.86756	-1.77951	1.54348
27.87161	-1.77951	1.54348
27.87567	-1.77951	1.54348
27.87973	-1.77951	1.54348
27.88378	-1.77951	1.54348
27.88784	-1.77951	1.54348
27.89190	-1.77951	1.54348
27.89596	-1.80148	1.54348
27.90001	-1.80148	1.54348
27.90407	-1.80148	1.54348
27.90813	-1.80148	1.54348
27.91218	-1.80148	1.54348
27.91624	-1.82345	1.54348
27.92053	-1.82345	1.54348
27.92459	-1.82345	1.54348
27.92864	-1.82345	1.54348
27.93270	-1.82345	1.54348
27.93676	-1.82345	1.54348
27.94082	-1.82345	1.54348
27.94487	-1.82345	1.54348
27.94894	-1.84543	1.54348
27.95300	-1.84543	1.54348
27.95706	-1.84543	1.54348
27.96111	-1.84543	1.54348
27.96517	-1.84543	1.54348
27.96923	-1.84543	1.54348
27.97329	-1.86740	1.54348
27.97734	-1.86740	1.54348
27.98140	-1.86740	1.54348
27.98546	-1.86740	1.54348
27.98951	-1.86740	1.54348
27.99357	-1.88937	1.54348
27.99763	-1.88937	1.54348
28.00169	-1.88937	1.54348
28.00574	-1.88937	1.54348
28.00980	-1.88937	1.54348
28.01386	-1.88937	1.54348
28.01791	-1.88937	1.54348
28.02220	-1.88937	1.54348
28.02626	-1.88937	1.54348
28.03031	-1.91134	1.54348
28.03437	-1.91134	1.54348
28.03843	-1.91134	1.54348
28.04249	-1.91134	1.54348
28.04651	-1.91134	1.54348
28.05058	-1.91134	1.54348
28.05464	-1.91134	1.54348
28.05870	-1.91134	1.54348
28.06275	-1.91134	1.54348
28.06681	-1.91134	1.54348
28.07087	-1.93332	1.54348
28.07493	-1.93332	1.54348
28.07898	-1.93332	1.54348
28.08304	-1.93332	1.54348
28.08710	-1.93332	1.54348
28.09115	-1.93332	1.54348
28.09521	-1.95529	1.54348
28.09927	-1.93332	1.54348
28.10333	-1.95529	1.54348
28.10738	-1.95529	1.54348
28.11144	-1.95529	1.54348
28.11550	-1.95529	1.54348
28.11956	-1.95529	1.54348
28.12385	-1.95529	1.54348
28.12791	-1.95529	1.54348
28.13196	-1.95529	1.54348
28.13602	-1.95529	1.54348
28.14008	-1.97726	1.54348
28.14414	-1.95529	1.54348
28.14820	-1.95529	1.54348
28.15226	-1.97726	1.54348
28.15632	-1.97726	1.54348
28.16038	-1.97726	1.54348
28.16444	-1.97726	1.54348
28.16849	-1.97726	1.54348
28.17255	-1.97726	1.54348
28.17661	-1.97726	1.54348
28.18067	-1.99923	1.54348
28.18472	-1.97726	1.54348
28.18878	-1.99923	1.54348
28.19284	-1.99923	1.54348
28.19689	-1.99923	1.54348
28.20095	-1.97726	1.54348
28.20501	-1.99923	1.54348
28.20907	-1.99923	1.54348
28.21312	-1.99923	1.54348
28.21719	-1.99923	1.54348
28.22125	-1.99923	1.54348
28.22554	-1.99923	1.54348
28.22960	-1.99923	1.54348
28.23365	-1.99923	1.54348
28.23771	-1.99923	1.54348
28.24177	-1.99923	1.54348
28.24582	-1.99923	1.54348
28.24988	-1.99923	1.54348
28.25395	-1.99923	1.54348
28.25801	-1.99923	1.54348
28.26207	-1.99923	1.54348
28.26613	-1.99923	1.54348
28.27018	-2.02121	1.54348
28.27424	-2.02121	1.54348
28.27830	-2.02121	1.54348
28.28236	-1.99923	1.54348
28.28642	-2.02121	1.54348
28.29048	-2.02121	1.54348
28.29451	-2.02121	1.54348
28.29857	-2.02121	1.54348
28.30263	-2.02121	1.54348
28.30669	-1.99923	1.54348
28.31074	-1.99923	1.54348
28.31480	-2.02121	1.54348
28.31886	-2.02121	1.54348
28.32291	-2.02121	1.54348
28.32720	-2.02121	1.54348
28.33126	-2.02121	1.54348
28.33531	-1.99923	1.54348
28.33937	-2.02121	1.54348
28.34343	-2.02121	1.54348
28.34749	-2.02121	1.54348
28.35154	-2.02121	1.54348
28.35558	-2.02121	1.54348
28.35963	-2.02121	1.54348
28.36369	-2.02121	1.54348
28.36775	-2.02121	1.54348
28.37181	-2.02121	1.54348
28.37587	-1.99923	1.54348
28.37992	-2.02121	1.54348
28.38398	-1.99923	1.54348
28.38804	-1.99923	1.54348
28.39210	-2.02121	1.54348
28.39615	-2.02121	1.54348
28.40021	-2.02121	1.54348
28.40427	-2.02121	1.54348
28.40833	-2.02121	1.54348
28.41238	-1.99923	1.54348
28.41644	-2.02121	1.54348
28.42051	-2.02121	1.54348
28.42456	-2.02121	1.54348
28.42885	-2.02121	1.54348
28.43291	-2.02121	1.54348
28.43697	-2.02121	1.54348
28.44103	-2.02121	1.54348
28.44508	-2.02121	1.54348
28.44914	-2.02121	1.54348
28.45320	-2.02121	1.54348
28.45727	-2.02121	1.54348
28.46132	-2.02121	1.54348
28.46538	-2.02121	1.54348
28.46944	-2.02121	1.54348
28.47350	-2.02121	1.54348
28.47755	-2.02121	1.54348
28.48161	-2.02121	1.54348
28.48567	-2.02121	1.54348
28.48972	-2.02121	1.54348
28.49378	-2.02121	1.54348
28.49784	-2.02121	1.54348
28.50189	-2.02121	1.54348
28.50595	-2.02121	1.54348
28.51001	-2.02121	1.54348
28.51407	-2.02121	1.54348
28.51812	-2.02121	1.54348
28.52218	-2.02121	1.54348
28.52624	-2.02121	1.54348
28.53054	-2.02121	1.54348
28.53460	-2.02121	1.54348
28.53866	-2.02121	1.54348
28.54271	-2.02121	1.54348
28.54677	-2.02121	1.54348
28.55083	-2.02121	1.54348
28.55488	-2.02121	1.54348
28.55895	-2.02121	1.54348
28.56300	-2.02121	1.54348
28.56706	-2.02121	1.54348
28.57112	-2.02121	1.54348
28.57518	-2.02121	1.54348
28.57924	-2.02121	1.54348
28.58329	-2.02121	1.54348
28.58735	-2.02121	1.54348
28.59141	-2.02121	1.54348
28.59547	-2.02121	1.54348
28.59952	-2.02121	1.54348
28.60358	-2.04318	1.54348
28.60764	-2.02121	1.54348
28.61169	-2.02121	1.54348
28.61575	-2.02121	1.54348
28.61981	-2.04318	1.54348
28.62388	-2.04318	1.54348
28.62794	-2.02121	1.54348
28.63222	-2.02121	1.54348
28.63628	-2.02121	1.54348
28.64034	-2.02121	1.54348
28.64439	-2.02121	1.54348
28.64845	-2.02121	1.54348
28.65251	-2.02121	1.54348
28.65657	-2.02121	1.54348
28.66063	-2.02121	1.54348
28.66469	-2.02121	1.54348
28.66875	-2.04318	1.54348
28.67281	-2.04318	1.54348
28.67687	-2.04318	1.54348
28.68092	-2.04318	1.54348
28.68498	-2.04318	1.54348
28.68904	-2.02121	1.54348
28.69309	-2.04318	1.54348
28.69715	-2.04318	1.54348
28.70121	-2.04318	1.54348
28.70527	-2.04318	1.54348
28.70932	-2.04318	1.54348
28.71338	-2.04318	1.54348
28.71744	-2.04318	1.54348
28.72150	-2.04318	1.54348
28.72556	-2.04318	1.54348
28.72961	-2.04318	1.54348
28.73390	-2.04318	1.54348
28.73796	-2.04318	1.54348
28.74202	-2.04318	1.54348
28.74607	-2.04318	1.54348
28.75013	-2.04318	1.54348
28.75419	-2.04318	1.54348
28.75824	-2.04318	1.54348
28.76231	-2.04318	1.54348
28.76637	-2.04318	1.54348
28.77043	-2.04318	1.54348
28.77449	-2.04318	1.54348
28.77851	-2.04318	1.54348
28.78257	-2.04318	1.54348
28.78663	-2.04318	1.54348
28.79068	-2.04318	1.54348
28.79474	-2.04318	1.54348
28.79880	-2.04318	1.54348
28.80286	-2.04318	1.54348
28.80691	-2.04318	1.54348
28.81097	-2.06515	1.54348
28.81503	-2.06515	1.54348
28.81908	-2.04318	1.54348
28.82314	-2.06515	1.54348
28.82720	-2.06515	1.54348
28.83126	-2.06515	1.54348
28.83554	-2.04318	1.54348
28.83960	-2.04318	1.54348
28.84365	-2.06515	1.54348
28.84771	-2.06515	1.54348
28.85177	-2.06515	1.54348
28.85582	-2.06515	1.54348
28.85988	-2.06515	1.54348
28.86395	-2.06515	1.54348
28.86801	-2.06515	1.54348
28.87207	-2.06515	1.54348
28.87612	-2.06515	1.54348
28.88018	-2.06515	1.54348
28.88424	-2.06515	1.54348
28.88829	-2.08713	1.54348
28.89235	-2.08713	1.54348
28.89641	-2.06515	1.54348
28.90047	-2.06515	1.54348
28.90452	-2.08713	1.54348
28.90858	-2.08713	1.54348
28.91264	-2.08713	1.54348
28.91669	-2.08713	1.54348
28.92075	-2.08713	1.54348
28.92481	-2.08713	1.54348
28.92887	-2.08713	1.54348
28.93293	-2.08713	1.54348
28.93722	-2.08713	1.54348
28.94127	-2.08713	1.54348
28.94533	-2.08713	1.54348
28.94939	-2.08713	1.54348
28.95345	-2.10910	1.54348
28.95750	-2.10910	1.54348
28.96156	-2.10910	1.54348
28.96563	-2.10910	1.54348
28.96969	-2.10910	1.54348
28.97376	-2.10910	1.54348
28.97781	-2.10910	1.54348
28.98187	-2.10910	1.54348
28.98593	-2.10910	1.54348
28.98998	-2.10910	1.54348
28.99404	-2.13107	1.54348
28.99810	-2.13107	1.54348
29.00216	-2.13107	1.54348
29.00622	-2.13107	1.54348
29.01028	-2.13107	1.54348
29.01434	-2.13107	1.54348
29.01839	-2.13107	1.54348
29.02245	-2.13107	1.54348
29.02651	-2.13107	1.54348
29.03057	-2.15304	1.54348
29.03463	-2.15304	1.54348
29.03892	-2.15304	1.54348
29.04297	-2.15304	1.54348
29.04703	-2.15304	1.54348
29.05109	-2.15304	1.54348
29.05515	-2.17502	1.54348
29.05920	-2.17502	1.54348
29.06326	-2.17502	1.54348
29.06732	-2.17502	1.54348
29.07138	-2.17502	1.54348
29.07544	-2.17502	1.54348
29.07949	-2.17502	1.54348
29.08355	-2.19699	1.54348
29.08761	-2.19699	1.54348
29.09167	-2.19699	1.54348
29.09572	-2.19699	1.54348
29.09978	-2.19699	1.54348
29.10384	-2.21896	1.54348
29.10789	-2.21896	1.54348
29.11195	-2.21896	1.54348
29.11601	-2.21896	1.54348
29.12007	-2.21896	1.54348
29.12412	-2.21896	1.54348
29.12818	-2.24093	1.54348
29.13224	-2.24093	1.54348
29.13630	-2.24093	1.54348
29.14060	-2.24093	1.54348
29.14466	-2.24093	1.54348
29.14872	-2.24093	1.54348
29.15278	-2.26291	1.54348
29.15684	-2.26291	1.54348
29.16089	-2.26291	1.54348
29.16495	-2.26291	1.54348
29.16902	-2.26291	1.54348
29.17308	-2.26291	1.54348
29.17714	-2.26291	1.54348
29.18120	-2.28488	1.54348
29.18525	-2.28488	1.54348
29.18931	-2.28488	1.54348
29.19337	-2.28488	1.54348
29.19743	-2.28488	1.54348
29.20148	-2.28488	1.54348
29.20554	-2.30685	1.54348
29.20960	-2.30685	1.54348
29.21365	-2.30685	1.54348
29.21771	-2.30685	1.54348
29.22177	-2.30685	1.54348
29.22583	-2.32882	1.54348
29.22988	-2.32882	1.54348
29.23395	-2.32882	1.54348
29.23800	-2.32882	1.54348
29.24229	-2.32882	1.54348
29.24635	-2.35080	1.54348
29.25041	-2.35080	1.54348
29.25446	-2.35080	1.54348
29.25851	-2.35080	1.54348
29.26257	-2.37277	1.54348
29.26663	-2.37277	1.54348
29.27071	-2.37277	1.54348
29.27476	-2.37277	1.54348
29.27882	-2.39474	1.54348
29.28288	-2.39474	1.54348
29.28694	-2.39474	1.54348
29.29100	-2.39474	1.54348
29.29506	-2.39474	1.54348
29.29912	-2.39474	1.54348
29.30317	-2.41672	1.54348
29.30723	-2.41672	1.54348
29.31129	-2.41672	1.54348
29.31535	-2.41672	1.54348
29.31940	-2.43869	1.54348
29.32346	-2.43869	1.54348
29.32752	-2.43869	1.54348
29.33157	-2.43869	1.54348
29.33563	-2.43869	1.54348
29.33969	-2.43869	1.54348
29.34397	-2.46066	1.54348
29.34803	-2.46066	1.54348
29.35209	-2.46066	1.54348
29.35615	-2.46066	1.54348
29.36020	-2.48263	1.54348
29.36426	-2.48263	1.54348
29.36832	-2.48263	1.54348
29.37238	-2.48263	1.54348
29.37644	-2.48263	1.54348
29.38050	-2.48263	1.54348
29.38456	-2.50461	1.54348
29.38862	-2.50461	1.54348
29.39267	-2.50461	1.54348
29.39673	-2.50461	1.54348
29.40079	-2.50461	1.54348
29.40485	-2.50461	1.54348
29.40890	-2.50461	1.54348
29.41296	-2.50461	1.54348
29.41702	-2.52658	1.54348
29.42107	-2.52658	1.54348
29.42513	-2.52658	1.54348
29.42919	-2.54855	1.54348
29.43325	-2.54855	1.54348
29.43730	-2.52658	1.54348
29.44136	-2.54855	1.54348
29.44565	-2.54855	1.54348
29.44970	-2.54855	1.54348
29.45376	-2.54855	1.54348
29.45782	-2.57052	1.54348
29.46188	-2.57052	1.54348
29.46593	-2.57052	1.54348
29.46999	-2.57052	1.54348
29.47406	-2.57052	1.54348
29.47812	-2.57052	1.54348
29.48218	-2.57052	1.54348
29.48624	-2.57052	1.54348
29.49029	-2.57052	1.54348
29.49435	-2.59250	1.54348
29.49841	-2.59250	1.54348
29.50247	-2.59250	1.54348
29.50651	-2.59250	1.54348
29.51057	-2.59250	1.54348
29.51463	-2.59250	1.54348
29.51868	-2.59250	1.54348
29.52274	-2.59250	1.54348
29.52680	-2.59250	1.54348
29.53085	-2.61447	1.54348
29.53492	-2.61447	1.54348
29.53898	-2.61447	1.54348
29.54303	-2.61447	1.54348
29.54732	-2.61447	1.54348
29.55137	-2.61447	1.54348
29.55543	-2.61447	1.54348
29.55949	-2.63644	1.54348
29.56355	-2.63644	1.54348
29.56760	-2.63644	1.54348
29.57166	-2.63644	1.54348
29.57572	-2.63644	1.54348
29.57978	-2.63644	1.54348
29.58384	-2.63644	1.54348
29.58790	-2.63644	1.54348
29.59196	-2.63644	1.54348
29.59601	-2.63644	1.54348
29.60007	-2.65841	1.54348
29.60413	-2.65841	1.54348
29.60819	-2.65841	1.54348
29.61224	-2.65841	1.54348
29.61630	-2.65841	1.54348
29.62036	-2.65841	1.54348
29.62441	-2.65841	1.54348
29.62847	-2.65841	1.54348
29.63253	-2.65841	1.54348
29.63659	-2.68039	1.54348
29.64065	-2.68039	1.54348
29.64471	-2.68039	1.54348
29.64899	-2.68039	1.54348
29.65305	-2.68039	1.54348
29.65711	-2.68039	1.54348
29.66117	-2.68039	1.54348
29.66522	-2.68039	1.54348
29.66928	-2.68039	1.54348
29.67334	-2.68039	1.54348
29.67741	-2.68039	1.54348
29.68147	-2.68039	1.54348
29.68552	-2.68039	1.54348
29.68958	-2.68039	1.54348
29.69364	-2.68039	1.54348
29.69770	-2.68039	1.54348
29.70175	-2.68039	1.54348
29.70581	-2.68039	1.54348
29.70987	-2.68039	1.54348
29.71393	-2.68039	1.54348
29.71798	-2.68039	1.54348
29.72204	-2.68039	1.54348
29.72610	-2.68039	1.54348
29.73015	-2.68039	1.54348
29.73421	-2.68039	1.54348
29.73827	-2.68039	1.54348
29.74233	-2.68039	1.54348
29.74639	-2.68039	1.54348
29.75068	-2.68039	1.54348
29.75474	-2.68039	1.54348
29.75880	-2.68039	1.54348
29.76285	-2.68039	1.54348
29.76691	-2.68039	1.54348
29.77097	-2.68039	1.54348
29.77502	-2.68039	1.54348
29.77909	-2.68039	1.54348
29.78314	-2.68039	1.54348
29.78720	-2.68039	1.54348
29.79126	-2.65841	1.54348
29.79532	-2.65841	1.54348
29.79937	-2.65841	1.54348
29.80343	-2.65841	1.54348
29.80749	-2.65841	1.54348
29.81154	-2.65841	1.54348
29.81560	-2.65841	1.54348
29.81966	-2.65841	1.54348
29.82371	-2.65841	1.54348
29.82777	-2.65841	1.54348
29.83183	-2.63644	1.54348
29.83589	-2.65841	1.54348
29.83994	-2.65841	1.54348
29.84400	-2.63644	1.54348
29.84806	-2.63644	1.54348
29.85234	-2.63644	1.54348
29.85640	-2.63644	1.54348
29.86046	-2.61447	1.54348
29.86452	-2.61447	1.54348
29.86857	-2.61447	1.54348
29.87263	-2.61447	1.54348
29.87669	-2.61447	1.54348
29.88075	-2.61447	1.54348
29.88481	-2.61447	1.54348
29.88887	-2.59250	1.54348
29.89293	-2.59250	1.54348
29.89698	-2.59250	1.54348
29.90104	-2.59250	1.54348
29.90510	-2.57052	1.54348
29.90916	-2.57052	1.54348
29.91321	-2.57052	1.54348
29.91727	-2.57052	1.54348
29.92133	-2.54855	1.54348
29.92538	-2.54855	1.54348
29.92944	-2.54855	1.54348
29.93350	-2.54855	1.54348
29.93755	-2.54855	1.54348
29.94161	-2.52658	1.54348
29.94567	-2.52658	1.54348
29.94973	-2.52658	1.54348
29.95400	-2.50461	1.54348
29.95805	-2.50461	1.54348
29.96211	-2.50461	1.54348
29.96617	-2.50461	1.54348
29.97023	-2.50461	1.54348
29.97428	-2.48263	1.54348
29.97834	-2.48263	1.54348
29.98241	-2.46066	1.54348
29.98647	-2.46066	1.54348
29.99051	-2.46066	1.54348
29.99457	-2.46066	1.54348
29.99863	-2.43869	1.54348
