Time (s)   Thrust (N)   RPM
0.00508	3.01944	1640.62500
0.11808	0.35611	1645.50700
0.19640	0.35663	1635.74200
0.23112	0.35988	1611.92600
0.26587	0.35815	1645.50700
0.30062	0.35480	1650.39000
0.33536	0.35236	1650.39000
0.37012	0.35529	1650.39000
0.40488	0.35749	1650.39000
0.43963	0.35935	1645.50700
0.47438	0.35601	1640.62500
0.50913	0.35596	1645.50700
0.54388	0.35784	1611.92600
0.57863	0.35503	1645.50700
0.61338	0.35748	1645.50700
0.64813	0.35772	1640.62500
0.68289	0.35871	1640.62500
0.71764	0.35676	1645.50700
0.75240	0.35571	1650.39000
0.78714	0.35464	1645.50700
0.82190	0.35483	1645.50700
0.85666	0.35874	1650.39000
0.89140	0.35951	1650.39000
0.92617	0.35801	1650.39000
0.96091	0.35783	1650.39000
0.99567	0.35565	1650.39000
1.03041	0.35445	1645.50700
1.06517	0.35693	1650.39000
1.09992	0.35851	1650.39000
1.13467	0.35959	1645.50700
1.16943	0.35720	1650.39000
1.20418	0.35376	1650.39000
1.23894	0.35256	1645.50700
1.27370	0.35542	1645.50700
1.30844	0.35621	1645.50700
1.34319	0.35889	1650.39000
1.37795	0.35850	1650.39000
1.41270	0.35750	1640.62500
1.44745	0.35359	1645.50700
1.48220	0.35501	1650.39000
1.51696	0.35800	1650.39000
1.55171	0.35868	1650.39000
1.58647	0.35870	1655.27300
1.62121	0.35636	1650.39000
1.65597	0.35561	1650.39000
1.69072	0.35986	1650.39000
1.76936	0.36138	1645.50700
1.80406	0.35828	1650.39000
1.83884	0.35481	1645.50700
1.87360	0.35336	1616.70900
1.90834	0.35409	1650.39000
1.94310	0.35664	1645.50700
1.97785	0.35890	1650.39000
2.01260	0.35659	1645.50700
2.04736	0.35504	1655.27300
2.08210	0.36280	1650.39000
2.16138	0.35960	1650.39000
2.19612	0.35791	1650.39000
2.23087	0.35690	1650.39000
2.26563	0.35495	1645.50700
2.30038	0.35520	1645.50700
2.33513	0.35615	1645.50700
2.36989	0.35849	1645.50700
2.40464	0.36161	1645.50700
2.43939	0.36032	1645.50700
2.47416	0.35876	1650.39000
2.50890	0.35532	1650.39000
2.54366	0.35520	1655.27300
2.57840	0.35866	1645.50700
2.61316	0.35989	1650.39000
2.64791	0.35919	1650.39000
2.68266	0.36058	1655.27300
2.71742	0.36028	1650.39000
2.75216	0.35671	1621.49200
2.78692	0.35712	1650.39000
2.82168	0.36002	1650.39000
2.85643	0.36336	1650.39000
2.89118	0.36208	1621.49200
2.92593	0.35983	1616.70900
2.96069	0.35524	1650.39000
2.99544	0.35496	1650.39000
3.03020	0.35886	1645.50700
3.06494	0.35967	1645.50700
3.09970	0.36227	1645.50700
3.13445	0.35976	1645.50700
3.16921	0.35851	1650.39000
3.20396	0.35719	1645.50700
3.23872	0.35504	1650.39000
3.27347	0.36141	1645.50700
3.30821	0.36258	1616.70900
3.34297	0.36162	1650.39000
3.37772	0.35735	1650.39000
3.41247	0.35748	1650.39000
3.44722	0.35824	1650.39000
3.48197	0.35814	1650.39000
3.51673	0.36110	1650.39000
3.55148	0.36158	1650.39000
3.58624	0.36027	1650.39000
3.62099	0.36037	1650.39000
3.65574	0.35824	1645.50700
3.69049	0.36339	1655.27300
3.76929	0.35820	1650.39000
3.80403	0.35760	1650.39000
3.83879	0.35864	1650.39000
3.87354	0.35622	1645.50700
3.90829	0.35846	1645.50700
3.94305	0.36248	1645.50700
3.97780	0.36330	1650.39000
4.01255	0.36171	1645.50700
4.04731	0.36078	1616.70900
4.08205	0.35952	1640.62500
4.11681	0.35969	1640.62500
4.15158	0.36022	1650.39000
4.18631	0.36231	1645.50700
4.22107	0.36473	1645.50700
4.25583	0.36191	1650.39000
4.29058	0.35839	1650.39000
4.32533	0.35757	1650.39000
4.36009	0.35921	1645.50700
4.39484	0.36268	1645.50700
4.42959	0.36155	1645.50700
4.46434	0.36011	1650.39000
4.49909	0.36035	1645.50700
4.53385	0.35853	1645.50700
4.56860	0.36140	1650.39000
4.60336	0.36181	1650.39000
4.63812	0.36360	1645.50700
4.67286	0.36368	1645.50700
4.70761	0.36826	1640.62500
4.74235	0.36142	1645.50700
4.82115	0.36615	1607.14200
4.85591	0.36359	1645.50700
4.89065	0.36142	1645.50700
4.92540	0.36098	1645.50700
4.96016	0.35811	1640.62500
4.99491	0.36133	1640.62500
5.02966	0.36330	1640.62500
5.06441	0.36542	1645.50700
5.09917	0.36388	1645.50700
5.13392	0.36033	1645.50700
5.16867	0.35833	1645.50700
5.20343	0.35973	1645.50700
5.23819	0.35947	1645.50700
5.27294	0.36457	1645.50700
5.30769	0.36281	1650.39000
5.34244	0.36016	1640.62500
5.37719	0.35954	1645.50700
5.41194	0.35748	1640.62500
5.44669	0.35883	1640.62500
5.48146	0.36378	1640.62500
5.51620	0.36465	1645.50700
5.55095	0.36286	1611.92600
5.58571	0.36127	1645.50700
5.62047	0.35826	1640.62500
5.65522	0.36079	1645.50700
5.68998	0.36291	1645.50700
5.72472	0.36343	1645.50700
5.75947	0.36321	1645.50700
5.79423	0.35908	1645.50700
5.82897	0.35864	1645.50700
5.86373	0.35765	1645.50700
5.89848	0.35963	1616.70900
5.93323	0.36199	1650.39000
5.96798	0.36108	1645.50700
6.00315	0.36564	1650.39000
6.03757	0.36095	1645.50700
6.11588	0.36293	1650.39000
6.15062	0.35936	1650.39000
6.18536	0.35999	1650.39000
6.22012	0.35694	1611.92600
6.25487	0.35535	1645.50700
6.28963	0.36070	1645.50700
6.32438	0.36171	1640.62500
6.35914	0.36524	1640.62500
6.39389	0.36309	1645.50700
6.42863	0.36080	1640.62500
6.46339	0.35653	1640.62500
6.49814	0.36241	1645.50700
6.53289	0.36261	1616.70900
6.56765	0.36475	1645.50700
6.60240	0.36379	1645.50700
6.63715	0.36072	1650.39000
6.67191	0.35893	1645.50700
6.70666	0.35822	1645.50700
6.74142	0.36287	1645.50700
6.77616	0.36250	1645.50700
6.81091	0.36231	1645.50700
6.84566	0.35947	1640.62500
6.88041	0.35704	1645.50700
6.91516	0.35783	1645.50700
6.94992	0.35792	1640.62500
6.98467	0.36188	1645.50700
7.01942	0.36539	1645.50700
7.05417	0.36194	1645.50700
7.08893	0.36172	1616.70900
7.12368	0.35915	1645.50700
7.15843	0.35845	1645.50700
7.19318	0.36145	1645.50700
7.22794	0.36403	1645.50700
7.26268	0.36315	1645.50700
7.29744	0.36168	1607.14200
7.33220	0.36099	1645.50700
7.36694	0.35780	1650.39000
7.40169	0.35916	1650.39000
7.43644	0.35979	1645.50700
7.47119	0.36119	1645.50700
7.50596	0.36118	1650.39000
7.54070	0.35843	1640.62500
7.57546	0.35573	1640.62500
7.61020	0.35828	1640.62500
7.64495	0.36046	1611.92600
7.67971	0.36253	1645.50700
7.71446	0.36282	1645.50700
7.74921	0.36036	1607.14200
7.78397	0.35698	1645.50700
7.81871	0.35672	1645.50700
7.85347	0.35746	1645.50700
7.88822	0.36334	1645.50700
7.92297	0.36122	1645.50700
7.95773	0.36109	1650.39000
7.99247	0.35880	1645.50700
8.02722	0.35634	1650.39000
8.06198	0.35722	1650.39000
8.09674	0.35946	1611.92600
8.13150	0.35927	1645.50700
8.16625	0.35935	1650.39000
8.20101	0.35825	1640.62500
8.23575	0.36564	1645.50700
8.27051	0.35891	1645.50700
8.34887	0.35863	1650.39000
8.38363	0.35593	1611.92600
8.41838	0.35236	1640.62500
8.45314	0.35325	1645.50700
8.48789	0.35790	1645.50700
8.52263	0.36096	1650.39000
8.55739	0.35959	1650.39000
8.59215	0.35606	1640.62500
8.62690	0.35458	1645.50700
8.66166	0.35614	1650.39000
8.69641	0.35840	1645.50700
8.73116	0.35992	1616.70900
8.76591	0.35808	1650.39000
8.80066	0.35806	1655.27300
8.83540	0.35526	1650.39000
8.87017	0.35276	1616.70900
8.90492	0.35273	1650.39000
8.93967	0.35521	1655.27300
8.97443	0.35779	1650.39000
9.00918	0.35713	1621.49200
9.04393	0.35415	1645.50700
9.07869	0.35193	1645.50700
9.11345	0.35470	1650.39000
9.14820	0.35472	1650.39000
9.18295	0.35896	1645.50700
9.21771	0.36044	1645.50700
9.25246	0.35799	1645.50700
9.28721	0.35645	1650.39000
9.32196	0.35356	1650.39000
9.35672	0.35537	1650.39000
9.39147	0.35669	1645.50700
9.42622	0.35925	1616.70900
9.46098	0.35928	1650.39000
9.49573	0.35624	1650.39000
9.53048	0.35313	1650.39000
9.56523	0.35371	1616.70900
9.59998	0.35306	1655.27300
9.63474	0.35638	1650.39000
9.66950	0.35757	1650.39000
9.70424	0.35763	1616.70900
9.73901	0.35373	1645.50700
9.77375	0.35297	1645.50700
9.80851	0.35213	1650.39000
9.84325	0.35493	1611.92600
9.87801	0.35851	1655.27300
9.91276	0.35646	1645.50700
9.94751	0.35740	1650.39000
9.98227	0.35407	1645.50700
10.06207	0.35788	1650.39000
10.09682	0.35905	1650.39000
10.13158	0.35810	1650.39000
10.16633	0.35804	1650.39000
10.20109	0.35649	1650.39000
10.23584	0.35410	1645.50700
10.27061	0.35523	1650.39000
10.30534	0.35683	1655.27300
10.34009	0.35979	1655.27300
10.37484	0.35775	1650.39000
10.40960	0.35497	1650.39000
10.44436	0.35268	1650.39000
10.47910	0.35042	1650.39000
10.51387	0.35220	1655.27300
10.54861	0.35523	1650.39000
10.58336	0.35757	1650.39000
10.61811	0.35633	1650.39000
10.65288	0.35192	1645.50700
10.68762	0.35053	1650.39000
10.72238	0.34997	1655.27300
10.75714	0.35439	1650.39000
10.79188	0.35627	1650.39000
10.82664	0.35588	1650.39000
10.86139	0.35703	1650.39000
10.89614	0.35328	1650.39000
10.93090	0.35145	1650.39000
10.96565	0.35355	1616.70900
11.00040	0.35495	1621.49200
11.03515	0.35505	1655.27300
11.06990	0.35524	1655.27300
11.10466	0.35409	1655.27300
11.13941	0.35348	1655.27300
11.17417	0.35036	1655.27300
11.20891	0.35414	1655.27300
11.24368	0.35565	1655.27300
11.27843	0.35632	1655.27300
11.31318	0.35711	1650.39000
11.34793	0.35499	1650.39000
11.38268	0.35360	1650.39000
11.41744	0.35209	1650.39000
11.45219	0.35463	1655.27300
11.48695	0.35331	1621.49200
11.52169	0.35626	1650.39000
11.55645	0.35651	1655.27300
11.59121	0.35561	1655.27300
11.62596	0.35433	1655.27300
11.66071	0.35264	1616.70900
11.69547	0.35412	1650.39000
11.73022	0.35697	1650.39000
11.76498	0.35885	1655.27300
11.79973	0.35625	1650.39000
11.83448	0.35582	1650.39000
11.86924	0.35265	1650.39000
11.90399	0.35177	1655.27300
11.93874	0.35243	1655.27300
11.97350	0.35485	1621.49200
