Time (s)   Thrust (N)   RPM
0.00025	2.45979	4004.46400
0.03326	1.75973	3345.51400
0.11290	1.53255	3156.25000
0.14764	1.33676	3014.54700
0.18238	1.18987	2771.38100
0.21714	1.05532	2661.83000
0.25190	0.94457	2573.86300
0.28664	0.87810	2447.91600
0.32140	0.79545	2356.77000
0.35616	0.74558	2268.57300
0.39092	0.69116	2235.57700
0.42568	0.64446	2145.43200
0.46043	0.60703	2132.35300
0.49518	0.57973	2058.82300
0.52994	0.55265	2043.75000
0.56469	0.52601	1962.31600
0.59944	0.50394	1954.68700
0.63420	0.49004	1926.56200
0.66895	0.47098	1918.04800
0.70371	0.45679	1851.56200
0.73846	0.44622	1865.43300
0.77321	0.43796	1804.68700
0.80797	0.43050	1817.60200
0.84273	0.41955	1803.25200
0.87749	0.41039	1784.12000
0.91225	0.40186	1769.77000
0.94700	0.39580	1760.20400
0.98175	0.39285	1745.85400
1.01649	0.38710	1741.07100
1.05125	0.38490	1731.50500
1.08600	0.37768	1757.81200
1.12076	0.37832	1717.15500
1.15551	0.37418	1707.58900
1.19028	0.37307	1702.80600
1.22502	0.37139	1702.80600
1.25978	0.37005	1693.23900
1.29454	0.36727	1723.63200
1.32929	0.36856	1728.51500
1.36405	0.36574	1718.75000
1.39880	0.36589	1678.89000
1.43356	0.36476	1713.86700
1.46831	0.36477	1708.98400
1.50306	0.36504	1674.10700
1.53782	0.36441	1708.98400
1.57258	0.36451	1674.10700
1.60732	0.36475	1704.10100
1.64208	0.36497	1704.10100
1.67684	0.36338	1699.21800
1.71159	0.36196	1699.21800
1.74634	0.36183	1704.10100
1.78109	0.36169	1694.33600
1.81585	0.35883	1699.21800
1.85061	0.35892	1664.54000
1.88535	0.36074	1694.33600
1.92012	0.36138	1664.54000
1.95487	0.35899	1699.21800
1.98963	0.36256	1659.75700
2.02438	0.36134	1699.21800
2.05913	0.36236	1664.54000
2.09389	0.35538	1694.33600
2.17244	0.35585	1689.45300
2.20720	0.35743	1659.75700
2.24196	0.36021	1694.33600
2.27672	0.36069	1684.57000
2.31147	0.35987	1659.75700
2.34622	0.35873	1694.33600
2.38099	0.36109	1689.45300
2.41573	0.36009	1664.54000
2.45049	0.35955	1689.45300
2.48524	0.35612	1654.97400
2.51999	0.35552	1689.45300
2.55475	0.35318	1689.45300
2.58950	0.35330	1654.97400
2.66931	0.35836	1689.45300
2.70405	0.35842	1689.45300
2.73880	0.35726	1654.97400
2.77356	0.35663	1654.97400
2.80832	0.35580	1694.33600
2.84307	0.35215	1654.97400
2.87784	0.35240	1659.75700
2.91258	0.35236	1694.33600
2.94734	0.35241	1689.45300
2.98209	0.35297	1654.97400
3.01685	0.35416	1694.33600
3.05160	0.35652	1689.45300
3.08636	0.35660	1659.75700
3.12111	0.35637	1684.57000
3.15587	0.35640	1689.45300
3.19062	0.35645	1659.75700
3.22539	0.35456	1689.45300
3.26014	0.35301	1689.45300
3.29490	0.35263	1659.75700
3.32965	0.35489	1689.45300
3.36441	0.35378	1689.45300
3.39917	0.35863	1654.97400
3.43393	0.35680	1694.33600
3.46867	0.35798	1689.45300
3.50344	0.35691	1650.19100
3.53818	0.35640	1684.57000
3.57294	0.35568	1684.57000
3.60770	0.35357	1650.19100
3.64245	0.35232	1684.57000
3.67720	0.35373	1689.45300
3.71195	0.35552	1654.97400
3.74671	0.35685	1654.97400
3.78147	0.35815	1684.57000
3.81623	0.35678	1684.57000
3.85098	0.35802	1659.75700
3.88570	0.35660	1689.45300
3.92050	0.35573	1689.45300
3.95525	0.35685	1654.97400
3.99000	0.35316	1689.45300
4.02477	0.35251	1689.45300
4.05953	0.35394	1659.75700
4.09428	0.35434	1689.45300
4.12903	0.35566	1694.33600
4.16379	0.35611	1689.45300
4.24216	0.35264	1654.97400
4.27692	0.35171	1689.45300
4.31168	0.35155	1694.33600
4.34643	0.35176	1659.75700
4.38119	0.35615	1694.33600
4.41594	0.35451	1684.57000
4.45070	0.35857	1654.97400
4.48545	0.36016	1689.45300
4.52021	0.35711	1694.33600
4.55496	0.35489	1654.97400
4.58972	0.35530	1684.57000
4.62448	0.35349	1689.45300
4.65924	0.35254	1689.45300
4.69399	0.35495	1650.19100
4.72875	0.35447	1689.45300
4.76351	0.35680	1689.45300
4.79828	0.35936	1650.19100
4.83303	0.36000	1684.57000
4.86777	0.35962	1689.45300
4.90253	0.35989	1654.97400
4.93728	0.35728	1689.45300
4.97203	0.35655	1689.45300
5.00679	0.35443	1654.97400
5.04155	0.35558	1689.45300
5.07631	0.35506	1689.45300
5.11106	0.35752	1684.57000
5.14582	0.35269	1650.19100
5.22428	0.35676	1689.45300
5.25902	0.35583	1689.45300
5.29378	0.35760	1654.97400
5.32854	0.35561	1689.45300
5.36329	0.35703	1694.33600
5.39804	0.35775	1650.19100
5.43280	0.36040	1689.45300
5.46756	0.36291	1689.45300
5.50230	0.36287	1659.75700
5.53706	0.36059	1689.45300
5.57182	0.35918	1694.33600
5.60658	0.35678	1659.75700
5.64133	0.35633	1694.33600
5.67608	0.35571	1694.33600
5.71083	0.35453	1654.97400
5.74559	0.35543	1689.45300
5.78035	0.35681	1689.45300
5.81510	0.36329	1694.33600
5.89569	0.36118	1689.45300
5.93043	0.35771	1659.75700
5.96519	0.35643	1694.33600
5.99994	0.35687	1694.33600
6.03510	0.35505	1755.42000
6.06949	0.74621	2741.35000
6.10423	1.23941	3148.43700
6.13897	1.57341	3396.57700
6.17371	1.82653	3602.16300
6.20847	2.01074	3739.50500
6.24322	2.16018	3874.08000
6.27797	2.27875	3957.20100
6.31272	2.35459	4004.46400
6.34747	2.41895	4084.82100
6.38223	2.47086	4093.30900
6.41698	2.50785	4082.03100
6.45173	2.53469	4098.30700
6.48649	2.55381	4124.34800
6.52124	2.56524	4140.62500
6.55599	2.57920	4160.15600
6.59076	2.58548	4166.66700
6.62550	2.59124	4144.90500
6.66025	2.59215	4173.17700
6.69502	2.60057	4179.68700
6.72976	2.60228	4186.19700
6.76454	2.60729	4122.43100
6.79927	2.60062	4179.68700
6.83402	2.59144	4144.90500
6.86878	2.60063	4189.45300
6.90352	2.60480	4186.19700
6.93829	2.60329	4179.68700
6.97305	2.59656	4189.45300
7.00779	2.59998	4182.94200
7.04255	2.59706	4218.75000
7.07731	2.61302	4192.70800
7.11206	2.60474	4135.27400
7.14681	2.60843	4189.45300
7.18156	2.59873	4122.43100
7.21632	2.60432	4186.19700
7.25109	2.60881	4154.53700
7.28581	2.60306	4182.94200
7.32057	2.60269	4182.94200
7.35532	2.59970	4186.19700
7.39009	2.60204	4186.19700
7.42483	2.60697	4179.68700
7.45958	2.60353	4199.21900
7.49435	2.61006	4125.64200
7.52908	2.60051	4179.68700
7.56385	2.60549	4179.68700
7.59860	2.60556	4179.68700
7.63337	2.61256	4205.72900
7.66810	2.61154	4122.43100
7.70286	2.60817	4186.19700
7.73762	2.60930	4125.64200
7.77239	2.61340	4186.19700
7.80712	2.61103	4125.64200
7.84189	2.60508	4148.11600
7.87665	2.61010	4182.94200
7.91139	2.61076	4119.22000
7.94614	2.60776	4176.43200
7.98091	2.60683	4176.43200
8.01566	2.60483	4182.94200
8.05040	2.60830	4144.90500
8.08517	2.60765	4119.22000
8.11991	2.60853	4182.94200
8.15468	2.60880	4176.43200
8.18943	2.60931	4179.68700
8.22417	2.60840	4179.68700
8.25894	2.60830	4151.32600
8.29364	2.60842	4182.94200
8.32845	2.60903	4125.64200
8.36321	2.61091	4176.43200
8.39797	2.60682	4179.68700
8.43271	2.60019	4119.22000
8.46747	2.60140	4141.69400
8.50223	2.59938	4179.68700
8.53699	2.60143	4179.68700
8.57175	2.60712	4179.68700
8.60650	2.60404	4122.43100
8.64125	2.60831	4179.68700
8.67601	2.60964	4148.11600
8.71077	2.60124	4179.68700
8.74552	2.60720	4176.43200
8.78028	2.60358	4122.43100
8.81503	2.60770	4179.68700
8.84979	2.60234	4125.64200
8.88454	2.60234	4186.19700
8.91930	2.60722	4176.43200
8.95407	2.60429	4122.43100
8.98882	2.60873	4179.68700
9.02358	2.60504	4179.68700
9.05834	2.60183	4154.53700
9.09309	2.60857	4179.68700
9.12784	2.60449	4179.68700
9.16260	2.60844	4176.43200
9.19736	2.60765	4119.22000
9.23212	2.60675	4179.68700
9.26686	2.60273	4212.23900
9.30161	2.60248	4186.19700
9.33637	2.60779	4182.94200
9.37112	2.60731	4128.85200
9.40588	2.60434	4186.19700
9.44064	2.61103	4179.68700
9.47539	2.60550	4141.69400
9.51015	2.60039	4125.64200
9.54491	2.60394	4186.19700
9.57966	2.60126	4125.64200
9.61442	2.60010	4189.45300
9.64917	2.60735	4182.94200
9.68393	2.60970	4151.32600
9.71868	2.60812	4186.19700
9.75344	2.60356	4182.94200
9.78821	2.59846	4182.94200
9.82295	2.60635	4119.22000
9.85772	2.60843	4186.19700
9.89246	2.60349	4154.53700
9.92723	2.60522	4189.45300
9.96198	2.59698	4132.06300
9.99674	2.60068	4182.94200
10.03149	2.60536	4128.85200
10.06625	2.60162	4160.95900
10.10099	2.60171	4135.27400
10.13575	2.59982	4189.45300
10.17051	2.60346	4128.85200
10.20525	2.59788	4189.45300
10.24002	2.60147	4128.85200
10.27477	2.60319	4218.75000
10.30953	2.60518	4189.45300
10.34430	2.59694	4189.45300
10.37903	2.59280	4189.45300
10.41380	2.59910	4132.06300
10.44855	2.60315	4195.96400
10.48330	2.60558	4154.53700
10.51805	2.59395	4192.70800
10.55281	2.59341	4132.06300
10.58756	2.59037	4186.19700
10.62231	2.59658	4132.06300
10.65706	2.60057	4186.19700
10.69184	2.59952	4160.95900
10.72658	2.59660	4192.70800
10.76133	2.60287	4195.96400
10.79610	2.60646	4138.48400
10.83085	2.60047	4192.70800
10.86561	2.60013	4135.27400
10.90037	2.59980	4151.32600
10.93511	2.60599	4132.06300
10.96987	2.60152	4192.70800
11.00463	2.59926	4189.45300
11.03939	2.60757	4189.45300
11.07413	2.59918	4164.17000
11.10888	2.60603	4132.06300
11.14365	2.60317	4189.45300
11.17840	2.60594	4132.06300
11.21315	2.60491	4195.96400
11.24791	2.60249	4189.45300
11.28267	2.60168	4222.00500
11.31743	2.60353	4195.96400
11.35216	2.60537	4138.48400
11.38693	2.60317	4192.70800
11.42167	2.60286	4132.06300
11.45645	2.60589	4195.96400
11.49120	2.59796	4157.74800
11.52596	2.60116	4135.27400
11.56071	2.59464	4192.70800
11.59545	2.59929	4135.27400
11.63023	2.60071	4189.45300
11.66498	2.60242	4189.45300
11.69974	2.59901	4215.49400
11.73448	2.59747	4189.45300
11.76924	2.59928	4132.06300
11.80400	2.60034	4192.70800
11.83876	2.59423	4128.85200
11.87350	2.59669	4189.45300
11.90825	2.59533	4192.70800
11.94302	2.59628	4192.70800
11.97776	2.59817	4135.27400
