Time (s)   Thrust (N)   RPM
0.00026	1.98297	3479.00400
0.07697	1.68801	3243.44700
0.11169	1.47114	3126.32400
0.14643	1.29168	2949.89200
0.18117	1.13625	2770.64700
0.21592	1.02930	2615.79200
0.25069	0.92434	2535.51100
0.28543	0.84506	2458.72600
0.32020	0.77474	2317.70800
0.35496	0.73206	2289.66300
0.38970	0.67024	2213.04000
0.42446	0.63685	2164.52200
0.45923	0.60047	2113.97000
0.49398	0.56288	2045.03600
0.52874	0.53734	2025.00000
0.56349	0.51496	1948.52900
0.59825	0.50164	1940.62400
0.63301	0.48066	1907.81200
0.66775	0.46562	1870.31200
0.70251	0.45353	1842.18700
0.73727	0.43941	1860.65000
0.77202	0.42833	1800.00000
0.80678	0.41680	1776.56200
0.84152	0.40746	1793.68600
0.87630	0.40578	1779.33600
0.91105	0.40138	1769.77000
0.94580	0.39672	1787.10900
0.98055	0.39007	1741.07100
1.01525	0.38842	1731.50500
1.05006	0.38305	1762.69500
1.08481	0.37761	1752.92900
1.11956	0.37710	1712.37200
1.15432	0.37356	1702.80600
1.18908	0.37090	1733.39800
1.22383	0.36975	1728.51500
1.25859	0.36784	1723.63200
1.29334	0.36679	1683.67300
1.32809	0.36757	1678.89000
1.36285	0.36627	1713.86700
1.39759	0.36387	1674.10700
1.43235	0.36271	1708.98400
1.46711	0.35891	1708.98400
1.50186	0.35788	1699.21800
1.53661	0.35784	1699.21800
1.57136	0.35757	1699.21800
1.60613	0.35713	1659.75700
1.64088	0.35922	1694.33600
1.67563	0.35858	1654.97400
1.71039	0.36019	1689.45300
1.74514	0.36051	1689.45300
1.77991	0.36196	1654.97400
1.81465	0.35865	1689.45300
1.84940	0.35785	1684.57000
1.88416	0.35788	1654.97400
1.91899	0.35556	1689.45300
1.95368	0.35422	1684.57000
1.98844	0.35513	1650.19100
2.02319	0.35575	1654.97400
2.05794	0.35681	1684.57000
2.09269	0.35608	1684.57000
2.12744	0.35833	1650.19100
2.16220	0.35752	1684.57000
2.19696	0.35795	1684.57000
2.23171	0.35414	1684.57000
2.26646	0.35305	1650.19100
2.30122	0.35052	1650.19100
2.33597	0.35068	1684.57000
2.37073	0.35059	1684.57000
2.40548	0.35379	1684.57000
2.44024	0.35422	1654.97400
2.47500	0.35651	1684.57000
2.50975	0.35602	1679.68700
2.54450	0.35544	1679.68700
2.57925	0.35290	1650.19100
2.61400	0.35137	1679.68700
2.64876	0.34903	1684.57000
2.68352	0.35163	1679.68700
2.71828	0.35329	1679.68700
2.75302	0.35358	1645.40800
2.78777	0.35866	1684.57000
2.82253	0.35879	1684.57000
2.85727	0.35739	1674.80400
2.89204	0.35693	1679.68700
2.92681	0.35537	1650.19100
2.96156	0.35301	1684.57000
2.99631	0.35369	1679.68700
3.03106	0.35354	1679.68700
3.06582	0.35469	1645.40800
3.10057	0.35602	1650.19100
3.13532	0.35941	1679.68700
3.17007	0.35919	1684.57000
3.20483	0.35587	1679.68700
3.23959	0.35419	1645.40800
3.27434	0.35612	1650.19100
3.30910	0.35355	1679.68700
3.34386	0.35402	1679.68700
3.37860	0.35391	1684.57000
3.41336	0.35489	1679.68700
3.44811	0.35656	1645.40800
3.48287	0.35666	1684.57000
3.51762	0.35866	1679.68700
3.55238	0.35537	1679.68700
3.58713	0.35740	1679.68700
3.62189	0.35127	1684.57000
3.70113	0.35392	1650.19100
3.73587	0.35573	1645.40800
3.77064	0.35737	1684.57000
3.80539	0.35555	1684.57000
3.84014	0.35513	1679.68700
3.87491	0.35366	1679.68700
3.90965	0.35212	1645.40800
3.94440	0.35082	1679.68700
3.97916	0.35283	1679.68700
4.01392	0.35340	1679.68700
4.04867	0.35757	1679.68700
4.08342	0.35695	1650.19100
4.11818	0.35745	1684.57000
4.15294	0.35848	1679.68700
4.18769	0.35604	1679.68700
4.22245	0.35523	1679.68700
4.25720	0.35301	1650.19100
4.29195	0.35194	1684.57000
4.32670	0.35345	1679.68700
4.36147	0.35586	1674.80400
4.39623	0.35929	1645.40800
4.43097	0.35869	1645.40800
4.46573	0.35694	1679.68700
4.50049	0.35653	1679.68700
4.53525	0.35356	1684.57000
4.61370	0.35670	1679.68700
4.64840	0.35798	1679.68700
4.68315	0.35996	1645.40800
4.71790	0.35873	1684.57000
4.75265	0.35809	1684.57000
4.78740	0.35609	1684.57000
4.82216	0.35437	1684.57000
4.85692	0.35329	1650.19100
4.89166	0.35711	1684.57000
4.92642	0.35644	1684.57000
4.96118	0.35957	1684.57000
4.99593	0.35947	1679.68700
5.03068	0.35839	1645.40800
5.06545	0.35928	1645.40800
5.10020	0.35729	1679.68700
5.13495	0.35385	1679.68700
5.16973	0.35215	1679.68700
5.20446	0.35220	1645.40800
5.23922	0.35479	1640.62500
5.27397	0.35604	1674.80400
5.30873	0.35849	1674.80400
5.34349	0.35766	1684.57000
5.37824	0.35830	1679.68700
5.41299	0.35352	1645.40800
5.44774	0.35222	1679.68700
5.48250	0.35218	1679.68700
5.51725	0.35224	1679.68700
5.55201	0.35322	1684.57000
5.58676	0.35766	1645.40800
5.62152	0.35062	1650.19100
5.70008	0.35188	1684.57000
5.73484	0.35100	1679.68700
5.76959	0.35224	1684.57000
5.80435	0.35454	1650.19100
5.83910	0.35457	1684.57000
5.87387	0.36298	1684.57000
5.99664	0.35423	1679.68700
6.03178	0.36478	1793.68600
6.06620	1.17465	3015.09500
6.14455	1.46307	3300.46100
6.17931	1.70308	3435.05800
6.21404	1.87731	3620.19200
6.24881	2.02806	3742.89700
6.28356	2.13086	3819.96200
6.31832	2.20723	3863.74100
6.35307	2.26568	3885.86900
6.38782	2.30928	3950.40700
6.42258	2.34349	3947.54400
6.45734	2.40324	4007.81200
6.53613	2.41757	4027.90100
6.57088	2.42517	4037.94600
6.60564	2.43362	3997.57900
6.64040	2.44011	4007.48200
6.67515	2.44708	4014.08400
6.70991	2.45516	4078.12500
6.74467	2.45193	4030.58900
6.77942	2.45115	4078.12500
6.81417	2.45104	4081.47300
6.84893	2.45924	4084.82100
6.88368	2.46364	4078.12500
6.91844	2.45949	4030.58900
6.95320	2.45661	4027.28800
6.98795	2.45528	4000.65100
7.02271	2.45882	4027.28800
7.05747	2.46191	4030.58900
7.09222	2.46636	4033.89000
7.12698	2.46149	4088.16900
7.16174	2.46330	4084.82100
7.19650	2.45984	4084.82100
7.23125	2.45783	4027.28800
7.26601	2.46177	4053.69700
7.30077	2.45905	4030.58900
7.33554	2.46129	4030.58900
7.37027	2.45743	4027.28800
7.40503	2.45549	4027.28800
7.43979	2.45812	4037.19100
7.47455	2.45268	4088.16900
7.50930	2.45553	4030.58900
7.54405	2.45293	4053.69700
7.57881	2.46251	4033.89000
7.61356	2.46408	4027.28800
7.64832	2.46233	4027.28800
7.68308	2.45881	4030.58900
7.71784	2.46310	4027.28800
7.75259	2.46217	4081.47300
7.78735	2.46271	4053.69700
7.82210	2.45958	4030.58900
7.85686	2.45613	4088.16900
7.89162	2.46010	4084.82100
7.92638	2.46504	4030.58900
7.96114	2.46268	4033.89000
7.99588	2.46077	4030.58900
8.03063	2.45970	4030.58900
8.06540	2.46069	4060.29900
8.10016	2.46212	4033.89000
8.13491	2.46457	4084.82100
8.16967	2.45857	4088.16900
8.20443	2.46060	4027.28800
8.23918	2.46375	4027.28800
8.27394	2.45777	4027.28800
8.30869	2.46493	4033.89000
8.34345	2.46787	4063.60000
8.37821	2.45976	4033.89000
8.41296	2.46282	4094.86600
8.44771	2.45580	4033.89000
8.48247	2.45428	4033.89000
8.51722	2.46269	4030.58900
8.55197	2.46028	4037.19100
8.58672	2.45877	4091.51800
8.62147	2.46085	4033.89000
8.65623	2.45767	4091.51800
8.69098	2.46121	4094.86600
8.72575	2.45815	4033.89000
8.76049	2.45502	4033.89000
8.79525	2.45445	4037.19100
8.83001	2.45532	4040.49300
8.86478	2.46148	4060.29900
8.89952	2.46157	4040.49300
8.93427	2.45412	4040.49300
8.96903	2.45518	4094.86600
9.00378	2.45516	4037.19100
9.03854	2.45732	4040.49300
9.07329	2.45852	4033.89000
9.10805	2.45349	4098.21400
9.14282	2.45103	4066.90100
9.17755	2.44835	4037.19100
9.21232	2.45519	4033.89000
9.24706	2.45848	4040.49300
9.28182	2.45192	4098.21400
9.31658	2.45082	4033.89000
9.35134	2.44739	4043.79400
9.38609	2.44825	4066.90100
9.42084	2.45373	4040.49300
9.45560	2.45488	4040.49300
9.49035	2.45436	4043.79400
9.52511	2.45434	4094.86600
9.55986	2.44763	4043.79400
9.59461	2.45526	4040.49300
9.62938	2.45163	4098.21400
9.66413	2.45197	4073.50300
9.69889	2.45227	4043.79400
9.73363	2.44938	4037.19100
9.81226	2.44890	4053.69700
9.84701	2.45140	4040.49300
9.88177	2.45349	4037.19100
9.91652	2.44390	4043.79400
9.95128	2.44178	4094.86600
9.98603	2.44335	4037.19100
10.02079	2.44487	4040.49300
10.05555	2.45158	4066.90100
10.09029	2.44542	4037.19100
10.12505	2.44926	4098.21400
10.15982	2.44513	4043.79400
10.19457	2.44915	4037.19100
10.22932	2.45610	4098.21400
10.26408	2.45043	4040.49300
10.29882	2.45082	4037.19100
10.33358	2.45173	4066.90100
10.36832	2.45319	4037.19100
10.40309	2.45515	4094.86600
10.43785	2.44583	4033.89000
10.47259	2.44929	4040.49300
10.50736	2.45265	4101.56200
10.54210	2.45125	4037.19100
10.57686	2.45306	4066.90100
10.61162	2.45378	4033.89000
10.64637	2.45522	4033.89000
10.68113	2.45399	4033.89000
10.71589	2.45316	4094.86600
10.75064	2.45999	4037.19100
10.78540	2.46098	4037.19100
10.82015	2.45692	4030.58900
10.85495	2.45510	4053.69700
10.88967	2.45168	4030.58900
10.92442	2.45428	4091.51800
10.95917	2.45810	4033.89000
10.99394	2.45450	4033.89000
11.02868	2.45285	4030.58900
11.06344	2.45860	4033.89000
11.09818	2.45687	4091.51800
11.13295	2.45755	4053.69700
11.16771	2.45547	4091.51800
11.20245	2.45675	4033.89000
11.23720	2.45390	4030.58900
11.27196	2.45596	4027.28800
11.30671	2.46042	4033.89000
11.34147	2.45995	4091.51800
11.37623	2.45828	4060.29900
11.41098	2.45565	4091.51800
11.44574	2.45928	4033.89000
11.48049	2.45664	4030.58900
11.51524	2.46055	4030.58900
11.54999	2.45939	4088.16900
11.58476	2.45453	4088.16900
11.61951	2.45445	4033.89000
11.65426	2.45163	3997.39500
11.68902	2.45841	4037.19100
11.72378	2.45752	4033.89000
11.75853	2.45196	4094.86600
11.79328	2.45916	4037.19100
11.82804	2.45341	4030.58900
11.86279	2.45887	4030.58900
11.89755	2.45434	4094.86600
11.93231	2.45801	4050.39600
11.96707	2.46057	4091.51800
