Time (s)   Thrust (N)   RPM  Input
0.00021	2.51210	4055.98900	7.00000
0.03338	2.58613	4170.59000	7.00000
0.06804	2.76192	4318.75000	7.00000
0.10275	2.90869	4395.29200	7.00000
0.13744	3.01399	4504.87000	7.00000
0.17216	3.10070	4534.25500	7.00000
0.20684	3.16111	4568.82900	7.00000
0.24155	3.20821	4579.10100	7.00000
0.27626	3.22081	4593.75000	7.00000
0.31095	3.25556	4643.55400	7.00000
0.34565	3.28444	4620.94900	7.00000
0.38036	3.29394	4690.42900	7.00000
0.41506	3.30919	4655.67100	7.00000
0.44974	3.30849	4690.39300	7.00000
0.48448	3.32200	4675.92600	7.00000
0.51917	3.33038	4690.39300	7.00000
0.55388	3.33327	4670.35000	7.00000
0.58859	3.33648	4704.86100	7.00000
0.62329	3.34331	4707.75500	7.00000
0.65799	3.34786	4736.69000	7.00000
0.69269	3.35235	4719.32900	7.00000
0.72741	3.36933	4687.50000	7.00000
0.76210	3.35981	4719.32900	7.00000
0.79680	3.36460	4716.43500	7.00000
0.83151	3.35664	4690.35800	7.00000
0.86621	3.35182	4716.43500	7.00000
0.90092	3.34803	4713.54100	7.00000
0.93562	3.34646	4690.35800	7.00000
0.97033	3.34058	4716.43500	7.00000
1.00503	3.35161	4687.50000	7.00000
1.03972	3.34935	4713.54100	7.00000
1.07443	3.36559	4716.43500	7.00000
1.10913	3.36336	4684.64100	7.00000
1.14383	3.36950	4710.64800	7.00000
1.17854	3.36180	4650.34300	7.00000
1.21324	3.35416	4673.20900	7.00000
1.24794	3.35779	4704.86100	7.00000
1.28264	3.35438	4701.96700	7.00000
1.31736	3.35241	4661.77600	7.00000
1.35205	3.35716	4699.07400	7.00000
1.38675	3.36976	4676.06700	7.00000
1.42146	3.36811	4701.96700	7.00000
1.45616	3.37744	4701.96700	7.00000
1.49086	3.37276	4725.11500	7.00000
1.52556	3.37305	4701.96700	7.00000
1.56025	3.37265	4699.07400	7.00000
1.59496	3.38105	4719.32900	7.00000
1.62967	3.37232	4687.50000	7.00000
1.66437	3.38001	4656.05900	7.00000
1.69907	3.37047	4684.60600	7.00000
1.73378	3.37170	4684.60600	7.00000
1.76848	3.36684	4658.91700	7.00000
1.80317	3.37459	4746.09400	7.00000
1.83788	3.38577	4684.60600	7.00000
1.87259	3.37752	4707.75500	7.00000
1.90728	3.38302	4681.71300	7.00000
1.94200	3.37900	4687.50000	7.00000
1.97671	3.39340	4713.54100	7.00000
2.01142	3.38556	4681.71300	7.00000
2.04612	3.38877	4656.05900	7.00000
2.08081	3.38270	4678.81900	7.00000
2.11552	3.38926	4678.81900	7.00000
2.15022	3.38409	4653.20100	7.00000
2.18494	3.38461	4678.81900	7.00000
2.21963	3.38569	4737.30400	7.00000
2.25433	3.39875	4710.64800	7.00000
2.28904	3.37734	4681.71300	7.00000
2.32374	3.38357	4737.30400	7.00000
2.35844	3.38131	4704.86100	7.00000
2.39315	3.37654	4675.92600	7.00000
2.42786	3.37772	4740.23400	7.00000
2.46261	3.37787	4699.07400	7.00000
2.49726	3.37344	4678.81900	7.00000
2.53197	3.38090	4658.91700	7.00000
2.56667	3.37594	4684.60600	7.00000
2.60137	3.34576	4684.60600	7.00000
2.63607	3.38270	4710.64800	7.00000
2.67078	3.37303	4690.39300	7.00000
2.70548	3.37203	4687.50000	7.00000
2.74017	3.36772	4716.43500	7.00000
2.77488	3.36504	4693.28700	7.00000
2.85413	3.37381	4699.07400	7.00000
2.88883	3.36260	4661.77600	7.00000
2.92354	3.36311	4751.95300	7.00000
2.95826	3.37067	4693.28700	7.00000
2.99295	3.37128	4719.32900	7.00000
3.02765	3.37558	4696.18000	7.00000
3.06235	3.37141	4722.22200	7.00000
3.09706	3.36436	4693.28700	7.00000
3.13176	3.37475	4690.39300	7.00000
3.16647	3.37145	4667.49200	7.00000
3.20117	3.37158	4693.28700	7.00000
3.23588	3.23709	4690.39300	7.00000
3.27057	3.37951	4719.32900	7.00000
3.30528	3.38053	4690.39300	7.00000
3.33998	3.37867	4693.28700	7.00000
3.37471	3.38178	4704.86100	7.00000
3.40939	3.37387	4690.39300	7.00000
3.44409	3.37764	4728.00900	7.00000
3.47882	3.35459	4696.18000	7.00000
3.51351	3.38052	4690.39300	7.00000
3.54822	3.37484	4664.63400	7.00000
3.58292	3.38292	4690.39300	7.00000
3.61762	3.38228	4690.39300	7.00000
3.65234	3.38555	4722.22200	7.00000
3.68702	3.40233	4684.60600	7.00000
3.72173	3.38774	4653.20100	7.00000
3.75643	3.39003	4681.71300	7.00000
3.79114	3.37024	4687.50000	7.00000
3.82585	3.37674	4650.34300	7.00000
3.86056	3.37898	4681.71300	7.00000
3.89525	3.38159	4678.81900	7.00000
3.92996	3.38695	4647.48400	7.00000
3.96467	3.37699	4675.92600	7.00000
3.99936	3.37566	4740.23400	7.00000
4.03408	3.31828	4704.86100	7.00000
4.06878	3.37945	4684.60600	7.00000
4.14732	3.36952	4687.50000	7.00000
4.18201	3.37810	4656.05900	7.00000
4.21670	3.38009	4687.50000	7.00000
4.25142	3.37773	4719.32900	7.00000
4.28611	3.37188	4690.39300	7.00000
4.32082	3.38352	4684.60600	7.00000
4.35552	3.38113	4713.54100	7.00000
4.39023	3.37848	4678.81900	7.00000
4.42493	3.37569	4746.09400	7.00000
4.45966	3.38360	4710.64800	7.00000
4.49435	3.37389	4684.60600	7.00000
4.52906	3.37465	4684.60600	7.00000
4.56376	3.38067	4656.05900	7.00000
4.59847	3.38283	4684.60600	7.00000
4.63317	3.36070	4713.54100	7.00000
4.66787	3.38373	4684.60600	7.00000
4.70257	3.37304	4681.71300	7.00000
4.73728	3.38279	4725.11500	7.00000
4.77199	3.37241	4687.50000	7.00000
4.85025	3.37289	4693.28700	7.00000
4.88495	3.38264	4656.05900	7.00000
4.91966	3.36644	4687.50000	7.00000
4.95437	3.37922	4690.39300	7.00000
4.98906	3.37319	4716.43500	7.00000
5.02416	3.36605	4728.51500	6.45000
5.05850	3.24786	4474.15800	6.45000
5.09320	3.01650	4459.29300	6.45000
5.12790	2.83915	4288.42800	6.45000
5.16258	2.70521	4160.95900	6.45000
5.19729	2.61753	4139.52500	6.45000
5.23199	2.52703	4050.39600	6.45000
5.26669	2.46270	3977.77200	6.45000
5.30141	2.42042	3974.47200	6.45000
5.33610	2.39679	4025.13600	6.45000
5.37081	2.36499	3991.16800	6.45000
5.40551	2.32852	3960.59700	6.45000
5.44021	2.32940	3950.40700	6.45000
5.47493	2.31356	3936.82000	6.45000
5.50963	2.29982	3926.63000	6.45000
5.54434	2.29490	3916.44000	6.45000
5.57903	2.29877	3909.64700	6.45000
5.61374	2.28825	3906.24900	6.45000
5.64845	2.27472	3963.69400	6.45000
5.68315	2.27256	3916.44000	6.45000
5.71785	2.27370	3899.45600	6.45000
5.75256	2.27533	3889.26600	6.45000
5.78727	2.28145	3946.46100	6.45000
5.82197	2.26705	3899.45600	6.45000
5.85668	2.26969	3892.66300	6.45000
5.89139	2.27187	3892.66300	6.45000
5.92611	2.27195	3892.66300	6.45000
5.96081	2.26426	3946.46100	6.45000
5.99550	2.26382	3889.26600	6.45000
6.03021	2.26476	3896.05900	6.45000
6.06491	2.26663	3892.66300	6.45000
6.09963	2.27155	3923.23300	6.45000
6.13432	2.27224	3899.45600	6.45000
6.16904	2.27173	3899.45600	6.45000
6.20373	2.26497	3949.90800	6.45000
6.23843	2.26214	3892.66300	6.45000
6.27314	2.25979	3896.05900	6.45000
6.30784	2.25883	3946.46100	6.45000
6.34255	2.24913	3892.66300	6.45000
6.37725	2.24955	3892.66300	6.45000
6.41195	2.25908	3899.45600	6.45000
6.44666	2.26915	3902.85300	6.45000
6.48138	2.26465	3902.85300	6.45000
6.51609	2.26736	3873.88400	6.45000
6.55078	2.26616	3902.85300	6.45000
6.58548	2.26700	3909.64700	6.45000
6.62020	2.26397	3906.24900	6.45000
6.65490	2.26428	3899.45600	6.45000
6.68960	2.26762	3902.85300	6.45000
6.72431	2.27082	3906.24900	6.45000
6.75901	2.26275	3896.05900	6.45000
6.79372	2.25805	3953.35400	6.45000
6.82842	2.26070	3899.45600	6.45000
6.86314	2.27286	3960.24800	6.45000
6.89783	2.26924	3906.24900	6.45000
6.93254	2.26844	3930.02700	6.45000
6.96724	2.26218	3906.24900	6.45000
7.00195	2.26321	3899.45600	6.45000
7.03664	2.26394	3953.35400	6.45000
7.07135	2.26921	3899.45600	6.45000
7.10607	2.26901	3892.66300	6.45000
7.14076	2.26406	3899.45600	6.45000
7.17547	2.26479	3896.05900	6.45000
7.21017	2.26639	3953.35400	6.45000
7.24487	2.25993	3902.85300	6.45000
7.27957	2.26154	3960.24800	6.45000
7.31428	2.26445	3896.05900	6.45000
7.34900	2.27639	3867.18700	6.45000
7.38369	2.25539	3906.24900	6.45000
7.41839	2.26028	3906.24900	6.45000
7.45314	2.26494	3906.24900	6.45000
7.53151	2.25800	3963.69400	6.45000
7.56622	2.27172	3923.23300	6.45000
7.60092	2.26228	3899.45600	6.45000
7.63561	2.26006	3956.80100	6.45000
7.67033	2.26360	3906.24900	6.45000
7.70502	2.25865	3963.69400	6.45000
7.73974	2.26130	3906.24900	6.45000
7.77443	2.26159	3963.69400	6.45000
7.80915	2.25926	3906.24900	6.45000
7.84384	2.26010	3913.04300	6.45000
7.87855	2.25511	3913.04300	6.45000
7.91325	2.26252	3909.64700	6.45000
7.94795	2.26513	3916.44000	6.45000
7.98267	2.27408	3913.04300	6.45000
8.01737	2.25949	3913.04300	6.45000
8.05207	2.29660	3916.44000	6.45000
8.08678	2.27669	3977.48100	6.45000
8.12147	2.26507	3916.44000	6.45000
8.15619	2.26413	3916.44000	6.45000
8.19088	2.26482	3919.83700	6.45000
8.22560	2.28569	3916.44000	6.45000
8.26030	2.27244	3916.44000	6.45000
8.29501	2.25220	3913.04300	6.45000
8.32970	2.28394	3916.44000	6.45000
8.36442	2.28386	3943.61400	6.45000
8.39911	2.26291	3919.83700	6.45000
8.43382	2.26600	3909.64700	6.45000
8.46852	2.26700	3913.04300	6.45000
8.50323	2.26235	3906.24900	6.45000
8.53793	2.27412	3913.04300	6.45000
8.57265	2.28781	3913.04300	6.45000
8.60734	2.27611	3909.64700	6.45000
8.64205	2.27750	3913.04300	6.45000
8.67675	2.27153	3906.24900	6.45000
8.71146	2.27442	3909.64700	6.45000
8.74617	2.27298	3913.04300	6.45000
8.78087	2.27500	3919.83700	6.45000
8.81558	2.26503	3906.24900	6.45000
8.85029	2.26614	3963.69400	6.45000
8.88498	2.27018	3902.85300	6.45000
8.91969	2.27434	3960.24800	6.45000
8.95442	2.27314	3899.45600	6.45000
9.03267	2.27518	3960.24800	6.45000
9.06737	2.27764	3906.24900	6.45000
9.10209	2.26991	3963.69400	6.45000
9.13679	2.26401	3899.45600	6.45000
9.17149	2.26683	3892.66300	6.45000
9.20620	2.26903	3896.05900	6.45000
9.24090	2.26580	3892.66300	6.45000
9.27560	2.27100	3953.35400	6.45000
9.31031	2.28245	3896.05900	6.45000
9.34501	2.29878	3892.66300	6.45000
9.37971	2.27475	3889.26600	6.45000
9.41441	2.28540	3899.45600	6.45000
9.44912	2.28614	3889.26600	6.45000
9.48383	2.28263	3889.26600	6.45000
9.51853	2.28606	3882.47300	6.45000
9.55325	2.28534	3939.56700	6.45000
9.58794	2.28965	3882.47300	6.45000
9.62264	2.29743	3872.28200	6.45000
9.65734	2.29988	3875.67900	6.45000
9.69205	2.29728	3875.67900	6.45000
9.72676	2.29872	3872.28200	6.45000
9.76146	2.28986	3868.88500	6.45000
9.79617	2.29213	3872.28200	6.45000
9.83087	2.29878	3896.05900	6.45000
9.86558	2.29757	3868.88500	6.45000
9.90028	2.32468	3922.33400	6.45000
9.97858	2.29331	3922.33400	6.45000
