Time (s)   Thrust (N)   RPM  Input
0.00021	2.64527	4253.59000	7.00000
0.03343	2.73083	4431.25000	7.00000
0.06809	2.86859	4440.94900	7.00000
0.10278	2.97430	4507.21200	7.00000
0.13750	3.05765	4571.79600	7.00000
0.17218	3.11287	4637.06500	7.00000
0.20689	3.15333	4681.56600	7.00000
0.24159	3.19288	4615.16200	7.00000
0.27630	3.21506	4664.35100	7.00000
0.31101	3.24871	4734.37500	7.00000
0.34571	3.24855	4707.75500	7.00000
0.38042	3.30150	4728.00900	7.00000
0.45917	3.28069	4681.78300	7.00000
0.49388	3.27730	4742.47600	7.00000
0.52858	3.28193	4721.79900	7.00000
0.56327	3.29054	4698.93300	7.00000
0.59798	3.29802	4759.83800	7.00000
0.63269	3.29951	4721.79900	7.00000
0.66740	3.29970	4704.64900	7.00000
0.70209	3.29458	4733.23100	7.00000
0.73680	3.29648	4704.64900	7.00000
0.77149	3.30119	4707.50700	7.00000
0.80620	3.31078	4733.23100	7.00000
0.84091	3.31628	4762.73100	7.00000
0.87562	3.31716	4771.41200	7.00000
0.91030	3.31988	4710.36500	7.00000
0.94502	3.31494	4759.83800	7.00000
1.02329	3.30345	4738.94800	7.00000
1.05799	3.30640	4710.36500	7.00000
1.09269	3.31324	4713.22400	7.00000
1.12740	3.30713	4733.23100	7.00000
1.16210	3.30217	4716.08200	7.00000
1.19680	3.30992	4710.36500	7.00000
1.23155	3.31742	4750.38100	7.00000
1.26620	3.32475	4716.08200	7.00000
1.30091	3.32638	4747.52300	7.00000
1.33561	3.32606	4704.64900	7.00000
1.37032	3.32155	4710.36500	7.00000
1.40503	3.31707	4744.66400	7.00000
1.43973	3.31598	4704.64900	7.00000
1.47445	3.31338	4741.80600	7.00000
1.50913	3.31983	4771.41200	7.00000
1.54384	3.31695	4765.62500	7.00000
1.57854	3.32078	4736.09000	7.00000
1.61324	3.31530	4710.36500	7.00000
1.64794	3.31145	4765.62500	7.00000
1.68265	3.31369	4744.66400	7.00000
1.71736	3.31958	4704.64900	7.00000
1.75206	3.31666	4738.94800	7.00000
1.78675	3.31667	4707.50700	7.00000
1.82148	3.32736	4704.64900	7.00000
1.85616	3.32176	4684.67600	7.00000
1.89088	3.31982	4762.73100	7.00000
1.92558	3.31668	4762.73100	7.00000
1.96030	3.31865	4727.51500	7.00000
1.99501	3.29867	4701.79100	7.00000
2.02970	3.29698	4736.09000	7.00000
2.06440	3.29727	4704.64900	7.00000
2.09914	3.30449	4765.62500	7.00000
2.17740	3.30737	4744.66400	7.00000
2.21210	3.31017	4774.30500	7.00000
2.24681	3.31275	4707.50700	7.00000
2.32599	3.31431	4741.80600	7.00000
2.36067	3.30441	4710.36500	7.00000
2.39539	3.31343	4713.22400	7.00000
2.43010	3.31142	4738.94800	7.00000
2.46480	3.31743	4765.62500	7.00000
2.49950	3.30824	4727.51500	7.00000
2.53421	3.30772	4765.62500	7.00000
2.56891	3.31076	4762.73100	7.00000
2.60361	3.32048	4733.23100	7.00000
2.63831	3.31636	4701.79100	7.00000
2.67303	3.31522	4751.15700	7.00000
2.70773	3.30968	4724.65700	7.00000
2.74243	3.31222	4701.79100	7.00000
2.77714	3.31387	4724.65700	7.00000
2.81184	3.31301	4754.05100	7.00000
2.84655	3.31369	4754.05100	7.00000
2.88125	3.32206	4721.79900	7.00000
2.91596	3.31901	4696.07400	7.00000
2.95068	3.32387	4745.37000	7.00000
2.98537	3.32473	4727.51500	7.00000
3.02007	3.31973	4696.07400	7.00000
3.05478	3.32210	4724.65700	7.00000
3.08948	3.31656	4756.94500	7.00000
3.12420	3.31950	4751.15700	7.00000
3.15891	3.32833	4718.94000	7.00000
3.19360	3.31571	4698.93300	7.00000
3.22830	3.32408	4754.05100	7.00000
3.26302	3.32612	4718.94000	7.00000
3.29772	3.32907	4693.21700	7.00000
3.33241	3.33223	4727.51500	7.00000
3.36712	3.32780	4754.05100	7.00000
3.40182	3.33008	4693.21700	7.00000
3.43652	3.32891	4718.94000	7.00000
3.47123	3.32890	4748.26400	7.00000
3.50594	3.32398	4690.35800	7.00000
3.54065	3.31515	4721.79900	7.00000
3.57534	3.31922	4751.15700	7.00000
3.61004	3.31600	4724.65700	7.00000
3.64475	3.31958	4698.93300	7.00000
3.67945	3.31991	4756.94500	7.00000
3.71417	3.31406	4733.23100	7.00000
3.74887	3.31382	4754.05100	7.00000
3.78358	3.31464	4693.21700	7.00000
3.81828	3.32080	4724.65700	7.00000
3.85298	3.31255	4756.94500	7.00000
3.88768	3.30541	4721.79900	7.00000
3.92239	3.31455	4696.07400	7.00000
4.00118	3.32045	4696.07400	7.00000
4.03586	3.32022	4730.37300	7.00000
4.07057	3.32253	4751.15700	7.00000
4.10529	3.33085	4690.35800	7.00000
4.13998	3.32658	4777.19800	7.00000
4.17470	3.31933	4742.47600	7.00000
4.20939	3.32924	4716.08200	7.00000
4.24409	3.33527	4745.37000	7.00000
4.27880	3.33174	4742.47600	7.00000
4.31350	3.32415	4768.51800	7.00000
4.34821	3.32957	4745.37000	7.00000
4.38291	3.32573	4693.21700	7.00000
4.41761	3.31451	4718.94000	7.00000
4.45232	3.33102	4748.26400	7.00000
4.48703	3.33019	4716.08200	7.00000
4.52172	3.33032	4751.15700	7.00000
4.55644	3.33819	4745.37000	7.00000
4.59113	3.33051	4721.79900	7.00000
4.62583	3.33611	4736.69000	7.00000
4.66053	3.33880	4684.64100	7.00000
4.69524	3.33491	4710.36500	7.00000
4.72995	3.33013	4681.78300	7.00000
4.76465	3.34141	4701.79100	7.00000
4.79935	3.33708	4681.78300	7.00000
4.83406	3.33224	4733.79600	7.00000
4.86877	3.33942	4707.50700	7.00000
4.90347	3.35165	4736.69000	7.00000
4.93817	3.34421	4736.69000	7.00000
5.01684	3.34351	4707.50700	6.56250
5.05119	3.22784	4577.72900	6.56250
5.08586	3.05106	4490.13100	6.56250
5.12055	2.91006	4422.28600	6.56250
5.15526	2.71404	4240.92100	6.56250
5.23352	2.65145	4215.53900	6.56250
5.26824	2.60819	4215.49400	6.56250
5.30293	2.58425	4109.58800	6.56250
5.33762	2.55311	4137.37000	6.56250
5.37233	2.53307	4111.32800	6.56250
5.40705	2.53169	4134.11400	6.56250
5.44175	2.52406	4091.79700	6.56250
5.47645	2.52064	4139.52500	6.56250
5.51115	2.51055	4123.01900	6.56250
5.54587	2.50578	4062.50000	6.56250
5.58056	2.51177	4109.81500	6.56250
5.61525	2.50748	4052.73400	6.56250
5.64995	2.50788	4078.77600	6.56250
5.68465	2.50994	4103.21300	6.56250
5.71935	2.50825	4046.22400	6.56250
5.75406	2.49491	4106.51400	6.56250
5.78876	2.49439	4103.21300	6.56250
5.82347	2.49488	4046.22400	6.56250
5.85817	2.50062	4103.21300	6.56250
5.89289	2.49673	4065.75500	6.56250
5.92758	2.49860	4103.21300	6.56250
6.00584	2.49830	4126.32000	6.56250
6.04056	2.50812	4042.96800	6.56250
6.07525	2.48851	4103.21300	6.56250
6.10996	2.49881	4099.91200	6.56250
6.14461	2.50102	4099.91200	6.56250
6.17936	2.50544	4099.91200	6.56250
6.21406	2.49996	4103.21300	6.56250
6.24877	2.49659	4132.92200	6.56250
6.28347	2.49486	4103.21300	6.56250
6.31817	2.49739	4099.91200	6.56250
6.35289	2.49765	4099.91200	6.56250
6.38759	2.50123	4046.22400	6.56250
6.42228	2.51382	4106.51400	6.56250
6.45699	2.49501	4103.21300	6.56250
6.49169	2.49691	4113.11600	6.56250
6.52639	2.49842	4103.21300	6.56250
6.56111	2.49360	4099.91200	6.56250
6.59579	2.49843	4103.21300	6.56250
6.63051	2.49504	4046.22400	6.56250
6.66520	2.48917	4096.61000	6.56250
6.69991	2.50180	4065.75500	6.56250
6.73461	2.48783	4096.61000	6.56250
6.76932	2.49177	4099.91200	6.56250
6.80401	2.49777	4042.96800	6.56250
6.83871	2.50413	4096.61000	6.56250
6.87342	2.50285	4096.61000	6.56250
6.90813	2.50091	4096.61000	6.56250
6.94283	2.49713	4096.61000	6.56250
7.02162	2.49168	4096.61000	6.56250
7.05632	2.50018	4039.71300	6.56250
7.09102	2.49817	4065.75500	6.56250
7.12572	2.50537	4096.61000	6.56250
7.16041	2.50306	4096.61000	6.56250
7.19512	2.50359	4096.61000	6.56250
7.22983	2.50963	4033.20300	6.56250
7.26453	2.50169	4093.30900	6.56250
7.29923	2.49799	4093.30900	6.56250
7.33393	2.50196	4109.81500	6.56250
7.36864	2.50552	4096.61000	6.56250
7.40334	2.50385	4096.61000	6.56250
7.43804	2.50581	4036.45800	6.56250
7.47274	2.50712	4096.61000	6.56250
7.50745	2.50690	4096.61000	6.56250
7.54214	2.50795	4116.41700	6.56250
7.57685	2.49684	4099.91200	6.56250
7.61156	2.50292	4096.61000	6.56250
7.64626	2.50096	4036.45800	6.56250
7.68096	2.49696	4096.61000	6.56250
7.71565	2.49906	4099.91200	6.56250
7.75036	2.49742	4096.61000	6.56250
7.78507	2.50019	4069.01000	6.56250
7.81976	2.50195	4103.21300	6.56250
7.85446	2.49772	4099.91200	6.56250
7.88917	2.49856	4103.21300	6.56250
7.92388	2.50031	4042.96800	6.56250
7.95859	2.50205	4042.96800	6.56250
8.03685	2.50145	4099.91200	6.56250
8.07154	2.49594	4099.91200	6.56250
8.10625	2.50092	4103.21300	6.56250
8.18449	2.50800	4103.21300	6.56250
8.21920	2.51094	4046.22400	6.56250
8.25390	2.50761	4099.91200	6.56250
8.28861	2.50632	4132.92200	6.56250
8.32330	2.50489	4046.22400	6.56250
8.35801	2.50753	4103.21300	6.56250
8.39271	2.50778	4099.91200	6.56250
8.42741	2.50133	4096.61000	6.56250
8.46213	2.50679	4036.45800	6.56250
8.49681	2.50663	4065.75500	6.56250
8.53150	2.50609	4099.91200	6.56250
8.56622	2.51028	4099.91200	6.56250
8.60092	2.50929	4096.61000	6.56250
8.63562	2.50958	4039.71300	6.56250
8.67032	2.49943	4042.96800	6.56250
8.74863	2.50297	4093.30900	6.56250
8.78330	2.50340	4099.91200	6.56250
8.81799	2.49903	4099.91200	6.56250
8.85270	2.50110	4046.22400	6.56250
8.88740	2.49389	4052.73400	6.56250
8.92210	2.49955	4099.91200	6.56250
8.95684	2.49987	4096.61000	6.56250
9.03510	2.49830	4103.21300	6.56250
9.06979	2.49717	4046.22400	6.56250
9.10450	2.49536	4103.21300	6.56250
9.13920	2.50383	4096.61000	6.56250
9.17391	2.50233	4103.21300	6.56250
9.20861	2.50370	4039.71300	6.56250
9.24332	2.50884	4069.01000	6.56250
9.27801	2.50211	4096.61000	6.56250
9.31273	2.50280	4096.61000	6.56250
9.34742	2.49965	4036.45800	6.56250
9.38212	2.50048	4103.21300	6.56250
9.41684	2.50818	4096.61000	6.56250
9.45153	2.50960	4099.91200	6.56250
9.48626	2.51077	4106.51400	6.56250
9.52093	2.50482	4039.71300	6.56250
9.55564	2.50604	4093.30900	6.56250
9.59035	2.50747	4096.61000	6.56250
9.62505	2.50559	4093.30900	6.56250
9.65975	2.51068	4096.61000	6.56250
9.73969	2.50496	4093.30900	6.56250
9.81792	2.51131	4090.00800	6.56250
9.89620	2.50233	4090.00800	6.56250
9.97572	2.50856	4093.30900	6.56250
