Time (s)   Thrust (N)   RPM  Input
0.00020	1.68047	3404.01700	7.00000
0.03337	2.08556	3763.78600	7.00000
0.06803	2.43551	4074.77600	7.00000
0.10273	2.68312	4215.53900	7.00000
0.13743	2.86376	4331.25000	7.00000
0.17213	2.99732	4397.61500	7.00000
0.20684	3.08107	4511.71900	7.00000
0.24155	3.16032	4565.74700	7.00000
0.27625	3.21514	4527.29400	7.00000
0.31095	3.26665	4562.89500	7.00000
0.34565	3.29548	4552.73400	7.00000
0.38036	3.32115	4622.23100	7.00000
0.41507	3.31691	4587.89000	7.00000
0.44977	3.32891	4657.83200	7.00000
0.48447	3.34301	4617.18700	7.00000
0.51916	3.35281	4687.50000	7.00000
0.55387	3.35652	4637.69500	7.00000
0.58857	3.36558	4669.92200	7.00000
0.62328	3.37567	4649.41400	7.00000
0.65798	3.37207	4661.13300	7.00000
0.69268	3.37709	4687.50000	7.00000
0.72740	3.37558	4603.58800	7.00000
0.76209	3.37235	4603.58800	7.00000
0.79679	3.37714	4632.52300	7.00000
0.83150	3.38050	4664.06200	7.00000
0.86620	3.37424	4666.99200	7.00000
0.90090	3.37601	4632.52300	7.00000
0.93560	3.38036	4664.06200	7.00000
0.97030	3.37768	4669.92200	7.00000
1.00500	3.38193	4699.21900	7.00000
1.03970	3.37715	4609.37500	7.00000
1.07441	3.37350	4669.92200	7.00000
1.10911	3.37144	4699.21900	7.00000
1.14381	3.37194	4615.16200	7.00000
1.17852	3.37024	4675.78100	7.00000
1.21323	3.37355	4699.21900	7.00000
1.24791	3.37683	4612.26800	7.00000
1.28263	3.37230	4644.09700	7.00000
1.31733	3.37189	4669.92200	7.00000
1.35203	3.37621	4618.05500	7.00000
1.38672	3.36274	4644.09700	7.00000
1.42143	3.37709	4678.71100	7.00000
1.45613	3.38067	4678.71100	7.00000
1.49083	3.37412	4705.07800	7.00000
1.52554	3.36812	4620.94900	7.00000
1.56023	3.36802	4687.50000	7.00000
1.59493	3.36528	4664.35100	7.00000
1.62963	3.37562	4693.35900	7.00000
1.66433	3.36302	4693.35900	7.00000
1.69904	3.36697	4664.35100	7.00000
1.73374	3.37145	4699.21900	7.00000
1.76844	3.36699	4702.14800	7.00000
1.80316	3.36443	4667.24500	7.00000
1.83783	3.36082	4644.09700	7.00000
1.87254	3.35718	4673.03200	7.00000
1.90725	3.34266	4705.07800	7.00000
1.94195	3.34625	4708.00800	7.00000
1.97665	3.35869	4673.03200	7.00000
2.01136	3.35563	4652.77800	7.00000
2.04605	3.35632	4655.67100	7.00000
2.08076	3.35117	4687.50000	7.00000
2.11546	3.35868	4658.56500	7.00000
2.15017	3.35003	4658.56500	7.00000
2.18486	3.35764	4627.47700	7.00000
2.21956	3.35080	4658.56500	7.00000
2.25427	3.35113	4661.45800	7.00000
2.28898	3.34761	4731.44500	7.00000
2.32368	3.35546	4661.45800	7.00000
2.35837	3.35081	4696.18000	7.00000
2.39308	3.35931	4661.45800	7.00000
2.42778	3.36873	4667.24500	7.00000
2.46248	3.36625	4696.18000	7.00000
2.49720	3.36516	4670.13900	7.00000
2.53188	3.36170	4728.51500	7.00000
2.56659	3.36176	4696.18000	7.00000
2.60131	3.35547	4673.03200	7.00000
2.63599	3.35746	4673.03200	7.00000
2.67069	3.35549	4701.96700	7.00000
2.70539	3.35487	4673.03200	7.00000
2.74009	3.35455	4701.96700	7.00000
2.77480	3.35390	4673.03200	7.00000
2.80950	3.34824	4675.92600	7.00000
2.84420	3.36562	4701.96700	7.00000
2.87891	3.36728	4675.92600	7.00000
2.91360	3.36081	4673.03200	7.00000
2.94833	3.36443	4644.62600	7.00000
2.98302	3.35721	4673.03200	7.00000
3.01771	3.36294	4731.44500	7.00000
3.05241	3.35620	4699.07400	7.00000
3.08714	3.36140	4678.81900	7.00000
3.12183	3.36921	4644.62600	7.00000
3.15653	3.36435	4673.03200	7.00000
3.19124	3.36588	4673.03200	7.00000
3.22593	3.36945	4699.07400	7.00000
3.26064	3.37329	4734.37500	7.00000
3.29534	3.37479	4670.13900	7.00000
3.33005	3.37382	4650.34300	7.00000
3.36474	3.36824	4675.92600	7.00000
3.39945	3.36550	4734.37500	7.00000
3.43415	3.37719	4699.07400	7.00000
3.46885	3.36555	4673.03200	7.00000
3.50357	3.36547	4673.03200	7.00000
3.53825	3.36758	4675.92600	7.00000
3.57296	3.36694	4667.24500	7.00000
3.60767	3.35858	4693.28700	7.00000
3.64236	3.35735	4667.24500	7.00000
3.67707	3.36172	4664.35100	7.00000
3.71177	3.36968	4693.28700	7.00000
3.74647	3.36912	4725.58600	7.00000
3.78118	3.36264	4722.65600	7.00000
3.81588	3.36118	4693.28700	7.00000
3.85059	3.35211	4719.72600	7.00000
3.88529	3.34748	4661.45800	7.00000
3.92001	3.35074	4690.39300	7.00000
3.95469	3.35273	4664.35100	7.00000
3.98940	3.36112	4636.05200	7.00000
4.02409	3.36179	4670.13900	7.00000
4.05880	3.36602	4675.92600	7.00000
4.09351	3.36585	4696.18000	7.00000
4.12821	3.36744	4731.44500	7.00000
4.16292	3.37244	4673.03200	7.00000
4.19761	3.36511	4650.34300	7.00000
4.23232	3.37395	4670.13900	7.00000
4.26703	3.36321	4725.58600	7.00000
4.30172	3.37350	4701.96700	7.00000
4.33642	3.37049	4667.24500	7.00000
4.37114	3.36266	4701.96700	7.00000
4.40583	3.36612	4673.03200	7.00000
4.44054	3.36516	4673.03200	7.00000
4.47526	3.36254	4704.86100	7.00000
4.50995	3.35643	4731.44500	7.00000
4.54465	3.35497	4678.81900	7.00000
4.57935	3.36721	4699.07400	7.00000
4.61405	3.33844	4675.92600	7.00000
4.64875	3.36597	4678.81900	7.00000
4.68345	3.36240	4647.48400	7.00000
4.71816	3.37257	4678.81900	7.00000
4.75286	3.36801	4678.81900	7.00000
4.78756	3.37744	4690.39300	7.00000
4.82226	3.35790	4675.92600	7.00000
4.85698	3.37699	4713.54100	7.00000
4.89167	3.37251	4737.30400	7.00000
4.92638	3.36155	4678.81900	7.00000
4.96108	3.36144	4636.05200	7.00000
4.99578	3.36118	4673.03200	7.00000
5.03085	3.36148	4657.83200	6.00000
5.06523	3.12698	4462.25600	6.00000
5.09989	2.75856	4135.27400	6.00000
5.13459	2.47092	3934.15100	6.00000
5.16929	2.26410	3823.46000	6.00000
5.20400	2.09213	3717.54800	6.00000
5.23871	1.96885	3558.89400	6.00000
5.27340	1.86325	3486.32800	6.00000
5.30810	1.78111	3433.77900	6.00000
5.34280	1.71456	3398.43700	6.00000
5.37751	1.65311	3350.41000	6.00000
5.41221	1.61843	3300.46100	6.00000
5.44691	1.58642	3258.19600	6.00000
5.48161	1.56489	3219.77400	6.00000
5.51631	1.53035	3246.09300	6.00000
5.55102	1.51598	3218.75000	6.00000
5.58572	1.49805	3150.61400	6.00000
5.62042	1.49812	3179.68700	6.00000
5.65513	1.49023	3171.87500	6.00000
5.68982	1.48207	3108.35000	6.00000
5.72453	1.47072	3100.66600	6.00000
5.75924	1.47048	3096.82300	6.00000
5.79394	1.45375	3140.62500	6.00000
5.82864	1.45222	3136.71800	6.00000
5.86334	1.44800	3128.90600	6.00000
5.89804	1.45014	3121.09300	6.00000
5.93275	1.45479	3117.18700	6.00000
5.96746	1.45280	3121.09300	6.00000
6.00215	1.44936	3117.18700	6.00000
6.03686	1.45086	3105.46800	6.00000
6.11616	1.43699	3105.46800	6.00000
6.15087	1.43581	3097.65600	6.00000
6.18557	1.43320	3101.56200	6.00000
6.22027	1.43051	3097.65600	6.00000
6.25498	1.43316	3101.56200	6.00000
6.28967	1.43484	3154.13100	6.00000
6.32438	1.43234	3101.56200	6.00000
6.35909	1.42933	3097.65600	6.00000
6.39378	1.43496	3101.56200	6.00000
6.42848	1.43099	3101.56200	6.00000
6.46319	1.43297	3097.65600	6.00000
6.49790	1.43228	3097.65600	6.00000
6.53261	1.43376	3097.65600	6.00000
6.56730	1.43637	3150.15900	6.00000
6.60200	1.44269	3093.75000	6.00000
6.63672	1.44641	3093.75000	6.00000
6.67141	1.43350	3093.75000	6.00000
6.70611	1.43805	3146.18600	6.00000
6.74081	1.43209	3093.75000	6.00000
6.77553	1.43212	3101.56200	6.00000
6.81024	1.43897	3150.15900	6.00000
6.84492	1.43998	3097.65600	6.00000
6.87963	1.43674	3097.65600	6.00000
6.91433	1.44195	3109.37500	6.00000
6.94904	1.45656	3101.56200	6.00000
6.98374	1.44276	3154.13100	6.00000
7.01846	1.43873	3101.56200	6.00000
7.05316	1.43387	3101.56200	6.00000
7.08786	1.43116	3101.56200	6.00000
7.12257	1.43552	3101.56200	6.00000
7.15727	1.43477	3158.10300	6.00000
7.19197	1.43033	3101.56200	6.00000
7.22668	1.42319	3101.56200	6.00000
7.26138	1.42781	3109.37500	6.00000
7.29609	1.43193	3109.37500	6.00000
7.33078	1.43390	3109.37500	6.00000
7.36549	1.43672	3113.28100	6.00000
7.40019	1.43310	3113.28100	6.00000
7.43490	1.43435	3158.10300	6.00000
7.46961	1.47520	3105.46800	6.00000
7.50431	1.44629	3105.46800	6.00000
7.53901	1.43952	3162.07600	6.00000
7.57373	1.43500	3105.46800	6.00000
7.60842	1.43999	3101.56200	6.00000
7.64312	1.43520	3109.37500	6.00000
7.67782	1.43027	3109.37500	6.00000
7.71254	1.42735	3113.28100	6.00000
7.74724	1.42728	3113.28100	6.00000
7.78193	1.43022	3117.18700	6.00000
7.81665	1.43321	3121.09300	6.00000
7.85135	1.43813	3125.00000	6.00000
7.88605	1.43253	3121.09300	6.00000
7.92075	1.43307	3177.96600	6.00000
7.95545	1.43547	3121.09300	6.00000
7.99015	1.42966	3121.09300	6.00000
8.02487	1.42994	3121.09300	6.00000
8.05957	1.43582	3121.09300	6.00000
8.09427	1.42922	3121.09300	6.00000
8.12897	1.42783	3128.90600	6.00000
8.16368	1.42333	3170.02100	6.00000
8.19839	1.42417	3121.09300	6.00000
8.23308	1.42471	3166.04800	6.00000
8.26779	1.42179	3113.28100	6.00000
8.30249	1.42641	3166.04800	6.00000
8.33720	1.42452	3170.02100	6.00000
8.37190	1.42202	3109.37500	6.00000
8.40661	1.42117	3113.28100	6.00000
8.44131	1.42082	3109.37500	6.00000
8.47601	1.42419	3109.37500	6.00000
8.51073	1.42235	3113.28100	6.00000
8.54542	1.42429	3162.07600	6.00000
8.58012	1.41739	3109.37500	6.00000
8.61482	1.41792	3109.37500	6.00000
8.64954	1.41929	3109.37500	6.00000
8.68423	1.41867	3166.04800	6.00000
8.71893	1.42665	3121.09300	6.00000
8.75365	1.43711	3117.18700	6.00000
8.78834	1.45406	3117.18700	6.00000
8.82305	1.44693	3117.18700	6.00000
8.85775	1.43839	3166.04800	6.00000
8.89245	1.44143	3117.18700	6.00000
8.92717	1.44070	3173.99300	6.00000
8.96188	1.43799	3117.18700	6.00000
8.99658	1.43913	3173.99300	6.00000
9.03130	1.44168	3121.09300	6.00000
9.06599	1.43935	3117.18700	6.00000
9.10070	1.43202	3117.18700	6.00000
9.13541	1.42982	3117.18700	6.00000
9.17011	1.43269	3121.09300	6.00000
9.20482	1.43538	3117.18700	6.00000
9.23953	1.43188	3113.28100	6.00000
9.27423	1.42680	3113.28100	6.00000
9.30893	1.42334	3109.37500	6.00000
9.34364	1.41825	3109.37500	6.00000
9.37834	1.41501	3097.65600	6.00000
9.41304	1.41324	3101.56200	6.00000
9.44775	1.41180	3109.37500	6.00000
9.48245	1.41486	3113.28100	6.00000
9.51716	1.41915	3117.18700	6.00000
9.55180	1.43861	3117.18700	6.00000
9.58657	1.42876	3117.18700	6.00000
9.62127	1.42612	3121.09300	6.00000
9.65597	1.42301	3117.18700	6.00000
9.69069	1.44014	3121.09300	6.00000
9.72539	1.42946	3121.09300	6.00000
9.76009	1.42841	3121.09300	6.00000
9.79480	1.42762	3121.09300	6.00000
9.82951	1.42890	3121.09300	6.00000
9.86421	1.42779	3125.00000	6.00000
9.89893	1.43685	3121.09300	6.00000
9.93361	1.43092	3121.09300	6.00000
9.96833	1.43182	3125.00000	6.00000
