Time (s)   Thrust (N)   RPM  Input
0.00027	3.10925	4577.72900	7.00000
0.03321	3.23400	4623.84300	7.00000
0.15498	3.26106	4652.77800	7.00000
0.18965	3.27735	4696.18000	7.00000
0.22437	3.28843	4681.71300	7.00000
0.25906	3.29664	4704.86100	7.00000
0.29376	3.30429	4684.64100	7.00000
0.32846	3.30769	4722.22200	7.00000
0.36315	3.29759	4687.50000	7.00000
0.39787	3.30267	4725.11500	7.00000
0.47611	3.32627	4733.79600	7.00000
0.51082	3.30883	4762.73100	7.00000
0.54553	3.32407	4733.79600	7.00000
0.58022	3.33265	4736.69000	7.00000
0.61494	3.33102	4696.07400	7.00000
0.64964	3.33589	4736.69000	7.00000
0.68434	3.33211	4681.78300	7.00000
0.71899	3.32499	4716.08200	7.00000
0.75374	3.33275	4673.20900	7.00000
0.78843	3.32907	4701.79100	7.00000
0.82314	3.33107	4676.06700	7.00000
0.85784	3.34263	4736.69000	7.00000
0.89256	3.35860	4762.73100	7.00000
0.92726	3.33712	4736.69000	7.00000
0.96195	3.32704	4733.79600	7.00000
0.99666	3.32838	4698.93300	7.00000
1.03136	3.33593	4739.58300	7.00000
1.06606	3.34123	4707.50700	7.00000
1.10076	3.33203	4730.90300	7.00000
1.13547	3.33627	4728.00900	7.00000
1.17018	3.33169	4701.79100	7.00000
1.20487	3.31398	4728.00900	7.00000
1.23958	3.32354	4673.20900	7.00000
1.27428	3.32729	4701.79100	7.00000
1.30898	3.32219	4730.90300	7.00000
1.34368	3.32299	4704.64900	7.00000
1.37838	3.31275	4736.69000	7.00000
1.41310	3.31846	4673.20900	7.00000
1.44781	3.32435	4733.79600	7.00000
1.52604	3.32286	4673.20900	7.00000
1.56074	3.31894	4730.90300	7.00000
1.59545	3.30501	4765.62500	7.00000
1.63014	3.32266	4736.69000	7.00000
1.66485	3.31791	4733.79600	7.00000
1.69955	3.32329	4707.50700	7.00000
1.73425	3.32160	4733.79600	7.00000
1.76897	3.32314	4701.79100	7.00000
1.80367	3.32031	4733.79600	7.00000
1.83837	3.31955	4684.64100	7.00000
1.87307	3.31059	4710.36500	7.00000
1.90777	3.31741	4676.06700	7.00000
1.94247	3.32463	4739.58300	7.00000
1.97717	3.32501	4713.22400	7.00000
2.01187	3.32835	4736.69000	7.00000
2.04659	3.33706	4707.50700	7.00000
2.08127	3.33187	4736.69000	7.00000
2.11598	3.32280	4730.90300	7.00000
2.15068	3.32711	4704.64900	7.00000
2.18539	3.31836	4730.90300	7.00000
2.22008	3.33228	4673.20900	7.00000
2.25478	3.34981	4698.93300	7.00000
2.28950	3.33953	4728.00900	7.00000
2.32419	3.34878	4696.07400	7.00000
2.35889	3.37803	4728.00900	7.00000
2.39359	3.33786	4722.22200	7.00000
2.42830	3.33179	4719.32900	7.00000
2.50659	3.32783	4670.35000	7.00000
2.54129	3.32935	4725.11500	7.00000
2.57598	3.33982	4754.05100	7.00000
2.61069	3.32351	4670.35000	7.00000
2.64539	3.34180	4722.22200	7.00000
2.68009	3.33057	4756.94500	7.00000
2.71480	3.32001	4670.35000	7.00000
2.74951	3.32361	4698.93300	7.00000
2.78420	3.32094	4730.90300	7.00000
2.81891	3.32497	4673.20900	7.00000
2.89718	3.33540	4698.93300	7.00000
2.93189	3.31728	4681.78300	7.00000
2.96659	3.32623	4733.79600	7.00000
3.00129	3.31880	4704.64900	7.00000
3.03599	3.32195	4733.79600	7.00000
3.07069	3.33680	4733.79600	7.00000
3.10541	3.33877	4698.93300	7.00000
3.14010	3.32413	4739.58300	7.00000
3.17480	3.33734	4707.50700	7.00000
3.20950	3.32851	4739.58300	7.00000
3.24420	3.31673	4739.58300	7.00000
3.27891	3.32480	4768.51800	7.00000
3.31361	3.33503	4739.58300	7.00000
3.34831	3.30351	4733.79600	7.00000
3.38302	3.33513	4710.36500	7.00000
3.41772	3.32723	4742.47600	7.00000
3.45241	3.35232	4701.79100	7.00000
3.48712	3.33379	4739.58300	7.00000
3.52182	3.34674	4736.69000	7.00000
3.55652	3.33790	4762.73100	7.00000
3.59122	3.33816	4745.37000	7.00000
3.66972	3.32733	4739.58300	7.00000
3.70443	3.30605	4707.50700	7.00000
3.73912	3.31838	4687.50000	7.00000
3.77383	3.32945	4748.26400	7.00000
3.80854	3.33046	4693.21700	7.00000
3.84324	3.32510	4748.26400	7.00000
3.87796	3.32054	4724.65700	7.00000
3.91265	3.33876	4687.50000	7.00000
3.94734	3.34530	4742.47600	7.00000
3.98204	3.32678	4721.79900	7.00000
4.01674	3.32372	4745.37000	7.00000
4.05145	3.30686	4742.47600	7.00000
4.08613	3.31467	4754.05100	7.00000
4.12084	3.31715	4742.47600	7.00000
4.15556	3.31243	4716.08200	7.00000
4.19025	3.30023	4745.37000	7.00000
4.22495	3.31040	4690.35800	7.00000
4.25965	3.30891	4774.30500	7.00000
4.29435	3.31190	4754.05100	7.00000
4.32906	3.30769	4759.83800	7.00000
4.36376	3.30702	4713.22400	7.00000
4.39846	3.31106	4762.73100	7.00000
4.43317	3.31163	4733.23100	7.00000
4.46787	3.30751	4765.62500	7.00000
4.50257	3.31262	4765.62500	7.00000
4.53727	3.31666	4730.37300	7.00000
4.57198	3.30341	4701.79100	7.00000
4.60667	3.31308	4730.37300	7.00000
4.64137	3.30495	4771.41200	7.00000
4.67607	3.31834	4771.41200	7.00000
4.71078	3.31509	4738.94800	7.00000
4.74548	3.30680	4774.30500	7.00000
4.78020	3.30671	4771.41200	7.00000
4.81488	3.31053	4750.38100	7.00000
4.84958	3.29656	4724.65700	7.00000
4.88430	3.30624	4695.97100	7.00000
4.91901	3.28634	4724.65700	7.00000
4.95371	3.31015	4724.65700	7.00000
4.98839	3.30987	4744.66400	7.00000
5.02360	3.29617	4601.46400	6.78750
5.14627	3.06420	4500.59300	6.78750
5.18094	3.01110	4556.61500	6.78750
5.21564	2.99541	4507.21200	6.78750
5.25033	2.94379	4489.65100	6.78750
5.28503	2.93204	4453.12500	6.78750
5.31973	2.93279	4471.38800	6.78750
5.35442	2.92795	4477.79600	6.78750
5.38913	2.88838	4462.37700	6.78750
5.42383	2.88047	4395.29200	6.78750
5.45853	2.88506	4425.73000	6.78750
5.49323	2.88184	4386.16000	6.78750
5.52793	2.88231	4440.78900	6.78750
5.56263	2.87222	4437.70500	6.78750
5.59734	2.87878	4404.42400	6.78750
5.63204	2.87596	4431.53700	6.78750
5.66674	2.87211	4428.45400	6.78750
5.70146	2.87017	4395.29200	6.78750
5.73614	2.86658	4425.37000	6.78750
5.77085	2.89187	4422.28600	6.78750
5.80555	2.88011	4413.03400	6.78750
5.84025	2.87360	4386.16000	6.78750
5.87497	2.86298	4416.11800	6.78750
5.90965	2.86904	4413.03400	6.78750
5.94435	2.87014	4409.95000	6.78750
5.97906	2.87330	4440.78900	6.78750
6.01376	2.86330	4409.95000	6.78750
6.04845	2.86313	4413.03400	6.78750
6.08316	2.85495	4409.95000	6.78750
6.16210	2.87210	4403.78300	6.78750
6.19679	2.86593	4431.53700	6.78750
6.23149	2.86353	4406.86600	6.78750
6.26618	2.86813	4403.78300	6.78750
6.30088	2.86715	4409.95000	6.78750
6.33559	2.86441	4373.98500	6.78750
6.37028	2.85441	4465.62500	6.78750
6.40498	2.87874	4403.78300	6.78750
6.43969	2.86024	4434.62100	6.78750
6.47439	2.85576	4406.86600	6.78750
6.50909	2.86556	4409.95000	6.78750
6.54379	2.86894	4403.78300	6.78750
6.57850	2.86935	4437.70500	6.78750
6.61319	2.86631	4406.86600	6.78750
6.64788	2.85884	4413.03400	6.78750
6.68258	2.85853	4416.11800	6.78750
6.71728	2.86055	4373.98500	6.78750
6.75198	2.86392	4409.95000	6.78750
6.78667	2.85876	4413.03400	6.78750
6.82137	2.86431	4409.95000	6.78750
6.85608	2.87222	4380.07300	6.78750
6.89078	2.86219	4409.95000	6.78750
6.92547	2.86698	4406.86600	6.78750
6.96019	2.86882	4406.86600	6.78750
6.99488	2.86020	4383.11600	6.78750
7.02958	2.85920	4409.95000	6.78750
7.06427	2.86072	4409.95000	6.78750
7.09897	2.86084	4413.03400	6.78750
7.13366	2.86091	4416.11800	6.78750
7.16837	2.87126	4413.03400	6.78750
7.20306	2.86466	4409.95000	6.78750
7.23777	2.87022	4443.87300	6.78750
7.27247	2.87082	4409.95000	6.78750
7.30717	2.87245	4406.86600	6.78750
7.34188	2.86516	4406.86600	6.78750
7.37657	2.86917	4437.70500	6.78750
7.41127	2.87505	4403.78300	6.78750
7.44596	2.85310	4400.69900	6.78750
7.48066	2.85977	4403.78300	6.78750
7.51538	2.85479	4377.02900	6.78750
7.55008	2.86291	4403.78300	6.78750
7.58477	2.87138	4406.86600	6.78750
7.61947	2.86555	4406.86600	6.78750
7.65419	2.87560	4440.78900	6.78750
7.68888	2.86931	4409.95000	6.78750
7.72358	2.89099	4409.95000	6.78750
7.75828	2.87621	4406.86600	6.78750
7.79301	2.87355	4377.02900	6.78750
7.82768	2.89117	4403.78300	6.78750
7.86239	2.86818	4456.25000	6.78750
7.89708	2.86658	4373.98500	6.78750
7.93178	2.87517	4400.69900	6.78750
7.96649	2.86581	4400.69900	6.78750
8.00119	2.85949	4397.61500	6.78750
8.03589	2.86465	4377.02900	6.78750
8.07059	2.86484	4403.78300	6.78750
8.10529	2.87885	4403.78300	6.78750
8.13999	2.85921	4406.86600	6.78750
8.17469	2.88805	4425.37000	6.78750
8.20939	2.86949	4403.78300	6.78750
8.24410	2.86229	4409.95000	6.78750
8.27881	2.86762	4403.78300	6.78750
8.31350	2.86191	4377.02900	6.78750
8.34820	2.86776	4403.78300	6.78750
8.38291	2.86023	4406.86600	6.78750
8.41760	2.86925	4409.95000	6.78750
8.45231	2.86915	4383.11600	6.78750
8.48701	2.86836	4409.95000	6.78750
8.52172	2.86764	4409.95000	6.78750
8.55641	2.85569	4413.03400	6.78750
8.59114	2.87939	4389.20400	6.78750
8.62582	2.86617	4416.11800	6.78750
8.66052	2.86571	4419.20200	6.78750
8.69522	2.86886	4386.16000	6.78750
8.72992	2.87051	4416.11800	6.78750
8.76462	2.86726	4416.11800	6.78750
8.79934	2.86789	4416.11800	6.78750
8.83403	2.86689	4386.16000	6.78750
8.86873	2.81368	4413.03400	6.78750
8.90342	2.86261	4416.11800	6.78750
8.93814	2.84958	4416.11800	6.78750
8.97284	2.85943	4450.04100	6.78750
9.00753	2.86380	4422.28600	6.78750
9.04224	2.86787	4422.28600	6.78750
9.07694	2.86946	4367.89800	6.78750
9.11164	2.87610	4401.38000	6.78750
9.14634	2.86762	4425.37000	6.78750
9.18105	2.86436	4425.37000	6.78750
9.21575	2.86441	4425.37000	6.78750
9.25046	2.87206	4392.24800	6.78750
9.28515	2.85908	4422.28600	6.78750
9.31986	2.86564	4419.20200	6.78750
9.35456	2.87409	4453.12500	6.78750
9.38925	2.87756	4422.28600	6.78750
9.42396	2.87835	4422.28600	6.78750
9.45866	2.87486	4422.28600	6.78750
9.49337	2.87665	4395.29200	6.78750
9.52807	2.87034	4419.20200	6.78750
9.56277	2.87642	4419.20200	6.78750
9.59747	2.86894	4416.11800	6.78750
9.63218	2.86725	4450.04100	6.78750
9.66689	2.86811	4413.03400	6.78750
9.74642	2.85781	4409.95000	6.78750
9.78112	2.86259	4406.86600	6.78750
9.81582	2.85350	4406.86600	6.78750
9.85052	2.85667	4437.70500	6.78750
9.88523	2.85719	4403.78300	6.78750
9.91992	2.85953	4406.86600	6.78750
9.99851	2.85643	4406.86600	6.78750
