Time (s)   Thrust (N)   RPM  Input
0.00022	1.64908	3442.38200	7.00000
0.03002	1.99859	3893.42300	7.00000
0.06470	2.36126	4073.50300	7.00000
0.09940	2.61754	4202.47400	7.00000
0.13410	2.83565	4323.26800	7.00000
0.16879	2.94776	4400.69900	7.00000
0.20349	3.03618	4480.51900	7.00000
0.23821	3.13251	4507.21200	7.00000
0.27290	3.18932	4567.30700	7.00000
0.30761	3.21688	4574.76200	7.00000
0.34232	3.27988	4576.17200	7.00000
0.37702	3.30644	4590.82000	7.00000
0.41171	3.31924	4611.32800	7.00000
0.44642	3.34379	4658.20300	7.00000
0.48113	3.34805	4643.55400	7.00000
0.51582	3.34641	4649.41400	7.00000
0.55053	3.34949	4626.73600	7.00000
0.58523	3.37001	4664.06200	7.00000
0.61994	3.35830	4666.99200	7.00000
0.65465	3.36644	4635.41700	7.00000
0.68934	3.37307	4666.99200	7.00000
0.72405	3.37174	4669.92200	7.00000
0.75876	3.37339	4641.20300	7.00000
0.79345	3.37175	4678.71100	7.00000
0.82816	3.37277	4710.93700	7.00000
0.86286	3.34000	4615.16200	7.00000
0.89756	3.37416	4675.78100	7.00000
0.93228	3.37333	4699.21900	7.00000
0.96697	3.36636	4620.94900	7.00000
1.00167	3.37079	4678.71100	7.00000
1.03637	3.37594	4641.20300	7.00000
1.07108	3.37468	4675.78100	7.00000
1.10579	3.36515	4675.78100	7.00000
1.14049	3.37815	4641.20300	7.00000
1.17519	3.37695	4669.92200	7.00000
1.20990	3.36857	4672.85100	7.00000
1.24460	3.36946	4646.99000	7.00000
1.27931	3.37302	4672.85100	7.00000
1.31401	3.36858	4672.85100	7.00000
1.34870	3.37860	4641.20300	7.00000
1.38341	3.37782	4669.92200	7.00000
1.41812	3.38336	4672.85100	7.00000
1.45282	3.38133	4666.99200	7.00000
1.48754	3.38306	4606.48100	7.00000
1.52223	3.37713	4635.41700	7.00000
1.55694	3.38140	4664.06200	7.00000
1.59163	3.37551	4666.99200	7.00000
1.62634	3.37816	4635.41700	7.00000
1.66104	3.37277	4669.92200	7.00000
1.69575	3.37980	4672.85100	7.00000
1.73045	3.37319	4693.35900	7.00000
1.76515	3.37771	4603.58800	7.00000
1.79986	3.37329	4664.06200	7.00000
1.83455	3.37357	4632.52300	7.00000
1.86927	3.36764	4664.06200	7.00000
1.90396	3.36635	4664.06200	7.00000
1.93867	3.36783	4638.31000	7.00000
1.97337	3.36581	4664.06200	7.00000
2.00807	3.36910	4664.06200	7.00000
2.04278	3.35419	4693.35900	7.00000
2.07749	3.36699	4600.69400	7.00000
2.11220	3.36604	4661.13300	7.00000
2.14690	3.37024	4672.85100	7.00000
2.18159	3.37082	4664.06200	7.00000
2.21629	3.35655	4696.28900	7.00000
2.25100	3.36576	4606.48100	7.00000
2.28570	3.36054	4664.06200	7.00000
2.32040	3.35270	4696.28900	7.00000
2.35511	3.36801	4609.37500	7.00000
2.38980	3.36581	4678.71100	7.00000
2.42452	3.36626	4702.14800	7.00000
2.45922	3.36908	4615.16200	7.00000
2.49393	3.36425	4672.85100	7.00000
2.52863	3.35871	4708.00800	7.00000
2.56333	3.35471	4675.78100	7.00000
2.59803	3.36335	4675.78100	7.00000
2.63273	3.36867	4641.20300	7.00000
2.66744	3.36833	4684.57000	7.00000
2.70215	3.36873	4618.05500	7.00000
2.73685	3.36998	4652.77800	7.00000
2.77149	3.37540	4672.85100	7.00000
2.80625	3.37518	4644.09700	7.00000
2.84096	3.36804	4675.78100	7.00000
2.87565	3.36636	4612.26800	7.00000
2.91036	3.36953	4646.99000	7.00000
2.94506	3.36773	4666.99200	7.00000
2.97977	3.37099	4666.99200	7.00000
3.01448	3.36481	4641.20300	7.00000
3.04917	3.37234	4669.92200	7.00000
3.08387	3.37135	4669.92200	7.00000
3.11858	3.37151	4635.41700	7.00000
3.15330	3.37582	4675.78100	7.00000
3.18798	3.36864	4672.85100	7.00000
3.22269	3.37558	4638.31000	7.00000
3.25739	3.37217	4669.92200	7.00000
3.29210	3.37017	4675.78100	7.00000
3.32681	3.37092	4644.09700	7.00000
3.36150	3.35832	4678.71100	7.00000
3.39621	3.37253	4620.94900	7.00000
3.43091	3.37358	4632.52300	7.00000
3.46561	3.35758	4678.71100	7.00000
3.50031	3.36230	4649.88400	7.00000
3.53502	3.36710	4678.71100	7.00000
3.56971	3.36047	4672.85100	7.00000
3.60442	3.35405	4646.99000	7.00000
3.63914	3.36336	4675.78100	7.00000
3.67383	3.35876	4615.16200	7.00000
3.70854	3.36386	4646.99000	7.00000
3.74318	3.35144	4675.78100	7.00000
3.77795	3.36776	4681.64000	7.00000
3.81265	3.36749	4652.77800	7.00000
3.84735	3.36495	4681.64000	7.00000
3.88206	3.36434	4678.71100	7.00000
3.91675	3.36873	4649.88400	7.00000
3.95146	3.37223	4678.71100	7.00000
3.98616	3.36000	4620.94900	7.00000
4.02085	3.36162	4644.09700	7.00000
4.05557	3.36292	4620.94900	7.00000
4.09027	3.35930	4649.88400	7.00000
4.12498	3.36076	4623.84300	7.00000
4.15967	3.36580	4684.57000	7.00000
4.19437	3.36626	4708.00800	7.00000
4.22907	3.36281	4684.57000	7.00000
4.26379	3.35560	4684.57000	7.00000
4.29848	3.36400	4649.88400	7.00000
4.33318	3.36411	4681.64000	7.00000
4.36789	3.36608	4675.78100	7.00000
4.40259	3.36344	4646.99000	7.00000
4.43729	3.36297	4615.16200	7.00000
4.47199	3.34729	4675.78100	7.00000
4.50670	3.36066	4702.14800	7.00000
4.54141	3.36436	4620.94900	7.00000
4.57612	3.35547	4681.64000	7.00000
4.61083	3.35756	4644.09700	7.00000
4.64552	3.35778	4678.71100	7.00000
4.68022	3.35843	4644.09700	7.00000
4.71488	3.36048	4675.78100	7.00000
4.74964	3.36157	4675.78100	7.00000
4.78433	3.36642	4644.09700	7.00000
4.81904	3.35497	4684.57000	7.00000
4.85375	3.35647	4623.84300	7.00000
4.88847	3.36303	4655.67100	7.00000
4.92317	3.37080	4687.50000	7.00000
4.95786	3.36472	4684.57000	7.00000
4.99257	3.36519	4649.88400	7.00000
5.02765	3.36582	4678.71100	6.00000
5.06199	3.18744	4375.00000	6.00000
5.09669	2.79879	4065.75500	6.00000
5.13138	2.52671	3957.96600	6.00000
5.16612	2.29174	3805.14700	6.00000
5.20081	2.12355	3693.18200	6.00000
5.23549	1.99138	3573.31700	6.00000
5.27020	1.88875	3431.39600	6.00000
5.30492	1.79867	3381.69600	6.00000
5.33961	1.73922	3353.07400	6.00000
5.37432	1.68398	3292.59000	6.00000
5.40900	1.63510	3288.93400	6.00000
5.44373	1.61965	3238.98500	6.00000
5.47842	1.56582	3204.40500	6.00000
5.51313	1.54868	3177.51000	6.00000
5.54782	1.52837	3142.93000	6.00000
5.58252	1.52036	3175.78100	6.00000
5.61722	1.51891	3164.06200	6.00000
5.65193	1.49116	3156.25000	6.00000
5.68664	1.48925	3144.53100	6.00000
5.72134	1.50023	3128.90600	6.00000
5.75604	1.48131	3125.00000	6.00000
5.79075	1.47432	3121.09300	6.00000
5.82544	1.46907	3109.37500	6.00000
5.86015	1.46098	3105.46800	6.00000
5.89485	1.45788	3162.07600	6.00000
5.92956	1.47109	3105.46800	6.00000
5.96426	1.45792	3109.37500	6.00000
5.99897	1.46645	3154.13100	6.00000
6.03366	1.45127	3101.56200	6.00000
6.06837	1.45615	3154.13100	6.00000
6.10308	1.45748	3097.65600	6.00000
6.13779	1.47709	3101.56200	6.00000
6.17250	1.46672	3101.56200	6.00000
6.20720	1.46008	3154.13100	6.00000
6.24190	1.46625	3097.65600	6.00000
6.27660	1.45343	3150.15900	6.00000
6.31130	1.45163	3093.75000	6.00000
6.34602	1.46194	3093.75000	6.00000
6.38071	1.46085	3097.65600	6.00000
6.41540	1.46203	3093.75000	6.00000
6.45011	1.45851	3097.65600	6.00000
6.48483	1.44834	3089.84300	6.00000
6.51952	1.43974	3085.93700	6.00000
6.55423	1.44716	3142.21300	6.00000
6.58895	1.44433	3082.03100	6.00000
6.62364	1.44641	3085.93700	6.00000
6.65836	1.44065	3082.03100	6.00000
6.69304	1.44416	3078.12500	6.00000
6.72776	1.45007	3082.03100	6.00000
6.76246	1.45025	3134.26900	6.00000
6.79716	1.46069	3138.24100	6.00000
6.83187	1.45032	3138.24100	6.00000
6.86657	1.45239	3085.93700	6.00000
6.90127	1.45250	3089.84300	6.00000
6.93597	1.44820	3093.75000	6.00000
6.97067	1.44919	3146.18600	6.00000
7.00539	1.45107	3142.21300	6.00000
7.04008	1.44843	3093.75000	6.00000
7.07478	1.44911	3089.84300	6.00000
7.10948	1.44478	3142.21300	6.00000
7.14419	1.44250	3093.75000	6.00000
7.17889	1.43795	3085.93700	6.00000
7.21360	1.44064	3085.93700	6.00000
7.24829	1.43589	3085.93700	6.00000
7.28300	1.43797	3142.21300	6.00000
7.31771	1.44730	3142.21300	6.00000
7.35242	1.48490	3085.93700	6.00000
7.38711	1.44050	3085.93700	6.00000
7.42182	1.45543	3085.93700	6.00000
7.45652	1.45062	3089.84300	6.00000
7.49123	1.44367	3142.21300	6.00000
7.52593	1.44762	3138.24100	6.00000
7.56062	1.44746	3089.84300	6.00000
7.59533	1.44528	3082.03100	6.00000
7.63005	1.44142	3078.12500	6.00000
7.66474	1.44095	3074.21800	6.00000
7.69944	1.44933	3078.12500	6.00000
7.73414	1.45785	3078.12500	6.00000
7.76884	1.44700	3082.03100	6.00000
7.80354	1.44333	3078.12500	6.00000
7.83826	1.43579	3082.03100	6.00000
7.87295	1.44135	3085.93700	6.00000
7.90766	1.45209	3085.93700	6.00000
7.94237	1.45407	3089.84300	6.00000
7.97708	1.43946	3089.84300	6.00000
8.01176	1.45206	3093.75000	6.00000
8.04648	1.44626	3146.18600	6.00000
8.08118	1.44968	3101.56200	6.00000
8.11588	1.45516	3097.65600	6.00000
8.19548	1.45020	3097.65600	6.00000
8.23018	1.44834	3097.65600	6.00000
8.26489	1.42946	3089.84300	6.00000
8.29959	1.43573	3085.93700	6.00000
8.33429	1.44102	3142.21300	6.00000
8.36901	1.43941	3082.03100	6.00000
8.40372	1.43334	3082.03100	6.00000
8.43842	1.52592	3082.03100	6.00000
8.47312	1.44555	3082.03100	6.00000
8.50781	1.43992	3089.84300	6.00000
8.54253	1.43281	3142.21300	6.00000
8.57723	1.43262	3146.18600	6.00000
8.61195	1.43390	3146.18600	6.00000
8.64664	1.43356	3089.84300	6.00000
8.68134	1.43269	3093.75000	6.00000
8.71605	1.43229	3142.21300	6.00000
8.75077	1.43632	3093.75000	6.00000
8.78545	1.43909	3093.75000	6.00000
8.82017	1.47338	3093.75000	6.00000
8.85486	1.46172	3093.75000	6.00000
8.88956	1.44238	3085.93700	6.00000
8.92427	1.45180	3089.84300	6.00000
8.95898	1.45264	3089.84300	6.00000
8.99368	1.45281	3085.93700	6.00000
9.02839	1.45204	3085.93700	6.00000
9.06308	1.45473	3134.26900	6.00000
9.09778	1.44941	3130.29600	6.00000
9.13249	1.44135	3130.29600	6.00000
9.16721	1.44541	3126.32400	6.00000
9.20190	1.46394	3126.32400	6.00000
9.23660	1.44674	3082.03100	6.00000
9.27130	1.45268	3082.03100	6.00000
9.30601	1.44435	3085.93700	6.00000
9.34073	1.44226	3085.93700	6.00000
9.37543	1.43883	3089.84300	6.00000
9.41012	1.43674	3142.21300	6.00000
9.44483	1.43755	3138.24100	6.00000
9.47954	1.43779	3138.24100	6.00000
9.51423	1.44125	3089.84300	6.00000
9.54894	1.44053	3089.84300	6.00000
9.58365	1.43617	3093.75000	6.00000
9.61836	1.43959	3142.21300	6.00000
9.65307	1.45013	3142.21300	6.00000
9.68777	1.44679	3097.65600	6.00000
9.72247	1.44865	3093.75000	6.00000
9.75717	1.44716	3154.13100	6.00000
9.79191	1.44394	3089.84300	6.00000
9.87017	1.44082	3082.03100	6.00000
9.90488	1.43652	3085.93700	6.00000
9.93957	1.44855	3082.03100	6.00000
9.97428	1.43971	3142.21300	6.00000
