Time (s)   Thrust (N)   RPM  Input
0.00023	2.68005	4256.75700	7.00000
0.03329	2.75867	4376.02800	7.00000
0.06798	2.91202	4440.94900	7.00000
0.10268	2.97652	4495.19200	7.00000
0.13740	3.14010	4648.93200	7.00000
0.21662	3.17085	4646.48400	7.00000
0.25132	3.19341	4666.99200	7.00000
0.28602	3.21951	4705.07800	7.00000
0.32074	3.26425	4678.81900	7.00000
0.35544	3.25388	4687.50000	7.00000
0.39015	3.26327	4704.86100	7.00000
0.42484	3.35250	4739.58300	7.00000
0.45954	3.28966	4661.77600	7.00000
0.49425	3.28656	4725.11500	7.00000
0.52894	3.29137	4696.07400	7.00000
0.56365	3.28651	4667.49200	7.00000
0.59836	3.29426	4696.07400	7.00000
0.63306	3.30411	4728.00900	7.00000
0.66776	3.28283	4733.79600	7.00000
0.70244	3.28269	4704.64900	7.00000
0.73716	3.28623	4739.58300	7.00000
0.77186	3.28053	4742.47600	7.00000
0.80656	3.28110	4716.08200	7.00000
0.84127	3.29577	4739.58300	7.00000
0.87597	3.29020	4707.50700	7.00000
0.91068	3.30414	4742.47600	7.00000
0.94539	3.29946	4739.58300	7.00000
0.98008	3.30492	4707.50700	7.00000
1.01478	3.30067	4742.47600	7.00000
1.04949	3.30092	4687.50000	7.00000
1.08418	3.29761	4707.50700	7.00000
1.11890	3.30298	4676.06700	7.00000
1.15359	3.29164	4716.08200	7.00000
1.18831	3.30975	4681.78300	7.00000
1.22301	3.28196	4733.79600	7.00000
1.25770	3.31374	4710.36500	7.00000
1.29240	3.31079	4739.58300	7.00000
1.32710	3.31702	4736.69000	7.00000
1.36181	3.31459	4698.93300	7.00000
1.39653	3.30811	4678.92500	7.00000
1.43121	3.31114	4707.50700	7.00000
1.46592	3.31146	4673.20900	7.00000
1.50062	3.31669	4730.90300	7.00000
1.53531	3.32035	4759.83800	7.00000
1.57002	3.31883	4667.49200	7.00000
1.60471	3.31562	4725.11500	7.00000
1.63946	3.30345	4725.11500	7.00000
1.71775	3.29475	4728.00900	7.00000
1.75245	3.32793	4725.11500	7.00000
1.78715	3.30815	4698.93300	7.00000
1.82187	3.30768	4728.00900	7.00000
1.85657	3.32715	4728.00900	7.00000
1.93485	3.31325	4678.92500	7.00000
1.96955	3.31560	4728.00900	7.00000
2.00424	3.31053	4751.15700	7.00000
2.03895	3.31249	4670.35000	7.00000
2.07365	3.30540	4725.11500	7.00000
2.10836	3.31144	4693.21700	7.00000
2.14307	3.30517	4719.32900	7.00000
2.17777	3.31315	4664.63400	7.00000
2.21247	3.31004	4690.35800	7.00000
2.24717	3.31398	4716.43500	7.00000
2.28188	3.30394	4745.37000	7.00000
2.31659	3.31639	4658.91700	7.00000
2.35129	3.31372	4716.43500	7.00000
2.38600	3.31375	4684.64100	7.00000
2.42070	3.30927	4719.32900	7.00000
2.45541	3.32506	4713.54100	7.00000
2.49011	3.32175	4696.07400	7.00000
2.52482	3.32334	4710.64800	7.00000
2.55951	3.31640	4684.64100	7.00000
2.59422	3.32338	4716.43500	7.00000
2.62893	3.31313	4716.43500	7.00000
2.66362	3.32218	4742.47600	7.00000
2.69834	3.30180	4661.77600	7.00000
2.73304	3.31840	4661.77600	7.00000
2.76774	3.31802	4684.64100	7.00000
2.80245	3.31637	4719.32900	7.00000
2.83715	3.30178	4716.43500	7.00000
2.87186	3.31123	4693.21700	7.00000
2.90656	3.31222	4719.32900	7.00000
2.94126	3.25651	4693.21700	7.00000
2.97596	3.26633	4716.43500	7.00000
3.01068	3.32956	4716.43500	7.00000
3.04538	3.30629	4687.50000	7.00000
3.08008	3.30224	4719.32900	7.00000
3.11479	3.28426	4722.22200	7.00000
3.14948	3.30011	4751.15700	7.00000
3.18420	3.31352	4664.63400	7.00000
3.21889	3.30782	4693.21700	7.00000
3.25359	3.30532	4722.22200	7.00000
3.28832	3.30630	4719.32900	7.00000
3.32302	3.31109	4687.50000	7.00000
3.35771	3.31290	4719.32900	7.00000
3.39242	3.31582	4725.11500	7.00000
3.42712	3.30811	4748.26400	7.00000
3.46184	3.30579	4664.63400	7.00000
3.49653	3.30986	4722.22200	7.00000
3.53122	3.31021	4736.69000	7.00000
3.56594	3.30841	4719.32900	7.00000
3.60065	3.30209	4698.93300	7.00000
3.63536	3.31286	4716.43500	7.00000
3.67006	3.30430	4719.32900	7.00000
3.70477	3.30869	4745.37000	7.00000
3.73946	3.30773	4713.54100	7.00000
3.77416	3.31081	4658.91700	7.00000
3.80887	3.33232	4681.78300	7.00000
3.84357	3.31444	4710.64800	7.00000
3.87828	3.30746	4739.58300	7.00000
3.91299	3.31014	4716.43500	7.00000
3.94769	3.31353	4710.64800	7.00000
3.98239	3.31846	4739.58300	7.00000
4.01709	3.31562	4713.54100	7.00000
4.05180	3.31661	4656.05900	7.00000
4.08651	3.31228	4678.92500	7.00000
4.12121	3.31794	4710.64800	7.00000
4.15592	3.31686	4713.54100	7.00000
4.19064	3.31350	4719.32900	7.00000
4.22533	3.32341	4704.86100	7.00000
4.30360	3.33160	4673.20900	7.00000
4.33829	3.32462	4701.96700	7.00000
4.37301	3.32945	4704.86100	7.00000
4.40770	3.32532	4673.20900	7.00000
4.44242	3.32110	4707.75500	7.00000
4.47712	3.31994	4710.64800	7.00000
4.51183	3.32413	4670.35000	7.00000
4.54653	3.32187	4710.64800	7.00000
4.58123	3.32498	4704.86100	7.00000
4.61594	3.31560	4673.20900	7.00000
4.65065	3.31480	4710.64800	7.00000
4.68536	3.31943	4687.50000	7.00000
4.72006	3.31250	4710.64800	7.00000
4.75476	3.32108	4710.64800	7.00000
4.78948	3.32121	4736.69000	7.00000
4.82418	3.32565	4710.64800	7.00000
4.85888	3.31955	4710.64800	7.00000
4.89358	3.31535	4673.20900	7.00000
4.92829	3.30926	4716.43500	7.00000
4.96299	3.30896	4687.50000	7.00000
4.99770	3.30884	4710.64800	7.00000
5.03283	3.30217	4690.39300	6.56250
5.06715	3.21433	4614.25800	6.56250
5.10183	3.03519	4480.51900	6.56250
5.13653	2.89798	4396.87500	6.56250
5.17125	2.78741	4310.59900	6.56250
5.20597	2.70679	4282.09400	6.56250
5.24064	2.64444	4221.96000	6.56250
5.27535	2.59991	4151.32600	6.56250
5.31005	2.56501	4166.66700	6.56250
5.34476	2.54074	4127.60400	6.56250
5.37945	2.52426	4101.56200	6.56250
5.41415	2.49397	4114.58300	6.56250
5.44886	2.49643	4078.77600	6.56250
5.48360	2.48273	4123.01900	6.56250
5.51828	2.48541	4059.24400	6.56250
5.55297	2.47407	4113.11600	6.56250
5.58768	2.47384	4049.47900	6.56250
5.62237	2.48391	4103.21300	6.56250
5.65708	2.47563	4126.32000	6.56250
5.69178	2.47382	4099.91200	6.56250
5.72650	2.47457	4036.45800	6.56250
5.76119	2.47179	4096.61000	6.56250
5.79589	2.47065	4096.61000	6.56250
5.83060	2.46725	4099.91200	6.56250
5.86529	2.46529	4090.00800	6.56250
5.90001	2.46549	4065.75500	6.56250
5.93470	2.47362	4093.30900	6.56250
6.01320	2.47080	4055.98900	6.56250
6.04790	2.47255	4096.61000	6.56250
6.08260	2.46852	4090.00800	6.56250
6.11731	2.46606	4093.30900	6.56250
6.15201	2.46896	4090.00800	6.56250
6.18671	2.46541	4093.30900	6.56250
6.22142	2.46655	4090.00800	6.56250
6.25612	2.47092	4055.98900	6.56250
6.29084	2.46421	4093.30900	6.56250
6.32554	2.46106	4096.61000	6.56250
6.36023	2.46493	4090.00800	6.56250
6.39494	2.48015	4093.30900	6.56250
6.42965	2.46883	4033.20300	6.56250
6.46434	2.47068	4093.30900	6.56250
6.49905	2.46396	4062.50000	6.56250
6.53375	2.47189	4099.91200	6.56250
6.56846	2.46815	4090.00800	6.56250
6.60317	2.48064	4036.45800	6.56250
6.63785	2.47694	4033.20300	6.56250
6.67256	2.47655	4093.30900	6.56250
6.70727	2.48934	4086.70700	6.56250
6.74198	2.48196	4090.00800	6.56250
6.82072	2.47251	4090.00800	6.56250
6.85542	2.47817	4086.70700	6.56250
6.93487	2.49033	4090.00800	6.56250
6.96957	2.48767	4029.94800	6.56250
7.00427	2.48440	4052.73400	6.56250
7.03898	2.47969	4090.00800	6.56250
7.07368	2.47034	4090.00800	6.56250
7.10838	2.47366	4093.30900	6.56250
7.14310	2.47573	4090.00800	6.56250
7.17779	2.47267	4090.00800	6.56250
7.21250	2.47264	4093.30900	6.56250
7.24720	2.46845	4055.98900	6.56250
7.28191	2.47172	4093.30900	6.56250
7.36129	2.47021	4090.00800	6.56250
7.39600	2.46342	4046.22400	6.56250
7.43068	2.47917	4099.91200	6.56250
7.46540	2.47121	4093.30900	6.56250
7.50009	2.47480	4096.61000	6.56250
7.53480	2.48451	4093.30900	6.56250
7.56952	2.48705	4090.00800	6.56250
7.60421	2.48304	4036.45800	6.56250
7.63890	2.48292	4033.20300	6.56250
7.67361	2.48565	4029.94800	6.56250
7.70832	2.48332	4029.94800	6.56250
7.74302	2.48177	4083.40600	6.56250
7.77772	2.49967	4029.94800	6.56250
7.81244	2.49340	4023.43700	6.56250
7.84714	2.49974	4046.22400	6.56250
7.88184	2.50197	4080.10500	6.56250
7.96121	2.49634	4076.80400	6.56250
7.99592	2.49493	4049.47900	6.56250
8.03062	2.49124	4080.10500	6.56250
8.06532	2.49232	4076.80400	6.56250
8.10003	2.48219	4080.10500	6.56250
8.13473	2.47785	4020.18200	6.56250
8.16945	2.48096	4083.40600	6.56250
8.20414	2.47962	4080.10500	6.56250
8.28304	2.49317	4073.50300	6.56250
8.31773	2.49201	4083.40600	6.56250
8.35242	2.48589	4076.80400	6.56250
8.38713	2.48309	4049.47900	6.56250
8.42182	2.48358	4076.80400	6.56250
8.45654	2.48320	4076.80400	6.56250
8.49123	2.48651	4080.10500	6.56250
8.52594	2.47828	4080.10500	6.56250
8.56064	2.48559	4080.10500	6.56250
8.59534	2.49013	4076.80400	6.56250
8.63005	2.48480	4099.91200	6.56250
8.66476	2.48180	4076.80400	6.56250
8.69946	2.47255	4083.40600	6.56250
8.73416	2.47442	4080.10500	6.56250
8.76887	2.50319	4086.70700	6.56250
8.80357	2.48304	4086.70700	6.56250
8.83827	2.48424	4090.00800	6.56250
8.87298	2.46670	4049.47900	6.56250
8.90767	2.47400	4033.20300	6.56250
8.94238	2.47068	4093.30900	6.56250
8.97709	2.48616	4090.00800	6.56250
9.01179	2.47999	4093.30900	6.56250
9.04651	2.47465	4090.00800	6.56250
9.08120	2.48467	4096.61000	6.56250
9.11592	2.48257	4065.75500	6.56250
9.15061	2.47630	4033.20300	6.56250
9.18532	2.48052	4090.00800	6.56250
9.22003	2.48128	4090.00800	6.56250
9.25473	2.47885	4093.30900	6.56250
9.28943	2.48522	4093.30900	6.56250
9.32414	2.48173	4090.00800	6.56250
9.35885	2.50461	4106.51400	6.56250
9.39355	2.48345	4086.70700	6.56250
9.42826	2.49707	4090.00800	6.56250
9.46297	2.49687	4086.70700	6.56250
9.49767	2.49054	4083.40600	6.56250
9.53237	2.48862	4086.70700	6.56250
9.56707	2.47886	4083.40600	6.56250
9.60177	2.48540	4049.47900	6.56250
9.63648	2.49846	4086.70700	6.56250
9.67118	2.49072	4083.40600	6.56250
9.70588	2.48444	4090.00800	6.56250
9.74058	2.49212	4080.10500	6.56250
9.77529	2.49235	4086.70700	6.56250
9.80999	2.48745	4076.80400	6.56250
9.84470	2.48679	4042.96800	6.56250
9.87940	2.48449	4083.40600	6.56250
9.91411	2.49371	4086.70700	6.56250
9.94882	2.49190	4080.10500	6.56250
9.98352	2.49036	4083.40600	6.56250
