Time (s)   Thrust (N)   RPM  Input
0.00023	3.07798	4559.92800	7.00000
0.03343	3.17272	4611.32800	7.00000
0.11187	3.21002	4655.27300	7.00000
0.14650	3.24212	4705.07800	7.00000
0.18124	3.25836	4702.14800	7.00000
0.21596	3.27253	4725.58600	7.00000
0.25065	3.28002	4707.75500	7.00000
0.28536	3.28468	4693.28700	7.00000
0.32006	3.28382	4704.86100	7.00000
0.35478	3.29436	4687.50000	7.00000
0.38946	3.28794	4713.54100	7.00000
0.42417	3.29334	4742.47600	7.00000
0.45887	3.29471	4667.49200	7.00000
0.49357	3.30365	4722.22200	7.00000
0.52827	3.31133	4751.15700	7.00000
0.56297	3.30266	4722.22200	7.00000
0.59767	3.29326	4730.90300	7.00000
0.63239	3.29347	4693.21700	7.00000
0.66708	3.27934	4730.90300	7.00000
0.70177	3.30296	4693.21700	7.00000
0.73648	3.29658	4728.00900	7.00000
0.77118	3.30927	4673.20900	7.00000
0.80588	3.31845	4696.07400	7.00000
0.84059	3.30744	4722.22200	7.00000
0.87528	3.31060	4728.00900	7.00000
0.91000	3.31795	4696.07400	7.00000
0.94469	3.32182	4719.32900	7.00000
0.97940	3.25726	4751.15700	7.00000
1.01410	3.31496	4664.63400	7.00000
1.04879	3.29747	4722.22200	7.00000
1.08351	3.31509	4748.26400	7.00000
1.11820	3.31259	4719.32900	7.00000
1.15290	3.30974	4725.11500	7.00000
1.18761	3.29937	4696.07400	7.00000
1.22232	3.28184	4719.32900	7.00000
1.25701	3.30356	4664.63400	7.00000
1.29174	3.31814	4696.07400	7.00000
1.32643	3.32212	4722.22200	7.00000
1.36112	3.33668	4698.93300	7.00000
1.39582	3.31369	4725.11500	7.00000
1.43052	3.32325	4722.22200	7.00000
1.46522	3.29300	4751.15700	7.00000
1.49992	3.31429	4664.63400	7.00000
1.53463	3.31493	4716.43500	7.00000
1.56933	3.32296	4693.21700	7.00000
1.60404	3.31691	4719.32900	7.00000
1.63875	3.32299	4687.50000	7.00000
1.67345	3.31537	4719.32900	7.00000
1.70815	3.30954	4722.22200	7.00000
1.74285	3.31127	4756.94500	7.00000
1.77755	3.30231	4664.63400	7.00000
1.81226	3.30883	4719.32900	7.00000
1.84697	3.29553	4696.07400	7.00000
1.88166	3.31705	4719.32900	7.00000
1.91637	3.30021	4690.35800	7.00000
1.95107	3.30523	4722.22200	7.00000
1.98577	3.31517	4728.00900	7.00000
2.02048	3.30899	4698.93300	7.00000
2.05517	3.30294	4719.32900	7.00000
2.08989	3.30338	4725.11500	7.00000
2.12459	3.28669	4751.15700	7.00000
2.15929	3.29559	4670.35000	7.00000
2.19401	3.29802	4728.00900	7.00000
2.22872	3.29325	4756.94500	7.00000
2.26341	3.30184	4667.49200	7.00000
2.29812	3.29427	4690.35800	7.00000
2.33282	3.29211	4728.00900	7.00000
2.36752	3.30689	4664.63400	7.00000
2.40222	3.30080	4698.93300	7.00000
2.43692	3.29906	4728.00900	7.00000
2.47162	3.30338	4670.35000	7.00000
2.50633	3.30465	4693.21700	7.00000
2.54102	3.29623	4728.00900	7.00000
2.57573	3.29665	4687.50000	7.00000
2.61043	3.29839	4728.00900	7.00000
2.64513	3.30182	4733.79600	7.00000
2.67983	3.29205	4696.07400	7.00000
2.71454	3.27149	4728.00900	7.00000
2.74924	3.28526	4733.79600	7.00000
2.78395	3.29338	4704.64900	7.00000
2.81864	3.29628	4730.90300	7.00000
2.85335	3.29282	4704.64900	7.00000
2.88806	3.32638	4736.69000	7.00000
2.92275	3.31591	4684.64100	7.00000
2.95746	3.31390	4707.50700	7.00000
2.99216	3.31653	4745.37000	7.00000
3.02686	3.29656	4742.47600	7.00000
3.06157	3.30546	4713.22400	7.00000
3.09627	3.30014	4684.64100	7.00000
3.13097	3.30360	4718.94000	7.00000
3.16567	3.29577	4681.78300	7.00000
3.20037	3.30342	4742.47600	7.00000
3.23508	3.24773	4713.22400	7.00000
3.26981	3.29312	4739.58300	7.00000
3.30451	3.31772	4676.06700	7.00000
3.33921	3.31089	4710.36500	7.00000
3.37391	3.31566	4676.06700	7.00000
3.40860	3.32520	4730.90300	7.00000
3.44331	3.27562	4742.47600	7.00000
3.47801	3.30270	4730.90300	7.00000
3.51272	3.30775	4701.79100	7.00000
3.54743	3.29963	4673.20900	7.00000
3.58213	3.30791	4733.79600	7.00000
3.61684	3.31089	4707.50700	7.00000
3.65153	3.34231	4730.90300	7.00000
3.68624	3.32259	4725.11500	7.00000
3.76451	3.30548	4754.05100	7.00000
3.79920	3.29552	4730.90300	7.00000
3.83391	3.32279	4728.00900	7.00000
3.91326	3.29183	4754.05100	7.00000
3.94797	3.32214	4670.35000	7.00000
3.98267	3.33012	4693.21700	7.00000
4.01738	3.30728	4725.11500	7.00000
4.05208	3.30407	4725.11500	7.00000
4.08679	3.31013	4693.21700	7.00000
4.12150	3.29760	4725.11500	7.00000
4.15619	3.30811	4725.11500	7.00000
4.19090	3.31339	4696.07400	7.00000
4.22560	3.33248	4725.11500	7.00000
4.26030	3.32034	4722.22200	7.00000
4.29500	3.32090	4730.90300	7.00000
4.32971	3.32533	4661.77600	7.00000
4.36441	3.31555	4693.21700	7.00000
4.39912	3.34265	4719.32900	7.00000
4.43382	3.31030	4716.43500	7.00000
4.46853	3.30830	4684.64100	7.00000
4.50323	3.31982	4719.32900	7.00000
4.53792	3.31425	4716.43500	7.00000
4.57264	3.33077	4751.15700	7.00000
4.60734	3.33366	4719.32900	7.00000
4.64204	3.30475	4690.35800	7.00000
4.67674	3.32149	4719.32900	7.00000
4.71144	3.31529	4713.54100	7.00000
4.74615	3.31976	4736.69000	7.00000
4.78084	3.32034	4713.54100	7.00000
4.81556	3.31475	4719.32900	7.00000
4.85025	3.31093	4678.92500	7.00000
4.88495	3.31256	4716.43500	7.00000
4.91968	3.31472	4748.26400	7.00000
4.95436	3.35441	4716.43500	7.00000
4.98906	3.30474	4719.32900	7.00000
5.02417	3.30678	4670.35000	6.78750
5.05847	3.20274	4651.89800	6.78750
5.09318	3.11847	4585.33600	6.78750
5.12789	3.08812	4512.46000	6.78750
5.16259	3.02616	4465.14400	6.78750
5.19728	2.98529	4468.34400	6.78750
5.23199	2.95863	4431.81800	6.78750
5.26670	2.94286	4437.90600	6.78750
5.30141	2.92223	4443.87300	6.78750
5.33609	2.90737	4367.89800	6.78750
5.37079	2.90131	4416.11800	6.78750
5.40550	2.89520	4370.94200	6.78750
5.44020	2.89399	4403.78300	6.78750
5.47491	2.88646	4394.53100	6.78750
5.50960	2.87639	4422.28600	6.78750
5.54431	2.86899	4388.36300	6.78750
5.57902	2.87287	4443.75000	6.78750
5.61371	2.86697	4379.11200	6.78750
5.64842	2.86621	4349.63500	6.78750
5.68312	2.87256	4382.19600	6.78750
5.71783	2.86681	4437.50000	6.78750
5.75254	2.87113	4376.02800	6.78750
5.78726	2.87117	4343.54700	6.78750
5.82193	2.87734	4369.86000	6.78750
5.85664	2.86481	4372.94400	6.78750
5.89135	2.86673	4431.25000	6.78750
5.92606	2.86439	4400.69900	6.78750
5.96076	2.86857	4366.77600	6.78750
5.99545	2.86472	4372.94400	6.78750
6.03016	2.87746	4366.77600	6.78750
6.06485	2.86962	4403.78300	6.78750
6.09957	2.86359	4369.86000	6.78750
6.13426	2.86375	4428.12500	6.78750
6.16896	2.86418	4372.94400	6.78750
6.20367	2.85876	4400.69900	6.78750
6.23837	2.85643	4379.11200	6.78750
6.27307	2.85652	4379.11200	6.78750
6.30778	2.86087	4382.19600	6.78750
6.34249	2.86936	4355.72200	6.78750
6.37718	2.86409	4385.27900	6.78750
6.41189	2.86424	4440.62500	6.78750
6.44659	2.86262	4379.11200	6.78750
6.48129	2.86394	4403.78300	6.78750
6.51600	2.86633	4382.19600	6.78750
6.55070	2.87797	4437.50000	6.78750
6.58539	2.87208	4382.19600	6.78750
6.62010	2.86317	4406.86600	6.78750
6.65481	2.85465	4376.02800	6.78750
6.68951	2.85827	4434.37500	6.78750
6.72421	2.86226	4379.11200	6.78750
6.75892	2.85518	4349.63500	6.78750
6.79361	2.85622	4376.02800	6.78750
6.82833	2.86122	4434.37500	6.78750
6.86302	2.86700	4382.19600	6.78750
6.89773	2.88054	4446.87500	6.78750
6.93244	2.87186	4376.02800	6.78750
6.96714	2.88596	4376.02800	6.78750
7.00184	2.87904	4400.69900	6.78750
7.03654	2.86976	4376.02800	6.78750
7.07125	2.86819	4431.25000	6.78750
7.10595	2.86654	4372.94400	6.78750
7.14066	2.86440	4343.54700	6.78750
7.17536	2.86806	4366.77600	6.78750
7.21006	2.86358	4366.77600	6.78750
7.24477	2.86552	4369.86000	6.78750
7.27946	2.86367	4400.69900	6.78750
7.31418	2.86582	4428.12500	6.78750
7.34887	2.86771	4431.25000	6.78750
7.38357	2.86437	4376.02800	6.78750
7.41827	2.86716	4346.59100	6.78750
7.45297	2.86918	4369.86000	6.78750
7.48767	2.86743	4425.00000	6.78750
7.52238	2.87319	4431.25000	6.78750
7.55709	2.87711	4391.44700	6.78750
7.59178	2.87042	4428.12500	6.78750
7.62649	2.87175	4372.94400	6.78750
7.66118	2.86577	4366.77600	6.78750
7.69590	2.86765	4400.69900	6.78750
7.73061	2.86615	4366.77600	6.78750
7.76530	2.86885	4360.60800	6.78750
7.80000	2.86636	4360.60800	6.78750
7.83470	2.87423	4397.61500	6.78750
7.86940	2.87187	4360.60800	6.78750
7.90411	2.86979	4363.69200	6.78750
7.93881	2.87328	4418.75000	6.78750
7.97351	2.87289	4391.44700	6.78750
8.00823	2.87481	4363.69200	6.78750
8.04292	2.86317	4363.69200	6.78750
8.07763	2.87106	4360.60800	6.78750
8.11233	2.86570	4391.44700	6.78750
8.14703	2.87001	4354.44100	6.78750
8.18175	2.86526	4357.52500	6.78750
8.21646	2.96000	4360.60800	6.78750
8.25114	2.87129	4388.36300	6.78750
8.28585	2.86031	4357.52500	6.78750
8.32056	2.87212	4363.69200	6.78750
8.35526	2.86871	4360.60800	6.78750
8.38996	2.87138	4394.53100	6.78750
8.42467	2.87191	4369.86000	6.78750
8.45936	2.86276	4425.00000	6.78750
8.49409	2.87593	4425.00000	6.78750
8.52878	2.87654	4400.69900	6.78750
8.56348	2.86312	4369.86000	6.78750
8.59819	2.84991	4369.86000	6.78750
8.63289	2.84117	4372.94400	6.78750
8.66759	2.86117	4406.86600	6.78750
8.70229	2.85293	4437.50000	6.78750
8.73699	2.84978	4382.19600	6.78750
8.77170	2.85392	4385.27900	6.78750
8.80641	2.85640	4413.03400	6.78750
8.84111	2.85913	4382.19600	6.78750
8.87581	2.85988	4385.27900	6.78750
8.91051	2.85167	4388.36300	6.78750
8.94522	2.85464	4352.67800	6.78750
8.97991	2.84702	4385.27900	6.78750
9.01462	2.85073	4385.27900	6.78750
9.04932	2.85489	4352.67800	6.78750
9.08403	2.85723	4385.27900	6.78750
9.11874	2.85619	4443.75000	6.78750
9.15344	2.85592	4385.27900	6.78750
9.18813	2.85979	4419.20200	6.78750
9.22284	2.87252	4385.27900	6.78750
9.25755	2.86320	4391.44700	6.78750
9.29224	2.87039	4391.44700	6.78750
9.32696	2.85984	4358.76600	6.78750
9.36166	2.86911	4394.53100	6.78750
9.39636	2.86568	4391.44700	6.78750
9.43108	2.87300	4450.00000	6.78750
9.46578	2.87074	4413.03400	6.78750
9.50049	2.86595	4391.44700	6.78750
9.53519	2.85715	4391.44700	6.78750
9.56989	2.86668	4391.44700	6.78750
9.60459	2.86578	4419.20200	6.78750
9.63933	2.90690	4385.27900	6.78750
9.71756	2.87066	4388.36300	6.78750
9.75227	2.86706	4391.44700	6.78750
9.78696	2.86893	4388.36300	6.78750
9.82168	2.85938	4409.95000	6.78750
9.85636	2.88030	4385.27900	6.78750
9.89107	2.87181	4385.27900	6.78750
9.92576	2.87200	4388.36300	6.78750
9.96046	2.88305	4443.75000	6.78750
9.99517	2.86955	4385.27900	6.78750
