Time (s)   Thrust (N)   RPM
0.00032	0.00000	5740.05700
0.00423	0.00000	5740.05700
0.00810	0.00000	5740.05700
0.01197	0.00000	5740.05700
0.01582	0.00000	5740.05700
0.01966	0.00000	5740.05700
0.02352	0.00000	5677.20400
0.02751	0.00000	5677.20400
0.03136	0.00000	5677.20400
0.03519	0.00000	5677.20400
0.03904	0.00000	5677.20400
0.04289	0.00000	5677.20400
0.04672	0.00000	5677.20400
0.05056	0.00000	5479.01400
0.05440	0.00000	5479.01400
0.05824	0.00000	5479.01400
0.06208	0.00000	5479.01400
0.06591	0.00000	5479.01400
0.06974	0.00000	5479.01400
0.07357	0.00000	5479.01400
0.07742	0.00000	5328.32300
0.08126	0.00000	5328.32300
0.08511	0.00000	5328.32300
0.08895	0.00000	5328.32300
0.09279	0.00000	5328.32300
0.09662	0.00000	5328.32300
0.10045	0.00000	5218.99600
0.10428	0.00000	5218.99600
0.10812	0.00000	5218.99600
0.11195	0.00000	5218.99600
0.11578	0.00000	5218.99600
0.11962	0.00000	5218.99600
0.12345	0.00000	5218.99600
0.12727	0.00000	5121.15600
0.13111	0.00000	5121.15600
0.13494	0.00000	5121.15600
0.13879	0.00000	5121.15600
0.14262	0.00000	5121.15600
0.14646	0.00000	5121.15600
0.15029	0.00000	5056.35200
0.15412	0.00000	5056.35200
0.15795	0.00000	5056.35200
0.16178	0.00000	5056.35200
0.16561	0.00000	5056.35200
0.16944	0.00000	5056.35200
0.17326	0.00000	4999.13400
0.17710	0.00000	4999.13400
0.18093	0.00000	4999.13400
0.18477	0.00000	4999.13400
0.18860	0.00000	4999.13400
0.19243	0.00000	4999.13400
0.19626	0.00000	4963.23500
0.20010	0.00000	4963.23500
0.20394	0.00000	4963.23500
0.20777	0.00000	4963.23500
0.21159	0.00000	4963.23500
0.21542	0.00000	4963.23500
0.21925	0.00000	4920.55100
0.22308	0.00000	4920.55100
0.22691	0.00000	4920.55100
0.23074	0.00000	4920.55100
0.23456	0.00000	4920.55100
0.23839	0.00000	4920.55100
0.24222	0.00000	4881.92500
0.24605	0.00000	4881.92500
0.24988	0.00000	4881.92500
0.25371	0.00000	4881.92500
0.25754	0.00000	4881.92500
0.26138	0.00000	4881.92500
0.26520	0.00000	4856.25000
0.26904	0.00000	4856.25000
0.27287	0.00000	4856.25000
0.27671	0.00000	4856.25000
0.28054	0.00000	4856.25000
0.28438	0.00000	4856.25000
0.28822	0.00000	4843.75000
0.29205	0.00000	4843.75000
0.29589	0.00000	4843.75000
0.29972	0.00000	4843.75000
0.30356	0.00000	4843.75000
0.30739	0.00000	4843.75000
0.31122	0.00000	4833.39300
0.31506	0.00000	4833.39300
0.31890	0.00000	4833.39300
0.32273	0.00000	4833.39300
0.32656	0.00000	4833.39300
0.33039	0.00000	4833.39300
0.33423	0.00000	4817.93500
0.33806	0.00000	4817.93500
0.34190	0.00000	4817.93500
0.34573	0.00000	4817.93500
0.34957	0.00000	4817.93500
0.35340	0.00000	4817.93500
0.35724	0.00000	4790.76100
0.36106	0.00000	4790.76100
0.36491	0.00000	4790.76100
0.36874	0.00000	4790.76100
0.37258	0.00000	4790.76100
0.37642	0.00000	4790.76100
0.38025	0.00000	4777.69700
0.38409	0.00000	4777.69700
0.38794	0.00000	4777.69700
0.39177	0.00000	4777.69700
0.39561	0.00000	4777.69700
0.39943	0.00000	4789.22200
0.40327	0.00000	4789.22200
0.40710	0.00000	4789.22200
0.41093	0.00000	4789.22200
0.41476	0.00000	4789.22200
0.41861	0.00000	4789.22200
0.42244	0.00000	4772.72700
0.42626	0.00000	4772.72700
0.43010	0.00000	4772.72700
0.43393	0.00000	4772.72700
0.43777	0.00000	4772.72700
0.44161	0.00000	4772.72700
0.44545	0.00000	4775.21900
0.44929	0.00000	4775.21900
0.45313	0.00000	4775.21900
0.45696	0.00000	4775.21900
0.46078	0.00000	4775.21900
0.46461	0.00000	4775.21900
0.46844	0.00000	4764.47900
0.47229	0.00000	4764.47900
0.47612	0.00000	4764.47900
0.47996	0.00000	4764.47900
0.48380	0.00000	4764.47900
0.48763	0.00000	4764.47900
0.49145	0.00000	4758.77200
0.49528	0.00000	4758.77200
0.49911	0.00000	4758.77200
0.50294	0.00000	4758.77200
0.50676	0.00000	4758.77200
0.51060	0.00000	4756.63700
0.51442	0.00000	4756.63700
0.51825	0.00000	4756.63700
0.52209	0.00000	4756.63700
0.52593	0.00000	4756.63700
0.52976	0.00000	4756.63700
0.53359	0.00000	4739.88900
0.53742	0.00000	4739.88900
0.54125	0.00000	4739.88900
0.54508	0.00000	4739.88900
0.54891	0.00000	4739.88900
0.55274	0.00000	4739.88900
0.55657	0.00000	4739.73600
0.56040	0.00000	4739.73600
0.56423	0.00000	4739.73600
0.56807	0.00000	4739.73600
0.57190	0.00000	4739.73600
0.57574	0.00000	4739.73600
0.57956	0.00000	4759.19100
0.58340	0.00000	4759.19100
0.58724	0.00000	4759.19100
0.59107	0.00000	4759.19100
0.59490	0.00000	4759.19100
0.59874	0.00000	4759.19100
0.60257	0.00000	4753.48200
0.60639	0.00000	4753.48200
0.61023	0.00000	4753.48200
0.61406	0.00000	4753.48200
0.61790	0.00000	4753.48200
0.62173	0.00000	4751.29400
0.62556	0.00000	4751.29400
0.62940	0.00000	4751.29400
0.63324	0.00000	4751.29400
0.63707	0.00000	4751.29400
0.64090	0.00000	4751.29400
0.64473	0.00000	4753.87100
0.64857	0.00000	4753.87100
0.65240	0.00000	4753.87100
0.65624	0.00000	4753.87100
0.66008	0.00000	4753.87100
0.66390	0.00000	4753.87100
0.66772	0.00000	4739.73600
0.67154	0.00000	4739.73600
0.67536	0.00000	4739.73600
0.67917	0.00000	4739.73600
0.68301	0.00000	4739.73600
0.68682	0.00000	4739.73600
0.69066	0.00000	4734.23700
0.69448	0.00000	4734.23700
0.69830	0.00000	4734.23700
0.70212	0.00000	4734.23700
0.70594	0.00000	4734.23700
0.70977	0.00000	4734.23700
0.71359	0.00000	4734.23700
0.71740	0.00000	4734.23700
0.72122	0.00000	4734.23700
0.72504	0.00000	4734.23700
0.72885	0.00000	4734.23700
0.73266	0.00000	4731.87800
0.73647	0.00000	4731.87800
0.74029	0.00000	4731.87800
0.74411	0.00000	4731.87800
0.74792	0.00000	4731.87800
0.75175	0.00000	4731.87800
0.75557	0.00000	4751.29400
0.75940	0.00000	4751.29400
0.76325	0.00000	4751.29400
0.76707	0.00000	4751.29400
0.77091	0.00000	4751.29400
0.77475	0.00000	4751.29400
0.77858	0.00000	4734.23700
0.78241	0.00000	4734.23700
0.78624	0.00000	4734.23700
0.79007	0.00000	4734.23700
0.79390	0.00000	4734.23700
0.79773	0.00000	4734.23700
0.80156	0.00000	4734.23700
0.80539	0.00000	4734.23700
0.80923	0.00000	4734.23700
0.81306	0.00000	4734.23700
0.81689	0.00000	4734.23700
0.82072	0.00000	4734.23700
0.82456	0.00000	4737.13200
0.82838	0.00000	4737.13200
0.83221	0.00000	4737.13200
0.83604	0.00000	4737.13200
0.83987	0.00000	4737.13200
0.84370	0.00000	4737.42600
0.84755	0.00000	4737.42600
0.85138	0.00000	4737.42600
0.85522	0.00000	4737.42600
0.85905	0.00000	4737.42600
0.86288	0.00000	4737.42600
0.86672	0.00000	4739.88900
0.87055	0.00000	4739.88900
0.87440	0.00000	4739.88900
0.87822	0.00000	4739.88900
0.88206	0.00000	4739.88900
0.88590	0.00000	4739.88900
0.88974	0.00000	4734.23700
0.89357	0.00000	4734.23700
0.89741	0.00000	4734.23700
0.90124	0.00000	4734.23700
0.90507	0.00000	4734.23700
0.90890	0.00000	4734.23700
0.91273	0.00000	4737.13200
0.91657	0.00000	4737.13200
0.92040	0.00000	4737.13200
0.92425	0.00000	4737.13200
0.92807	0.00000	4737.13200
0.93190	0.00000	4737.13200
0.93572	0.00000	4726.21700
0.93956	0.00000	4726.21700
0.94340	0.00000	4726.21700
0.94723	0.00000	4726.21700
0.95108	0.00000	4726.21700
0.95491	0.00000	4734.51300
0.95875	0.00000	4734.51300
0.96259	0.00000	4734.51300
0.96644	0.00000	4734.51300
0.97028	0.00000	4734.51300
0.97411	0.00000	4734.51300
0.97794	0.00000	4739.73600
0.98178	0.00000	4739.73600
0.98560	0.00000	4739.73600
0.98945	0.00000	4739.73600
0.99332	0.00000	4739.73600
0.99717	0.00000	4739.73600
1.00100	0.00000	4742.64700
1.00483	0.00000	4742.64700
1.00867	0.00000	4742.64700
1.01250	0.00000	4742.64700
1.01633	0.00000	4742.64700
1.02016	0.00000	4742.64700
1.02399	0.00000	4734.37500
1.02783	0.00000	4734.37500
1.03166	0.00000	4734.37500
1.03550	0.00000	4734.37500
1.03934	0.00000	4734.37500
1.04318	0.00000	4734.65200
1.04704	0.00000	4734.65200
1.05087	0.00000	4734.65200
1.05470	0.00000	4734.65200
1.05854	0.00000	4734.65200
1.06237	0.00000	4734.65200
1.06620	0.00000	4745.57500
1.07004	0.00000	4745.57500
1.07388	0.00000	4745.57500
1.07772	0.00000	4745.57500
1.08155	0.00000	4745.57500
1.08539	0.00000	4745.57500
1.08923	0.00000	4737.13200
1.09306	0.00000	4737.13200
1.09690	0.00000	4737.13200
1.10073	0.00000	4737.13200
1.10456	0.00000	4737.13200
1.10839	0.00000	4737.13200
1.11223	0.00000	4739.88900
1.11606	0.00000	4739.88900
1.11989	0.00000	4739.88900
1.12371	0.00000	4739.88900
1.12754	0.00000	4739.88900
1.13137	0.00000	4739.88900
1.13520	0.00000	4751.29400
1.13903	0.00000	4751.29400
1.14286	0.00000	4751.29400
1.14669	0.00000	4751.29400
1.15052	0.00000	4751.29400
1.15436	0.00000	4737.42600
1.15819	0.00000	4737.42600
1.16203	0.00000	4737.42600
1.16587	0.00000	4737.42600
1.16970	0.00000	4737.42600
1.17354	0.00000	4737.42600
1.17737	0.00000	4728.73900
1.18120	0.00000	4728.73900
1.18504	0.00000	4728.73900
1.18887	0.00000	4728.73900
1.19270	0.00000	4728.73900
1.19653	0.00000	4728.73900
1.20037	0.00000	4737.13200
1.20421	0.00000	4737.13200
1.20804	0.00000	4737.13200
1.21188	0.00000	4737.13200
1.21572	0.00000	4737.13200
1.21955	0.00000	4737.13200
1.22338	0.00000	4742.64700
1.22722	0.00000	4742.64700
1.23106	0.00000	4742.64700
1.23489	0.00000	4742.64700
1.23873	0.00000	4742.64700
1.24256	0.00000	4740.19900
1.24640	0.00000	4740.19900
1.25023	0.00000	4740.19900
1.25407	0.00000	4740.19900
1.25790	0.00000	4740.19900
1.26173	0.00000	4740.19900
1.26557	0.00000	4740.04400
1.26940	0.00000	4740.04400
1.27323	0.00000	4740.04400
1.27706	0.00000	4740.04400
1.28089	0.00000	4740.04400
1.28473	0.00000	4740.04400
1.28857	0.00000	4739.88900
1.29240	0.00000	4739.88900
1.29624	0.00000	4739.88900
1.30006	0.00000	4739.88900
1.30390	0.00000	4739.88900
1.30774	0.00000	4739.88900
1.31157	0.00000	4745.40400
1.31540	0.00000	4745.40400
1.31923	0.00000	4745.40400
1.32307	0.00000	4745.40400
1.32691	0.00000	4745.40400
1.33073	0.00000	4745.40400
1.33456	0.00000	4734.51300
1.33839	0.00000	4734.51300
1.34221	0.00000	4734.51300
1.34603	0.00000	4734.51300
1.34987	0.00000	4734.51300
1.35369	0.00000	4734.79200
1.35753	0.00000	4734.79200
1.36132	0.00000	4734.79200
1.36516	0.00000	4734.79200
1.36900	0.00000	4734.79200
1.37283	0.00000	4734.79200
1.37666	0.00000	4723.34500
1.38049	0.00000	4723.34500
1.38433	0.00000	4723.34500
1.38816	0.00000	4723.34500
1.39198	0.00000	4723.34500
1.39582	0.00000	4723.34500
1.39965	0.00000	4737.13200
1.40348	0.00000	4737.13200
1.40731	0.00000	4737.13200
1.41114	0.00000	4737.13200
1.41497	0.00000	4737.13200
1.41881	0.00000	4737.13200
1.42264	0.00000	4728.86000
1.42647	0.00000	4728.86000
1.43030	0.00000	4728.86000
1.43414	0.00000	4728.86000
1.43796	0.00000	4728.86000
1.44180	0.00000	4718.01000
1.44563	0.00000	4718.01000
1.44946	0.00000	4718.01000
1.45329	0.00000	4718.01000
1.45713	0.00000	4718.01000
1.46096	0.00000	4718.01000
1.46479	0.00000	4740.19900
1.46863	0.00000	4740.19900
1.47247	0.00000	4740.19900
1.47631	0.00000	4740.19900
1.48014	0.00000	4740.19900
1.48397	0.00000	4740.19900
1.48780	0.00000	4728.86000
1.49164	0.00000	4728.86000
1.49547	0.00000	4728.86000
1.49930	0.00000	4728.86000
1.50312	0.00000	4728.86000
1.50695	0.00000	4728.86000
1.51078	0.00000	4728.86000
1.51462	0.00000	4728.86000
1.51845	0.00000	4728.86000
1.52229	0.00000	4728.86000
1.52612	0.00000	4728.86000
1.52996	0.00000	4728.86000
1.53379	0.00000	4742.81000
1.53762	0.00000	4742.81000
1.54144	0.00000	4742.81000
1.54528	0.00000	4742.81000
1.54914	0.00000	4742.81000
1.55297	0.00000	4740.19900
1.55682	0.00000	4740.19900
1.56064	0.00000	4740.19900
1.56447	0.00000	4740.19900
1.56831	0.00000	4740.19900
1.57214	0.00000	4740.19900
1.57597	0.00000	4742.64700
1.57980	0.00000	4742.64700
1.58363	0.00000	4742.64700
1.58746	0.00000	4742.64700
1.59129	0.00000	4742.64700
1.59512	0.00000	4742.64700
1.59895	0.00000	4734.51300
1.60278	0.00000	4734.51300
1.60659	0.00000	4734.51300
1.61042	0.00000	4734.51300
1.61425	0.00000	4734.51300
1.61808	0.00000	4734.51300
1.62191	0.00000	4728.86000
1.62574	0.00000	4728.86000
1.62957	0.00000	4728.86000
1.63341	0.00000	4728.86000
1.63724	0.00000	4728.86000
1.64107	0.00000	4740.19900
1.64490	0.00000	4740.19900
1.64873	0.00000	4740.19900
1.65257	0.00000	4740.19900
1.65640	0.00000	4740.19900
1.66023	0.00000	4740.19900
1.66407	0.00000	4748.52000
1.66789	0.00000	4748.52000
1.67173	0.00000	4748.52000
1.67556	0.00000	4748.52000
1.67938	0.00000	4748.52000
1.68321	0.00000	4748.52000
1.68705	0.00000	4739.88900
1.69088	0.00000	4739.88900
1.69470	0.00000	4739.88900
1.69853	0.00000	4739.88900
1.70237	0.00000	4739.88900
1.70619	0.00000	4739.88900
1.71003	0.00000	4731.74800
1.71386	0.00000	4731.74800
1.71769	0.00000	4731.74800
1.72151	0.00000	4731.74800
1.72532	0.00000	4731.74800
1.72915	0.00000	4731.74800
1.73297	0.00000	4734.51300
1.73681	0.00000	4734.51300
1.74064	0.00000	4734.51300
1.74447	0.00000	4734.51300
1.74830	0.00000	4734.51300
1.75214	0.00000	4729.10500
1.75598	0.00000	4729.10500
1.75981	0.00000	4729.10500
1.76364	0.00000	4729.10500
1.76746	0.00000	4729.10500
1.77129	0.00000	4729.10500
1.77512	0.00000	4717.83100
1.77895	0.00000	4717.83100
1.78279	0.00000	4717.83100
1.78662	0.00000	4717.83100
1.79046	0.00000	4717.83100
1.79429	0.00000	4717.83100
1.79813	0.00000	4728.86000
1.80196	0.00000	4728.86000
1.80578	0.00000	4728.86000
1.80962	0.00000	4728.86000
1.81345	0.00000	4728.86000
1.81728	0.00000	4728.86000
1.82113	0.00000	4728.86000
1.82496	0.00000	4728.86000
1.82880	0.00000	4728.86000
1.83264	0.00000	4728.86000
1.83647	0.00000	4728.86000
1.84029	0.00000	4729.22800
1.84414	0.00000	4729.22800
1.84797	0.00000	4729.22800
1.85180	0.00000	4729.22800
1.85563	0.00000	4729.22800
1.85947	0.00000	4729.22800
1.86329	0.00000	4742.97300
1.86713	0.00000	4742.97300
1.87096	0.00000	4742.97300
1.87479	0.00000	4742.97300
1.87863	0.00000	4742.97300
1.88245	0.00000	4742.97300
1.88628	0.00000	4728.86000
1.89012	0.00000	4728.86000
1.89396	0.00000	4728.86000
1.89779	0.00000	4728.86000
1.90162	0.00000	4728.86000
1.90545	0.00000	4728.86000
1.90928	0.00000	4728.86000
1.91312	0.00000	4728.86000
1.91695	0.00000	4728.86000
1.92077	0.00000	4728.86000
1.92460	0.00000	4728.86000
1.92843	0.00000	4728.86000
1.93225	0.00000	4734.65200
1.93609	0.00000	4734.65200
1.93993	0.00000	4734.65200
1.94373	0.00000	4734.65200
1.94755	0.00000	4734.65200
1.95139	0.00000	4734.65200
1.95524	0.00000	4734.65200
1.95907	0.00000	4734.65200
1.96291	0.00000	4734.65200
1.96673	0.00000	4734.65200
1.97056	0.00000	4734.65200
1.97439	0.00000	4734.51300
1.97822	0.00000	4734.51300
1.98205	0.00000	4734.51300
1.98588	0.00000	4734.51300
1.98972	0.00000	4734.51300
1.99359	0.00000	4734.51300
1.99744	0.00000	4728.98200
2.00128	0.00000	4728.98200
2.00512	0.00000	4728.98200
2.00895	0.00000	4728.98200
2.01278	0.00000	4728.98200
2.01661	0.00000	4728.98200
2.02044	0.00000	4728.86000
2.02427	0.00000	4728.86000
2.02811	0.00000	4728.86000
2.03194	0.00000	4728.86000
2.03576	0.00000	4728.86000
2.03959	0.00000	4731.87800
2.04344	0.00000	4731.87800
2.04728	0.00000	4731.87800
2.05112	0.00000	4731.87800
2.05495	0.00000	4731.87800
2.05878	0.00000	4731.87800
2.06261	0.00000	4740.04400
2.06645	0.00000	4740.04400
2.07028	0.00000	4740.04400
2.07412	0.00000	4740.04400
2.07795	0.00000	4740.04400
2.08178	0.00000	4740.04400
2.08561	0.00000	4723.34500
2.08945	0.00000	4723.34500
2.09327	0.00000	4723.34500
2.09712	0.00000	4723.34500
2.10096	0.00000	4723.34500
2.10481	0.00000	4723.34500
2.10864	0.00000	4731.61700
2.11247	0.00000	4731.61700
2.11630	0.00000	4731.61700
2.12013	0.00000	4731.61700
2.12397	0.00000	4731.61700
2.12780	0.00000	4732.01000
2.13164	0.00000	4732.01000
2.13546	0.00000	4732.01000
2.13929	0.00000	4732.01000
2.14312	0.00000	4732.01000
2.14695	0.00000	4732.01000
2.15078	0.00000	4726.33100
2.15462	0.00000	4726.33100
2.15845	0.00000	4726.33100
2.16227	0.00000	4726.33100
2.16611	0.00000	4726.33100
2.16993	0.00000	4726.33100
2.17377	0.00000	4728.86000
2.17760	0.00000	4728.86000
2.18142	0.00000	4728.86000
2.18525	0.00000	4728.86000
2.18908	0.00000	4728.86000
2.19291	0.00000	4728.86000
2.19673	0.00000	4720.58800
2.20057	0.00000	4720.58800
2.20440	0.00000	4720.58800
2.20823	0.00000	4720.58800
2.21206	0.00000	4720.58800
2.21589	0.00000	4720.58800
2.21971	0.00000	4726.21700
2.22354	0.00000	4726.21700
2.22736	0.00000	4726.21700
2.23120	0.00000	4726.21700
2.23502	0.00000	4726.21700
2.23886	0.00000	4732.01000
2.24269	0.00000	4732.01000
2.24652	0.00000	4732.01000
2.25035	0.00000	4732.01000
2.25418	0.00000	4732.01000
2.25800	0.00000	4732.01000
2.26184	0.00000	4726.10300
2.26567	0.00000	4726.10300
2.26951	0.00000	4726.10300
2.27332	0.00000	4726.10300
2.27716	0.00000	4726.10300
2.28099	0.00000	4726.10300
2.28482	0.00000	4717.83100
2.28865	0.00000	4717.83100
2.29248	0.00000	4717.83100
2.29632	0.00000	4717.83100
2.30015	0.00000	4717.83100
2.30399	0.00000	4717.83100
2.30781	0.00000	4717.83100
2.31165	0.00000	4717.83100
2.31548	0.00000	4717.83100
2.31931	0.00000	4717.83100
2.32313	0.00000	4717.83100
2.32696	0.00000	4723.55700
2.33079	0.00000	4723.55700
2.33462	0.00000	4723.55700
2.33845	0.00000	4723.55700
2.34228	0.00000	4723.55700
2.34611	0.00000	4723.55700
2.34994	0.00000	4734.65200
2.35378	0.00000	4734.65200
2.35761	0.00000	4734.65200
2.36144	0.00000	4734.65200
2.36527	0.00000	4734.65200
2.36911	0.00000	4734.65200
2.37294	0.00000	4734.51300
2.37677	0.00000	4734.51300
2.38062	0.00000	4734.51300
2.38444	0.00000	4734.51300
2.38828	0.00000	4734.51300
2.39211	0.00000	4734.51300
2.39594	0.00000	4737.13200
2.39977	0.00000	4737.13200
2.40360	0.00000	4737.13200
2.40742	0.00000	4737.13200
2.41125	0.00000	4737.13200
2.41508	0.00000	4737.13200
2.41890	0.00000	4731.87800
2.42273	0.00000	4731.87800
2.42657	0.00000	4731.87800
2.43039	0.00000	4731.87800
2.43422	0.00000	4731.87800
2.43805	0.00000	4726.33100
2.44189	0.00000	4726.33100
2.44572	0.00000	4726.33100
2.44954	0.00000	4726.33100
2.45338	0.00000	4726.33100
2.45720	0.00000	4726.33100
2.46104	0.00000	4740.04400
2.46487	0.00000	4740.04400
2.46869	0.00000	4740.04400
2.47252	0.00000	4740.04400
2.47636	0.00000	4740.04400
2.48020	0.00000	4740.04400
2.48404	0.00000	4737.13200
2.48788	0.00000	4737.13200
2.49171	0.00000	4737.13200
2.49554	0.00000	4737.13200
2.49937	0.00000	4737.13200
2.50320	0.00000	4737.13200
2.50703	0.00000	4734.37500
2.51086	0.00000	4734.37500
2.51470	0.00000	4734.37500
2.51853	0.00000	4734.37500
2.52236	0.00000	4734.37500
2.52620	0.00000	4731.87800
2.53004	0.00000	4731.87800
2.53390	0.00000	4731.87800
2.53773	0.00000	4731.87800
2.54157	0.00000	4731.87800
2.54540	0.00000	4731.87800
2.54922	0.00000	4734.51300
2.55306	0.00000	4734.51300
2.55689	0.00000	4734.51300
2.56072	0.00000	4734.51300
2.56456	0.00000	4734.51300
2.56838	0.00000	4734.51300
2.57222	0.00000	4745.57500
2.57606	0.00000	4745.57500
2.57989	0.00000	4745.57500
2.58371	0.00000	4745.57500
2.58755	0.00000	4745.57500
2.59138	0.00000	4745.57500
2.59522	0.00000	4728.86000
2.59905	0.00000	4728.86000
2.60288	0.00000	4728.86000
2.60671	0.00000	4728.86000
2.61055	0.00000	4728.86000
2.61438	0.00000	4728.86000
2.61820	0.00000	4720.68500
2.62203	0.00000	4720.68500
2.62586	0.00000	4720.68500
2.62969	0.00000	4720.68500
2.63353	0.00000	4720.68500
2.63732	0.00000	4720.78400
2.64115	0.00000	4720.78400
2.64498	0.00000	4720.78400
2.64881	0.00000	4720.78400
2.65264	0.00000	4720.78400
2.65647	0.00000	4720.78400
2.66030	0.00000	4717.83100
2.66412	0.00000	4717.83100
2.66796	0.00000	4717.83100
2.67180	0.00000	4717.83100
2.67564	0.00000	4717.83100
2.67947	0.00000	4717.83100
2.68329	0.00000	4737.13200
2.68712	0.00000	4737.13200
2.69095	0.00000	4737.13200
2.69478	0.00000	4737.13200
2.69862	0.00000	4737.13200
2.70246	0.00000	4737.13200
2.70628	0.00000	4737.27900
2.71011	0.00000	4737.27900
2.71394	0.00000	4737.27900
2.71777	0.00000	4737.27900
2.72160	0.00000	4737.27900
2.72543	0.00000	4737.42600
2.72925	0.00000	4737.42600
2.73308	0.00000	4737.42600
2.73691	0.00000	4737.42600
2.74075	0.00000	4737.42600
2.74458	0.00000	4737.42600
2.74842	0.00000	4723.45100
2.75225	0.00000	4723.45100
2.75608	0.00000	4723.45100
2.75991	0.00000	4723.45100
2.76373	0.00000	4723.45100
2.76758	0.00000	4723.45100
2.77142	0.00000	4731.61700
2.77526	0.00000	4731.61700
2.77908	0.00000	4731.61700
2.78291	0.00000	4731.61700
2.78674	0.00000	4731.61700
2.79057	0.00000	4731.61700
2.79440	0.00000	4731.74800
2.79824	0.00000	4731.74800
2.80206	0.00000	4731.74800
2.80589	0.00000	4731.74800
2.80972	0.00000	4731.74800
2.81356	0.00000	4731.74800
2.81738	0.00000	4745.74700
2.82122	0.00000	4745.74700
2.82505	0.00000	4745.74700
2.82887	0.00000	4745.74700
2.83269	0.00000	4745.74700
2.83653	0.00000	4720.88300
2.84037	0.00000	4720.88300
2.84420	0.00000	4720.88300
2.84802	0.00000	4720.88300
2.85186	0.00000	4720.88300
2.85570	0.00000	4720.88300
2.85954	0.00000	4717.83100
2.86337	0.00000	4717.83100
2.86720	0.00000	4717.83100
2.87103	0.00000	4717.83100
2.87488	0.00000	4717.83100
2.87871	0.00000	4717.83100
2.88254	0.00000	4728.86000
2.88637	0.00000	4728.86000
2.89021	0.00000	4728.86000
2.89405	0.00000	4728.86000
2.89787	0.00000	4728.86000
2.90170	0.00000	4728.86000
2.90551	0.00000	4734.65200
2.90932	0.00000	4734.65200
2.91315	0.00000	4734.65200
2.91699	0.00000	4734.65200
2.92082	0.00000	4734.65200
2.92466	0.00000	4723.55700
2.92851	0.00000	4723.55700
2.93234	0.00000	4723.55700
2.93617	0.00000	4723.55700
2.94000	0.00000	4723.55700
2.94383	0.00000	4723.55700
2.94766	0.00000	4731.61700
2.95148	0.00000	4731.61700
2.95532	0.00000	4731.61700
2.95915	0.00000	4731.61700
2.96298	0.00000	4731.61700
2.96681	0.00000	4731.61700
2.97066	0.00000	4737.27900
2.97448	0.00000	4737.27900
2.97832	0.00000	4737.27900
2.98215	0.00000	4737.27900
2.98598	0.00000	4737.27900
2.98982	0.00000	4737.27900
2.99370	0.00000	4737.13200
2.99755	0.00000	4737.13200
3.00139	0.00000	4737.13200
3.00523	0.00000	4737.13200
3.00907	0.00000	4737.13200
3.01289	0.00000	4732.01000
3.01673	0.00000	4732.01000
3.02056	0.00000	4732.01000
3.02439	0.00000	4732.01000
3.02822	0.00000	4732.01000
3.03206	0.00000	4732.01000
3.03589	0.00000	4737.42600
3.03971	0.00000	4737.42600
3.04354	0.00000	4737.42600
3.04737	0.00000	4737.42600
3.05120	0.00000	4737.42600
3.05504	0.00000	4737.42600
3.05888	0.00000	4731.61700
3.06271	0.00000	4731.61700
3.06654	0.00000	4731.61700
3.07037	0.00000	4731.61700
3.07420	0.00000	4731.61700
3.07804	0.00000	4731.61700
3.08187	0.00000	4731.74800
3.08570	0.00000	4731.74800
3.08954	0.00000	4731.74800
3.09337	0.00000	4731.74800
3.09721	0.00000	4731.74800
3.10104	0.00000	4731.74800
3.10486	0.00000	4734.51300
3.10869	0.00000	4734.51300
3.11252	0.00000	4734.51300
3.11635	0.00000	4734.51300
3.12018	0.00000	4734.51300
3.12401	0.00000	4737.57400
3.12785	0.00000	4737.57400
3.13168	0.00000	4737.57400
3.13552	0.00000	4737.57400
3.13935	0.00000	4737.57400
3.14318	0.00000	4737.57400
3.14702	0.00000	4726.10300
3.15085	0.00000	4726.10300
3.15468	0.00000	4726.10300
3.15851	0.00000	4726.10300
3.16234	0.00000	4726.10300
3.16617	0.00000	4726.10300
3.17000	0.00000	4731.61700
3.17383	0.00000	4731.61700
3.17766	0.00000	4731.61700
3.18150	0.00000	4731.61700
3.18532	0.00000	4731.61700
3.18915	0.00000	4731.61700
3.19298	0.00000	4737.27900
3.19681	0.00000	4737.27900
3.20064	0.00000	4737.27900
3.20446	0.00000	4737.27900
3.20829	0.00000	4737.27900
3.21213	0.00000	4726.44700
3.21596	0.00000	4726.44700
3.21978	0.00000	4726.44700
3.22361	0.00000	4726.44700
3.22744	0.00000	4726.44700
3.23127	0.00000	4726.44700
3.23509	0.00000	4728.98200
3.23891	0.00000	4728.98200
3.24275	0.00000	4728.98200
3.24657	0.00000	4728.98200
3.25041	0.00000	4728.98200
3.25424	0.00000	4728.98200
3.25807	0.00000	4728.98200
3.26189	0.00000	4728.98200
3.26573	0.00000	4728.98200
3.26957	0.00000	4728.98200
3.27339	0.00000	4728.98200
3.27723	0.00000	4728.98200
3.28107	0.00000	4723.34500
3.28490	0.00000	4723.34500
3.28873	0.00000	4723.34500
3.29257	0.00000	4723.34500
3.29640	0.00000	4723.34500
3.30023	0.00000	4734.79200
3.30406	0.00000	4734.79200
3.30788	0.00000	4734.79200
3.31172	0.00000	4734.79200
3.31555	0.00000	4734.79200
3.31937	0.00000	4734.79200
3.32320	0.00000	4734.79200
3.32703	0.00000	4734.79200
3.33086	0.00000	4734.79200
3.33468	0.00000	4734.79200
3.33851	0.00000	4734.79200
3.34235	0.00000	4734.79200
3.34618	0.00000	4728.98200
3.35001	0.00000	4728.98200
3.35383	0.00000	4728.98200
3.35766	0.00000	4728.98200
3.36149	0.00000	4728.98200
3.36532	0.00000	4728.98200
3.36914	0.00000	4715.15500
3.37297	0.00000	4715.15500
3.37680	0.00000	4715.15500
3.38063	0.00000	4715.15500
3.38446	0.00000	4715.15500
3.38829	0.00000	4715.15500
3.39212	0.00000	4731.74800
3.39595	0.00000	4731.74800
3.39979	0.00000	4731.74800
3.40362	0.00000	4731.74800
3.40745	0.00000	4731.74800
3.41128	0.00000	4729.22800
3.41512	0.00000	4729.22800
3.41893	0.00000	4729.22800
3.42277	0.00000	4729.22800
3.42660	0.00000	4729.22800
3.43045	0.00000	4729.22800
3.43428	0.00000	4723.34500
3.43810	0.00000	4723.34500
3.44193	0.00000	4723.34500
3.44575	0.00000	4723.34500
3.44958	0.00000	4723.34500
3.45341	0.00000	4723.34500
3.45725	0.00000	4723.45100
3.46107	0.00000	4723.45100
3.46492	0.00000	4723.45100
3.46875	0.00000	4723.45100
3.47258	0.00000	4723.45100
3.47640	0.00000	4723.45100
3.48023	0.00000	4734.51300
3.48406	0.00000	4734.51300
3.48791	0.00000	4734.51300
3.49174	0.00000	4734.51300
3.49558	0.00000	4734.51300
3.49941	0.00000	4729.22800
3.50325	0.00000	4729.22800
3.50710	0.00000	4729.22800
3.51092	0.00000	4729.22800
3.51475	0.00000	4729.22800
3.51859	0.00000	4729.22800
3.52242	0.00000	4723.55700
3.52625	0.00000	4723.55700
3.53008	0.00000	4723.55700
3.53392	0.00000	4723.55700
3.53775	0.00000	4723.55700
3.54158	0.00000	4723.55700
3.54541	0.00000	4728.86000
3.54926	0.00000	4728.86000
3.55309	0.00000	4728.86000
3.55692	0.00000	4728.86000
3.56076	0.00000	4728.86000
3.56460	0.00000	4728.86000
3.56843	0.00000	4720.68500
3.57226	0.00000	4720.68500
3.57609	0.00000	4720.68500
3.57992	0.00000	4720.68500
3.58373	0.00000	4720.68500
3.58757	0.00000	4732.01000
3.59139	0.00000	4732.01000
3.59523	0.00000	4732.01000
3.59905	0.00000	4732.01000
3.60289	0.00000	4732.01000
3.60671	0.00000	4732.01000
3.61055	0.00000	4740.35600
3.61438	0.00000	4740.35600
3.61821	0.00000	4740.35600
3.62206	0.00000	4740.35600
3.62589	0.00000	4740.35600
3.62972	0.00000	4740.35600
3.63356	0.00000	4720.58800
3.63739	0.00000	4720.58800
3.64122	0.00000	4720.58800
3.64504	0.00000	4720.58800
3.64887	0.00000	4720.58800
3.65270	0.00000	4720.58800
3.65652	0.00000	4720.78400
3.66035	0.00000	4720.78400
3.66419	0.00000	4720.78400
3.66803	0.00000	4720.78400
3.67187	0.00000	4720.78400
3.67570	0.00000	4720.78400
3.67952	0.00000	4720.68500
3.68336	0.00000	4720.68500
3.68720	0.00000	4720.68500
3.69103	0.00000	4720.68500
3.69487	0.00000	4720.68500
3.69870	0.00000	4726.56200
3.70253	0.00000	4726.56200
3.70636	0.00000	4726.56200
3.71019	0.00000	4726.56200
3.71402	0.00000	4726.56200
3.71786	0.00000	4726.56200
3.72169	0.00000	4715.15500
3.72552	0.00000	4715.15500
3.72932	0.00000	4715.15500
3.73315	0.00000	4715.15500
3.73697	0.00000	4715.15500
3.74080	0.00000	4715.15500
3.74464	0.00000	4717.92000
3.74847	0.00000	4717.92000
3.75229	0.00000	4717.92000
3.75612	0.00000	4717.92000
3.75996	0.00000	4717.92000
3.76380	0.00000	4717.92000
3.76763	0.00000	4734.51300
3.77148	0.00000	4734.51300
3.77531	0.00000	4734.51300
3.77915	0.00000	4734.51300
3.78298	0.00000	4734.51300
3.78682	0.00000	4726.44700
3.79068	0.00000	4726.44700
3.79453	0.00000	4726.44700
3.79837	0.00000	4726.44700
3.80220	0.00000	4726.44700
3.80602	0.00000	4726.44700
3.80985	0.00000	4720.68500
3.81368	0.00000	4720.68500
3.81751	0.00000	4720.68500
3.82132	0.00000	4720.68500
3.82514	0.00000	4720.68500
3.82896	0.00000	4720.68500
3.83279	0.00000	4709.62300
3.83662	0.00000	4709.62300
3.84045	0.00000	4709.62300
3.84427	0.00000	4709.62300
3.84810	0.00000	4709.62300
3.85195	0.00000	4709.62300
3.85578	0.00000	4723.45100
3.85961	0.00000	4723.45100
3.86345	0.00000	4723.45100
3.86727	0.00000	4723.45100
3.87110	0.00000	4723.45100
3.87492	0.00000	4718.10100
3.87876	0.00000	4718.10100
3.88259	0.00000	4718.10100
3.88642	0.00000	4718.10100
3.89027	0.00000	4718.10100
3.89410	0.00000	4718.10100
3.89793	0.00000	4726.33100
3.90176	0.00000	4726.33100
3.90559	0.00000	4726.33100
3.90942	0.00000	4726.33100
3.91325	0.00000	4726.33100
3.91708	0.00000	4726.33100
3.92091	0.00000	4728.98200
3.92474	0.00000	4728.98200
3.92857	0.00000	4728.98200
3.93240	0.00000	4728.98200
3.93624	0.00000	4728.98200
3.94006	0.00000	4728.98200
3.94388	0.00000	4731.87800
3.94771	0.00000	4731.87800
3.95154	0.00000	4731.87800
3.95537	0.00000	4731.87800
3.95919	0.00000	4731.87800
3.96302	0.00000	4723.66400
3.96684	0.00000	4723.66400
3.97067	0.00000	4723.66400
3.97451	0.00000	4723.66400
3.97834	0.00000	4723.66400
3.98217	0.00000	4723.66400
3.98601	0.00000	4723.66400
3.98986	0.00000	4723.66400
3.99373	0.00000	4723.66400
3.99759	0.00000	4723.66400
4.00142	0.00000	4723.66400
4.00527	0.00000	4723.66400
4.00909	0.00000	4728.98200
4.01293	0.00000	4728.98200
4.01676	0.00000	4728.98200
4.02059	0.00000	4728.98200
4.02443	0.00000	4728.98200
4.02825	0.00000	4728.98200
4.03208	0.00000	4709.62300
4.03592	0.00000	4709.62300
4.03974	0.00000	4709.62300
4.04358	0.00000	4709.62300
4.04740	0.00000	4709.62300
4.05124	0.00000	4720.88300
4.05507	0.00000	4720.88300
4.05892	0.00000	4720.88300
4.06277	0.00000	4720.88300
4.06661	0.00000	4720.88300
4.07044	0.00000	4720.88300
4.07427	0.00000	4718.10100
4.07810	0.00000	4718.10100
4.08193	0.00000	4718.10100
4.08576	0.00000	4718.10100
4.08960	0.00000	4718.10100
4.09343	0.00000	4718.10100
4.09726	0.00000	4715.15500
4.10110	0.00000	4715.15500
4.10492	0.00000	4715.15500
4.10876	0.00000	4715.15500
4.11260	0.00000	4715.15500
4.11642	0.00000	4715.15500
4.12025	0.00000	4734.51300
4.12408	0.00000	4734.51300
4.12792	0.00000	4734.51300
4.13176	0.00000	4734.51300
4.13559	0.00000	4734.51300
4.13942	0.00000	4734.51300
4.14325	0.00000	4720.78400
4.14707	0.00000	4720.78400
4.15091	0.00000	4720.78400
4.15474	0.00000	4720.78400
4.15858	0.00000	4720.78400
4.16240	0.00000	4720.98200
4.16623	0.00000	4720.98200
4.17006	0.00000	4720.98200
4.17388	0.00000	4720.98200
4.17771	0.00000	4720.98200
4.18154	0.00000	4720.98200
4.18537	0.00000	4726.33100
4.18921	0.00000	4726.33100
4.19304	0.00000	4726.33100
4.19687	0.00000	4726.33100
4.20071	0.00000	4726.33100
4.20455	0.00000	4726.33100
4.20838	0.00000	4715.15500
4.21221	0.00000	4715.15500
4.21604	0.00000	4715.15500
4.21988	0.00000	4715.15500
4.22371	0.00000	4715.15500
4.22754	0.00000	4715.15500
4.23137	0.00000	4706.85800
4.23521	0.00000	4706.85800
4.23905	0.00000	4706.85800
4.24288	0.00000	4706.85800
4.24671	0.00000	4706.85800
4.25054	0.00000	4726.44700
4.25439	0.00000	4726.44700
4.25823	0.00000	4726.44700
4.26206	0.00000	4726.44700
4.26589	0.00000	4726.44700
4.26972	0.00000	4726.44700
4.27355	0.00000	4717.92000
4.27738	0.00000	4717.92000
4.28121	0.00000	4717.92000
4.28506	0.00000	4717.92000
4.28889	0.00000	4717.92000
4.29274	0.00000	4717.92000
4.29656	0.00000	4723.55700
4.30039	0.00000	4723.55700
4.30422	0.00000	4723.55700
4.30806	0.00000	4723.55700
4.31189	0.00000	4723.55700
4.31572	0.00000	4723.55700
4.31955	0.00000	4734.51300
4.32338	0.00000	4734.51300
4.32721	0.00000	4734.51300
4.33104	0.00000	4734.51300
4.33488	0.00000	4734.51300
4.33871	0.00000	4729.22800
4.34255	0.00000	4729.22800
4.34638	0.00000	4729.22800
4.35021	0.00000	4729.22800
4.35404	0.00000	4729.22800
4.35787	0.00000	4729.22800
4.36170	0.00000	4718.01000
4.36553	0.00000	4718.01000
4.36932	0.00000	4718.01000
4.37316	0.00000	4718.01000
4.37699	0.00000	4718.01000
4.38082	0.00000	4718.01000
4.38465	0.00000	4717.92000
4.38848	0.00000	4717.92000
4.39231	0.00000	4717.92000
4.39614	0.00000	4717.92000
4.39998	0.00000	4717.92000
4.40381	0.00000	4717.92000
4.40765	0.00000	4709.62300
4.41147	0.00000	4709.62300
4.41531	0.00000	4709.62300
4.41914	0.00000	4709.62300
4.42297	0.00000	4709.62300
4.42680	0.00000	4734.93300
4.43063	0.00000	4734.93300
4.43446	0.00000	4734.93300
4.43829	0.00000	4734.93300
4.44214	0.00000	4734.93300
4.44596	0.00000	4734.93300
4.44979	0.00000	4726.33100
4.45361	0.00000	4726.33100
4.45744	0.00000	4726.33100
4.46127	0.00000	4726.33100
4.46510	0.00000	4726.33100
4.46893	0.00000	4726.33100
4.47277	0.00000	4717.92000
4.47659	0.00000	4717.92000
4.48042	0.00000	4717.92000
4.48425	0.00000	4717.92000
4.48808	0.00000	4717.92000
4.49192	0.00000	4717.92000
4.49574	0.00000	4723.45100
4.49958	0.00000	4723.45100
4.50341	0.00000	4723.45100
4.50725	0.00000	4723.45100
4.51108	0.00000	4723.45100
4.51491	0.00000	4734.93300
4.51873	0.00000	4734.93300
4.52256	0.00000	4734.93300
4.52639	0.00000	4734.93300
4.53022	0.00000	4734.93300
4.53406	0.00000	4734.93300
4.53790	0.00000	4718.10100
4.54173	0.00000	4718.10100
4.54556	0.00000	4718.10100
4.54940	0.00000	4718.10100
4.55324	0.00000	4718.10100
4.55706	0.00000	4718.10100
4.56089	0.00000	4709.62300
4.56473	0.00000	4709.62300
4.56856	0.00000	4709.62300
4.57240	0.00000	4709.62300
4.57623	0.00000	4709.62300
4.58006	0.00000	4709.62300
4.58390	0.00000	4729.10500
4.58773	0.00000	4729.10500
4.59155	0.00000	4729.10500
4.59538	0.00000	4729.10500
4.59921	0.00000	4729.10500
4.60305	0.00000	4729.10500
4.60687	0.00000	4718.10100
4.61071	0.00000	4718.10100
4.61453	0.00000	4718.10100
4.61837	0.00000	4718.10100
4.62221	0.00000	4718.10100
4.62605	0.00000	4706.97300
4.62988	0.00000	4706.97300
4.63372	0.00000	4706.97300
4.63755	0.00000	4706.97300
4.64138	0.00000	4706.97300
4.64521	0.00000	4706.97300
4.64905	0.00000	4717.92000
4.65288	0.00000	4717.92000
4.65671	0.00000	4717.92000
4.66054	0.00000	4717.92000
4.66437	0.00000	4717.92000
4.66821	0.00000	4717.92000
4.67204	0.00000	4718.01000
4.67587	0.00000	4718.01000
4.67969	0.00000	4718.01000
4.68352	0.00000	4718.01000
4.68734	0.00000	4718.01000
4.69118	0.00000	4718.01000
4.69500	0.00000	4709.75500
4.69884	0.00000	4709.75500
4.70267	0.00000	4709.75500
4.70650	0.00000	4709.75500
4.71034	0.00000	4709.75500
4.71417	0.00000	4712.53700
4.71799	0.00000	4712.53700
4.72182	0.00000	4712.53700
4.72565	0.00000	4712.53700
4.72948	0.00000	4712.53700
4.73331	0.00000	4712.53700
4.73715	0.00000	4709.68900
4.74098	0.00000	4709.68900
4.74482	0.00000	4709.68900
4.74864	0.00000	4709.68900
4.75248	0.00000	4709.68900
4.75631	0.00000	4709.68900
4.76013	0.00000	4715.15500
4.76395	0.00000	4715.15500
4.76778	0.00000	4715.15500
4.77162	0.00000	4715.15500
4.77545	0.00000	4715.15500
4.77927	0.00000	4715.15500
4.78309	0.00000	4701.36800
4.78692	0.00000	4701.36800
4.79075	0.00000	4701.36800
4.79459	0.00000	4701.36800
4.79842	0.00000	4701.36800
4.80225	0.00000	4723.77200
4.80608	0.00000	4723.77200
4.80991	0.00000	4723.77200
4.81375	0.00000	4723.77200
4.81758	0.00000	4723.77200
4.82140	0.00000	4723.77200
4.82525	0.00000	4726.33100
4.82908	0.00000	4726.33100
4.83290	0.00000	4726.33100
4.83673	0.00000	4726.33100
4.84056	0.00000	4726.33100
4.84440	0.00000	4726.33100
4.84823	0.00000	4718.01000
4.85206	0.00000	4718.01000
4.85589	0.00000	4718.01000
4.85972	0.00000	4718.01000
4.86354	0.00000	4718.01000
4.86736	0.00000	4718.01000
4.87119	0.00000	4715.31900
4.87502	0.00000	4715.31900
4.87886	0.00000	4715.31900
4.88268	0.00000	4715.31900
4.88651	0.00000	4715.31900
4.89034	0.00000	4712.53700
4.89418	0.00000	4712.53700
4.89800	0.00000	4712.53700
4.90185	0.00000	4712.53700
4.90568	0.00000	4712.53700
4.90951	0.00000	4712.53700
4.91332	0.00000	4723.55700
4.91714	0.00000	4723.55700
4.92097	0.00000	4723.55700
4.92480	0.00000	4723.55700
4.92864	0.00000	4723.55700
4.93247	0.00000	4723.55700
4.93629	0.00000	4712.46300
4.94012	0.00000	4712.46300
4.94395	0.00000	4712.46300
4.94778	0.00000	4712.46300
4.95161	0.00000	4712.46300
4.95544	0.00000	4712.46300
4.95927	0.00000	4720.88300
4.96309	0.00000	4720.88300
4.96692	0.00000	4720.88300
4.97075	0.00000	4720.88300
4.97458	0.00000	4720.88300
4.97842	0.00000	4709.82100
4.98225	0.00000	4709.82100
4.98608	0.00000	4709.82100
4.98992	0.00000	4709.82100
4.99379	0.00000	4709.82100
4.99763	0.00000	4709.82100
5.00199	0.00000	4712.46300
5.00587	0.00000	4712.46300
5.00972	0.00000	4712.46300
5.01357	0.00000	4712.46300
5.01744	0.00000	4712.46300
5.02129	0.00000	4712.46300
5.02514	0.00000	4712.46300
5.02898	0.00000	4712.46300
5.03286	0.00000	4712.46300
5.03671	0.00000	4712.46300
5.04056	0.00000	4712.46300
5.04441	0.00000	4712.46300
5.04824	0.00000	4904.66100
5.05208	0.00000	4904.66100
5.05592	0.00000	4904.66100
5.05977	0.00000	4904.66100
5.06361	0.00000	4904.66100
5.06745	0.00000	4904.66100
5.07130	0.00000	5246.58200
5.07514	0.00000	5246.58200
5.07898	0.00000	5246.58200
5.08281	0.00000	5246.58200
5.08665	0.00000	5246.58200
5.09049	0.00000	5246.58200
5.09433	0.00000	5246.58200
5.09817	0.00000	5470.26700
5.10202	0.00000	5470.26700
5.10585	0.00000	5470.26700
5.10969	0.00000	5470.26700
5.11353	0.00000	5470.26700
5.11738	0.00000	5470.26700
5.12121	0.00000	5470.26700
5.12505	0.00000	5644.62200
5.12891	0.00000	5644.62200
5.13276	0.00000	5644.62200
5.13661	0.00000	5644.62200
5.14046	0.00000	5644.62200
5.14429	0.00000	5644.62200
5.14813	0.00000	5644.62200
5.15196	0.00000	5644.62200
5.15581	0.00000	5736.40600
5.15965	0.00000	5736.40600
5.16350	0.00000	5736.40600
5.16734	0.00000	5736.40600
5.17118	0.00000	5736.40600
5.17503	0.00000	5736.40600
5.17887	0.00000	5736.40600
5.18272	0.00000	5736.40600
5.18656	0.00000	5802.19800
5.19040	0.00000	5802.19800
5.19424	0.00000	5802.19800
5.19809	0.00000	5802.19800
5.20194	0.00000	5802.19800
5.20579	0.00000	5802.19800
5.20965	0.00000	5802.19800
5.21349	0.00000	5848.60500
5.21732	0.00000	5848.60500
5.22117	0.00000	5848.60500
5.22501	0.00000	5848.60500
5.22885	0.00000	5848.60500
5.23269	0.00000	5848.60500
5.23652	0.00000	5848.60500
5.24035	0.00000	5848.60500
5.24418	0.00000	5865.95500
5.24802	0.00000	5865.95500
5.25185	0.00000	5865.95500
5.25568	0.00000	5865.95500
5.25951	0.00000	5865.95500
5.26335	0.00000	5865.95500
5.26719	0.00000	5865.95500
5.27102	0.00000	5865.95500
5.27486	0.00000	5879.03200
5.27870	0.00000	5879.03200
5.28254	0.00000	5879.03200
5.28638	0.00000	5879.03200
5.29022	0.00000	5879.03200
5.29407	0.00000	5879.03200
5.29792	0.00000	5879.03200
5.30175	0.00000	5879.03200
5.30559	0.00000	5899.19400
5.30944	0.00000	5899.19400
5.31330	0.00000	5899.19400
5.31715	0.00000	5899.19400
5.32100	0.00000	5899.19400
5.32484	0.00000	5899.19400
5.32869	0.00000	5899.19400
5.33252	0.00000	5899.19400
5.33637	0.00000	5900.61700
5.34021	0.00000	5900.61700
5.34405	0.00000	5900.61700
5.34788	0.00000	5900.61700
5.35172	0.00000	5900.61700
5.35555	0.00000	5900.61700
5.35939	0.00000	5900.61700
5.36323	0.00000	5900.61700
5.36709	0.00000	5891.99700
5.37093	0.00000	5891.99700
5.37478	0.00000	5891.99700
5.37862	0.00000	5891.99700
5.38247	0.00000	5891.99700
5.38632	0.00000	5891.99700
5.39017	0.00000	5891.99700
5.39401	0.00000	5895.16100
5.39784	0.00000	5895.16100
5.40167	0.00000	5895.16100
5.40552	0.00000	5895.16100
5.40932	0.00000	5895.16100
5.41316	0.00000	5895.16100
5.41699	0.00000	5895.16100
5.42084	0.00000	5895.16100
5.42467	0.00000	5899.19400
5.42853	0.00000	5899.19400
5.43237	0.00000	5899.19400
5.43622	0.00000	5899.19400
5.44007	0.00000	5899.19400
5.44391	0.00000	5899.19400
5.44776	0.00000	5899.19400
5.45160	0.00000	5899.19400
5.45544	0.00000	5908.05600
5.45928	0.00000	5908.05600
5.46315	0.00000	5908.05600
5.46699	0.00000	5908.05600
5.47083	0.00000	5908.05600
5.47467	0.00000	5908.05600
5.47850	0.00000	5908.05600
5.48234	0.00000	5908.05600
5.48617	0.00000	5912.07200
5.49001	0.00000	5912.07200
5.49387	0.00000	5912.07200
5.49771	0.00000	5912.07200
5.50154	0.00000	5912.07200
5.50538	0.00000	5912.07200
5.50923	0.00000	5912.07200
5.51308	0.00000	5912.07200
5.51693	0.00000	5903.44500
5.52077	0.00000	5903.44500
5.52460	0.00000	5903.44500
5.52845	0.00000	5903.44500
5.53229	0.00000	5903.44500
5.53612	0.00000	5903.44500
5.53996	0.00000	5903.44500
5.54380	0.00000	5903.44500
5.54763	0.00000	5903.44500
5.55149	0.00000	5903.44500
5.55532	0.00000	5903.44500
5.55916	0.00000	5903.44500
5.56301	0.00000	5903.44500
5.56686	0.00000	5903.44500
5.57070	0.00000	5903.44500
5.57454	0.00000	5903.44500
5.57839	0.00000	5897.43600
5.58223	0.00000	5897.43600
5.58607	0.00000	5897.43600
5.58992	0.00000	5897.43600
5.59376	0.00000	5897.43600
5.59760	0.00000	5897.43600
5.60144	0.00000	5897.43600
5.60528	0.00000	5897.43600
5.60913	0.00000	5899.43900
5.61297	0.00000	5899.43900
5.61681	0.00000	5899.43900
5.62066	0.00000	5899.43900
5.62450	0.00000	5899.43900
5.62835	0.00000	5899.43900
5.63221	0.00000	5899.43900
5.63605	0.00000	5899.43900
5.63990	0.00000	5905.44800
5.64373	0.00000	5905.44800
5.64758	0.00000	5905.44800
5.65143	0.00000	5905.44800
5.65527	0.00000	5905.44800
5.65910	0.00000	5905.44800
5.66295	0.00000	5905.44800
5.66679	0.00000	5905.44800
5.67063	0.00000	5898.01900
5.67446	0.00000	5898.01900
5.67831	0.00000	5898.01900
5.68215	0.00000	5898.01900
5.68599	0.00000	5898.01900
5.68983	0.00000	5898.01900
5.69367	0.00000	5898.01900
5.69751	0.00000	5907.25800
5.70137	0.00000	5907.25800
5.70521	0.00000	5907.25800
5.70905	0.00000	5907.25800
5.71289	0.00000	5907.25800
5.71673	0.00000	5907.25800
5.72057	0.00000	5907.25800
5.72441	0.00000	5907.25800
5.72824	0.00000	5912.68800
5.73210	0.00000	5912.68800
5.73594	0.00000	5912.68800
5.73977	0.00000	5912.68800
5.74361	0.00000	5912.68800
5.74745	0.00000	5912.68800
5.75130	0.00000	5912.68800
5.75514	0.00000	5912.68800
5.75899	0.00000	5903.44500
5.76284	0.00000	5903.44500
5.76668	0.00000	5903.44500
5.77051	0.00000	5903.44500
5.77435	0.00000	5903.44500
5.77818	0.00000	5903.44500
5.78202	0.00000	5903.44500
5.78587	0.00000	5903.44500
5.78971	0.00000	5905.44800
5.79355	0.00000	5905.44800
5.79739	0.00000	5905.44800
5.80122	0.00000	5905.44800
5.80507	0.00000	5905.44800
5.80892	0.00000	5905.44800
5.81277	0.00000	5905.44800
5.81662	0.00000	5905.44800
5.82046	0.00000	5899.43900
5.82430	0.00000	5899.43900
5.82814	0.00000	5899.43900
5.83199	0.00000	5899.43900
5.83582	0.00000	5899.43900
5.83966	0.00000	5899.43900
5.84350	0.00000	5899.43900
5.84733	0.00000	5899.43900
5.85117	0.00000	5897.43600
5.85501	0.00000	5897.43600
5.85884	0.00000	5897.43600
5.86269	0.00000	5897.43600
5.86653	0.00000	5897.43600
5.87037	0.00000	5897.43600
5.87421	0.00000	5897.43600
5.87805	0.00000	5897.43600
5.88189	0.00000	5914.07900
5.88573	0.00000	5914.07900
5.88957	0.00000	5914.07900
5.89342	0.00000	5914.07900
5.89726	0.00000	5914.07900
5.90110	0.00000	5914.07900
5.90493	0.00000	5914.07900
5.90877	0.00000	5914.07900
5.91261	0.00000	5899.43900
5.91644	0.00000	5899.43900
5.92029	0.00000	5899.43900
5.92413	0.00000	5899.43900
5.92798	0.00000	5899.43900
5.93181	0.00000	5899.43900
5.93566	0.00000	5899.43900
5.93951	0.00000	5899.43900
5.94336	0.00000	5897.43600
5.94720	0.00000	5897.43600
5.95104	0.00000	5897.43600
5.95490	0.00000	5897.43600
5.95874	0.00000	5897.43600
5.96258	0.00000	5897.43600
5.96642	0.00000	5897.43600
5.97026	0.00000	5898.60500
5.97408	0.00000	5898.60500
5.97791	0.00000	5898.60500
5.98174	0.00000	5898.60500
5.98559	0.00000	5898.60500
5.98945	0.00000	5898.60500
5.99332	0.00000	5898.60500
5.99717	0.00000	5898.60500
6.00102	0.00000	5909.27400
6.00489	0.00000	5909.27400
6.00873	0.00000	5909.27400
6.01258	0.00000	5909.27400
6.01643	0.00000	5909.27400
6.02027	0.00000	5909.27400
6.02413	0.00000	5909.27400
6.02798	0.00000	5909.27400
6.03182	0.00000	5899.43900
6.03566	0.00000	5899.43900
6.03951	0.00000	5899.43900
6.04335	0.00000	5899.43900
6.04719	0.00000	5899.43900
6.05106	0.00000	5899.43900
6.05491	0.00000	5899.43900
6.05875	0.00000	5899.43900
6.06260	0.00000	5901.44200
6.06644	0.00000	5901.44200
6.07028	0.00000	5901.44200
6.07412	0.00000	5901.44200
6.07797	0.00000	5901.44200
6.08181	0.00000	5901.44200
6.08565	0.00000	5901.44200
6.08949	0.00000	5901.44200
6.09332	0.00000	5901.44200
6.09717	0.00000	5901.44200
6.10101	0.00000	5901.44200
6.10485	0.00000	5901.44200
6.10869	0.00000	5901.44200
6.11253	0.00000	5901.44200
6.11638	0.00000	5901.44200
6.12023	0.00000	5901.44200
6.12408	0.00000	5905.44800
6.12792	0.00000	5905.44800
6.13177	0.00000	5905.44800
6.13560	0.00000	5905.44800
6.13945	0.00000	5905.44800
6.14329	0.00000	5905.44800
6.14712	0.00000	5905.44800
6.15096	0.00000	5905.44800
6.15480	0.00000	5903.44500
6.15864	0.00000	5903.44500
6.16248	0.00000	5903.44500
6.16632	0.00000	5903.44500
6.17016	0.00000	5903.44500
6.17400	0.00000	5903.44500
6.17784	0.00000	5903.44500
6.18168	0.00000	5903.44500
6.18553	0.00000	5905.44800
6.18937	0.00000	5905.44800
6.19321	0.00000	5905.44800
6.19704	0.00000	5905.44800
6.20087	0.00000	5905.44800
6.20470	0.00000	5905.44800
6.20855	0.00000	5905.44800
6.21239	0.00000	5905.44800
6.21622	0.00000	5912.07200
6.22006	0.00000	5912.07200
6.22390	0.00000	5912.07200
6.22775	0.00000	5912.07200
6.23159	0.00000	5912.07200
6.23544	0.00000	5912.07200
6.23928	0.00000	5912.07200
6.24312	0.00000	5912.07200
6.24696	0.00000	5904.04200
6.25080	0.00000	5904.04200
6.25465	0.00000	5904.04200
6.25849	0.00000	5904.04200
6.26233	0.00000	5904.04200
6.26616	0.00000	5904.04200
6.27001	0.00000	5904.04200
6.27385	0.00000	5911.29000
6.27769	0.00000	5911.29000
6.28152	0.00000	5911.29000
6.28532	0.00000	5911.29000
6.28917	0.00000	5911.29000
6.29301	0.00000	5911.29000
6.29685	0.00000	5911.29000
6.30069	0.00000	5911.29000
6.30453	0.00000	5917.33900
6.30838	0.00000	5917.33900
6.31223	0.00000	5917.33900
6.31607	0.00000	5917.33900
6.31991	0.00000	5917.33900
6.32373	0.00000	5917.33900
6.32757	0.00000	5917.33900
6.33142	0.00000	5917.33900
6.33525	0.00000	5899.43900
6.33909	0.00000	5899.43900
6.34293	0.00000	5899.43900
6.34676	0.00000	5899.43900
6.35061	0.00000	5899.43900
6.35444	0.00000	5899.43900
6.35829	0.00000	5899.43900
6.36212	0.00000	5899.43900
6.36597	0.00000	5901.44200
6.36982	0.00000	5901.44200
6.37366	0.00000	5901.44200
6.37750	0.00000	5901.44200
6.38132	0.00000	5901.44200
6.38517	0.00000	5901.44200
6.38902	0.00000	5901.44200
6.39286	0.00000	5901.44200
6.39669	0.00000	5905.44800
6.40053	0.00000	5905.44800
6.40438	0.00000	5905.44800
6.40821	0.00000	5905.44800
6.41205	0.00000	5905.44800
6.41589	0.00000	5905.44800
6.41973	0.00000	5905.44800
6.42356	0.00000	5905.44800
6.42742	0.00000	5905.44800
6.43126	0.00000	5905.44800
6.43511	0.00000	5905.44800
6.43895	0.00000	5905.44800
6.44279	0.00000	5905.44800
6.44663	0.00000	5905.44800
6.45047	0.00000	5905.44800
6.45431	0.00000	5905.44800
6.45815	0.00000	5903.44500
6.46199	0.00000	5903.44500
6.46583	0.00000	5903.44500
6.46967	0.00000	5903.44500
6.47350	0.00000	5903.44500
6.47732	0.00000	5903.44500
6.48117	0.00000	5903.44500
6.48501	0.00000	5903.44500
6.48886	0.00000	5918.09400
6.49270	0.00000	5918.09400
6.49655	0.00000	5918.09400
6.50039	0.00000	5918.09400
6.50424	0.00000	5918.09400
6.50807	0.00000	5918.09400
6.51192	0.00000	5918.09400
6.51576	0.00000	5918.09400
6.51960	0.00000	5905.44800
6.52343	0.00000	5905.44800
6.52727	0.00000	5905.44800
6.53111	0.00000	5905.44800
6.53494	0.00000	5905.44800
6.53878	0.00000	5905.44800
6.54263	0.00000	5905.44800
6.54646	0.00000	5905.44800
6.55029	0.00000	5908.05600
6.55414	0.00000	5908.05600
6.55799	0.00000	5908.05600
6.56183	0.00000	5908.05600
6.56567	0.00000	5908.05600
6.56952	0.00000	5908.05600
6.57332	0.00000	5908.05600
6.57716	0.00000	5911.29000
6.58098	0.00000	5911.29000
6.58482	0.00000	5911.29000
6.58865	0.00000	5911.29000
6.59249	0.00000	5911.29000
6.59633	0.00000	5911.29000
6.60017	0.00000	5911.29000
6.60400	0.00000	5911.29000
6.60783	0.00000	5902.62900
6.61170	0.00000	5902.62900
6.61554	0.00000	5902.62900
6.61938	0.00000	5902.62900
6.62322	0.00000	5902.62900
6.62706	0.00000	5902.62900
6.63090	0.00000	5902.62900
6.63475	0.00000	5902.62900
6.63859	0.00000	5907.45100
6.64243	0.00000	5907.45100
6.64628	0.00000	5907.45100
6.65015	0.00000	5907.45100
6.65398	0.00000	5907.45100
6.65783	0.00000	5907.45100
6.66165	0.00000	5907.45100
6.66551	0.00000	5907.45100
6.66932	0.00000	5905.44800
6.67316	0.00000	5905.44800
6.67699	0.00000	5905.44800
6.68082	0.00000	5905.44800
6.68465	0.00000	5905.44800
6.68849	0.00000	5905.44800
6.69233	0.00000	5905.44800
6.69618	0.00000	5905.44800
6.70001	0.00000	5905.44800
6.70386	0.00000	5905.44800
6.70770	0.00000	5905.44800
6.71154	0.00000	5905.44800
6.71539	0.00000	5905.44800
6.71922	0.00000	5905.44800
6.72305	0.00000	5905.44800
6.72689	0.00000	5905.44800
6.73073	0.00000	5907.45100
6.73457	0.00000	5907.45100
6.73842	0.00000	5907.45100
6.74226	0.00000	5907.45100
6.74610	0.00000	5907.45100
6.74995	0.00000	5907.45100
6.75379	0.00000	5907.45100
6.75762	0.00000	5907.45100
6.76146	0.00000	5905.44800
6.76532	0.00000	5905.44800
6.76915	0.00000	5905.44800
6.77299	0.00000	5905.44800
6.77684	0.00000	5905.44800
6.78067	0.00000	5905.44800
6.78450	0.00000	5905.44800
6.78833	0.00000	5905.44800
6.79216	0.00000	5903.44500
6.79601	0.00000	5903.44500
6.79984	0.00000	5903.44500
6.80368	0.00000	5903.44500
6.80752	0.00000	5903.44500
6.81137	0.00000	5903.44500
6.81521	0.00000	5903.44500
6.81905	0.00000	5903.44500
6.82290	0.00000	5905.44800
6.82675	0.00000	5905.44800
6.83059	0.00000	5905.44800
6.83443	0.00000	5905.44800
6.83828	0.00000	5905.44800
6.84211	0.00000	5905.44800
6.84595	0.00000	5905.44800
6.84978	0.00000	5905.44800
6.85363	0.00000	5905.44800
6.85747	0.00000	5905.44800
6.86131	0.00000	5905.44800
6.86515	0.00000	5905.44800
6.86899	0.00000	5905.44800
6.87283	0.00000	5905.44800
6.87666	0.00000	5905.44800
6.88050	0.00000	5905.44800
6.88432	0.00000	5906.65200
6.88817	0.00000	5906.65200
6.89202	0.00000	5906.65200
6.89586	0.00000	5906.65200
6.89971	0.00000	5906.65200
6.90355	0.00000	5906.65200
6.90739	0.00000	5906.65200
6.91123	0.00000	5909.27400
6.91509	0.00000	5909.27400
6.91893	0.00000	5909.27400
6.92276	0.00000	5909.27400
6.92660	0.00000	5909.27400
6.93044	0.00000	5909.27400
6.93427	0.00000	5909.27400
6.93812	0.00000	5909.27400
6.94196	0.00000	5908.05600
6.94581	0.00000	5908.05600
6.94966	0.00000	5908.05600
6.95351	0.00000	5908.05600
6.95737	0.00000	5908.05600
6.96121	0.00000	5908.05600
6.96505	0.00000	5908.05600
6.96890	0.00000	5908.05600
6.97274	0.00000	5916.08700
6.97658	0.00000	5916.08700
6.98042	0.00000	5916.08700
6.98425	0.00000	5916.08700
6.98811	0.00000	5916.08700
6.99199	0.00000	5916.08700
6.99584	0.00000	5916.08700
6.99969	0.00000	5916.08700
7.00355	0.00000	5905.44800
7.00739	0.00000	5905.44800
7.01123	0.00000	5905.44800
7.01507	0.00000	5905.44800
7.01892	0.00000	5905.44800
7.02276	0.00000	5905.44800
7.02660	0.00000	5905.44800
7.03045	0.00000	5905.44800
7.03429	0.00000	5912.07200
7.03812	0.00000	5912.07200
7.04196	0.00000	5912.07200
7.04580	0.00000	5912.07200
7.04964	0.00000	5912.07200
7.05347	0.00000	5912.07200
7.05732	0.00000	5912.07200
7.06116	0.00000	5912.07200
7.06500	0.00000	5904.04200
7.06885	0.00000	5904.04200
7.07269	0.00000	5904.04200
7.07654	0.00000	5904.04200
7.08038	0.00000	5904.04200
7.08423	0.00000	5904.04200
7.08807	0.00000	5904.04200
7.09191	0.00000	5904.04200
7.09576	0.00000	5906.04900
7.09960	0.00000	5906.04900
7.10345	0.00000	5906.04900
7.10728	0.00000	5906.04900
7.11113	0.00000	5906.04900
7.11497	0.00000	5906.04900
7.11881	0.00000	5906.04900
7.12265	0.00000	5906.04900
7.12650	0.00000	5906.04900
7.13035	0.00000	5906.04900
7.13419	0.00000	5906.04900
7.13803	0.00000	5906.04900
7.14187	0.00000	5906.04900
7.14571	0.00000	5906.04900
7.14955	0.00000	5906.04900
7.15339	0.00000	5906.04900
7.15721	0.00000	5900.61700
7.16105	0.00000	5900.61700
7.16488	0.00000	5900.61700
7.16871	0.00000	5900.61700
7.17255	0.00000	5900.61700
7.17639	0.00000	5900.61700
7.18023	0.00000	5900.61700
7.18407	0.00000	5905.24200
7.18793	0.00000	5905.24200
7.19177	0.00000	5905.24200
7.19561	0.00000	5905.24200
7.19946	0.00000	5905.24200
7.20330	0.00000	5905.24200
7.20714	0.00000	5905.24200
7.21098	0.00000	5905.24200
7.21482	0.00000	5910.67600
7.21868	0.00000	5910.67600
7.22252	0.00000	5910.67600
7.22635	0.00000	5910.67600
7.23019	0.00000	5910.67600
7.23403	0.00000	5910.67600
7.23787	0.00000	5910.67600
7.24171	0.00000	5910.67600
7.24554	0.00000	5899.43900
7.24937	0.00000	5899.43900
7.25322	0.00000	5899.43900
7.25706	0.00000	5899.43900
7.26090	0.00000	5899.43900
7.26475	0.00000	5899.43900
7.26859	0.00000	5899.43900
7.27243	0.00000	5899.43900
7.27628	0.00000	5897.43600
7.28012	0.00000	5897.43600
7.28397	0.00000	5897.43600
7.28780	0.00000	5897.43600
7.29164	0.00000	5897.43600
7.29547	0.00000	5897.43600
7.29931	0.00000	5897.43600
7.30314	0.00000	5897.43600
7.30697	0.00000	5893.42900
7.31082	0.00000	5893.42900
7.31466	0.00000	5893.42900
7.31851	0.00000	5893.42900
7.32235	0.00000	5893.42900
7.32619	0.00000	5893.42900
7.33003	0.00000	5893.42900
7.33388	0.00000	5893.42900
7.33772	0.00000	5893.42900
7.34157	0.00000	5893.42900
7.34541	0.00000	5893.42900
7.34924	0.00000	5893.42900
7.35308	0.00000	5893.42900
7.35691	0.00000	5893.42900
7.36074	0.00000	5893.42900
7.36458	0.00000	5893.42900
7.36841	0.00000	5910.06400
7.37225	0.00000	5910.06400
7.37608	0.00000	5910.06400
7.37992	0.00000	5910.06400
7.38373	0.00000	5910.06400
7.38757	0.00000	5910.06400
7.39141	0.00000	5910.06400
7.39526	0.00000	5910.06400
7.39911	0.00000	5908.05600
7.40296	0.00000	5908.05600
7.40680	0.00000	5908.05600
7.41065	0.00000	5908.05600
7.41449	0.00000	5908.05600
7.41833	0.00000	5908.05600
7.42216	0.00000	5908.05600
7.42599	0.00000	5908.05600
7.42983	0.00000	5904.04200
7.43366	0.00000	5904.04200
7.43751	0.00000	5904.04200
7.44132	0.00000	5904.04200
7.44516	0.00000	5904.04200
7.44902	0.00000	5904.04200
7.45285	0.00000	5904.04200
7.45671	0.00000	5907.25800
7.46053	0.00000	5907.25800
7.46439	0.00000	5907.25800
7.46824	0.00000	5907.25800
7.47208	0.00000	5907.25800
7.47593	0.00000	5907.25800
7.47977	0.00000	5907.25800
7.48362	0.00000	5907.25800
7.48746	0.00000	5905.24200
7.49131	0.00000	5905.24200
7.49515	0.00000	5905.24200
7.49899	0.00000	5905.24200
7.50283	0.00000	5905.24200
7.50668	0.00000	5905.24200
7.51051	0.00000	5905.24200
7.51435	0.00000	5905.24200
7.51818	0.00000	5904.04200
7.52202	0.00000	5904.04200
7.52587	0.00000	5904.04200
7.52972	0.00000	5904.04200
7.53356	0.00000	5904.04200
7.53740	0.00000	5904.04200
7.54124	0.00000	5904.04200
7.54508	0.00000	5904.04200
7.54892	0.00000	5912.07200
7.55276	0.00000	5912.07200
7.55660	0.00000	5912.07200
7.56044	0.00000	5912.07200
7.56427	0.00000	5912.07200
7.56810	0.00000	5912.07200
7.57194	0.00000	5912.07200
7.57578	0.00000	5912.07200
7.57962	0.00000	5897.43600
7.58345	0.00000	5897.43600
7.58729	0.00000	5897.43600
7.59112	0.00000	5897.43600
7.59496	0.00000	5897.43600
7.59880	0.00000	5897.43600
7.60264	0.00000	5897.43600
7.60649	0.00000	5897.43600
7.61033	0.00000	5893.42900
7.61417	0.00000	5893.42900
7.61801	0.00000	5893.42900
7.62185	0.00000	5893.42900
7.62568	0.00000	5893.42900
7.62952	0.00000	5893.42900
7.63332	0.00000	5893.42900
7.63716	0.00000	5893.42900
7.64101	0.00000	5895.43200
7.64484	0.00000	5895.43200
7.64868	0.00000	5895.43200
7.65252	0.00000	5895.43200
7.65636	0.00000	5895.43200
7.66020	0.00000	5895.43200
7.66403	0.00000	5895.43200
7.66788	0.00000	5895.43200
7.67172	0.00000	5897.43600
7.67556	0.00000	5897.43600
7.67941	0.00000	5897.43600
7.68325	0.00000	5897.43600
7.68710	0.00000	5897.43600
7.69095	0.00000	5897.43600
7.69479	0.00000	5897.43600
7.69863	0.00000	5897.43600
7.70246	0.00000	5891.42600
7.70630	0.00000	5891.42600
7.71014	0.00000	5891.42600
7.71397	0.00000	5891.42600
7.71781	0.00000	5891.42600
7.72165	0.00000	5891.42600
7.72549	0.00000	5891.42600
7.72932	0.00000	5891.42600
7.73315	0.00000	5898.01900
7.73700	0.00000	5898.01900
7.74084	0.00000	5898.01900
7.74469	0.00000	5898.01900
7.74854	0.00000	5898.01900
7.75238	0.00000	5898.01900
7.75621	0.00000	5898.01900
7.76005	0.00000	5899.19400
7.76388	0.00000	5899.19400
7.76771	0.00000	5899.19400
7.77155	0.00000	5899.19400
7.77539	0.00000	5899.19400
7.77923	0.00000	5899.19400
7.78307	0.00000	5899.19400
7.78691	0.00000	5899.19400
7.79075	0.00000	5902.62900
7.79461	0.00000	5902.62900
7.79844	0.00000	5902.62900
7.80228	0.00000	5902.62900
7.80612	0.00000	5902.62900
7.80997	0.00000	5902.62900
7.81381	0.00000	5902.62900
7.81765	0.00000	5902.62900
7.82149	0.00000	5897.43600
7.82532	0.00000	5897.43600
7.82916	0.00000	5897.43600
7.83300	0.00000	5897.43600
7.83684	0.00000	5897.43600
7.84069	0.00000	5897.43600
7.84453	0.00000	5897.43600
7.84837	0.00000	5897.43600
7.85222	0.00000	5914.07900
7.85605	0.00000	5914.07900
7.85990	0.00000	5914.07900
7.86373	0.00000	5914.07900
7.86758	0.00000	5914.07900
7.87142	0.00000	5914.07900
7.87526	0.00000	5914.07900
7.87911	0.00000	5914.07900
7.88295	0.00000	5908.05600
7.88680	0.00000	5908.05600
7.89064	0.00000	5908.05600
7.89448	0.00000	5908.05600
7.89831	0.00000	5908.05600
7.90216	0.00000	5908.05600
7.90599	0.00000	5908.05600
7.90982	0.00000	5908.05600
7.91367	0.00000	5906.04900
7.91750	0.00000	5906.04900
7.92132	0.00000	5906.04900
7.92515	0.00000	5906.04900
7.92900	0.00000	5906.04900
7.93283	0.00000	5906.04900
7.93667	0.00000	5906.04900
7.94052	0.00000	5906.04900
7.94437	0.00000	5897.43600
7.94822	0.00000	5897.43600
7.95206	0.00000	5897.43600
7.95590	0.00000	5897.43600
7.95975	0.00000	5897.43600
7.96359	0.00000	5897.43600
7.96742	0.00000	5897.43600
7.97126	0.00000	5897.43600
7.97510	0.00000	5899.43900
7.97894	0.00000	5899.43900
7.98277	0.00000	5899.43900
7.98661	0.00000	5899.43900
7.99047	0.00000	5899.43900
7.99435	0.00000	5899.43900
7.99822	0.00000	5899.43900
8.00207	0.00000	5899.43900
8.00592	0.00000	5904.04200
8.00977	0.00000	5904.04200
8.01361	0.00000	5904.04200
8.01747	0.00000	5904.04200
8.02131	0.00000	5904.04200
8.02517	0.00000	5904.04200
8.02901	0.00000	5904.04200
8.03285	0.00000	5905.24200
8.03669	0.00000	5905.24200
8.04053	0.00000	5905.24200
8.04441	0.00000	5905.24200
8.04832	0.00000	5905.24200
8.05218	0.00000	5905.24200
8.05603	0.00000	5905.24200
8.05989	0.00000	5905.24200
8.06373	0.00000	5906.65200
8.06758	0.00000	5906.65200
8.07141	0.00000	5906.65200
8.07525	0.00000	5906.65200
8.07909	0.00000	5906.65200
8.08292	0.00000	5906.65200
8.08676	0.00000	5906.65200
8.09060	0.00000	5906.65200
8.09444	0.00000	5907.45100
8.09828	0.00000	5907.45100
8.10212	0.00000	5907.45100
8.10597	0.00000	5907.45100
8.10980	0.00000	5907.45100
8.11365	0.00000	5907.45100
8.11749	0.00000	5907.45100
8.12132	0.00000	5907.45100
8.12515	0.00000	5901.44200
8.12899	0.00000	5901.44200
8.13283	0.00000	5901.44200
8.13666	0.00000	5901.44200
8.14049	0.00000	5901.44200
8.14433	0.00000	5901.44200
8.14817	0.00000	5901.44200
8.15200	0.00000	5901.44200
8.15585	0.00000	5916.08700
8.15968	0.00000	5916.08700
8.16352	0.00000	5916.08700
8.16736	0.00000	5916.08700
8.17120	0.00000	5916.08700
8.17504	0.00000	5916.08700
8.17887	0.00000	5916.08700
8.18271	0.00000	5916.08700
8.18656	0.00000	5901.44200
8.19039	0.00000	5901.44200
8.19424	0.00000	5901.44200
8.19809	0.00000	5901.44200
8.20192	0.00000	5901.44200
8.20575	0.00000	5901.44200
8.20960	0.00000	5901.44200
8.21343	0.00000	5901.44200
8.21727	0.00000	5901.44200
8.22111	0.00000	5901.44200
8.22496	0.00000	5901.44200
8.22880	0.00000	5901.44200
8.23264	0.00000	5901.44200
8.23649	0.00000	5901.44200
8.24032	0.00000	5901.44200
8.24417	0.00000	5901.44200
8.24801	0.00000	5916.08700
8.25185	0.00000	5916.08700
8.25569	0.00000	5916.08700
8.25953	0.00000	5916.08700
8.26337	0.00000	5916.08700
8.26721	0.00000	5916.08700
8.27104	0.00000	5916.08700
8.27488	0.00000	5916.08700
8.27872	0.00000	5901.44200
8.28255	0.00000	5901.44200
8.28641	0.00000	5901.44200
8.29025	0.00000	5901.44200
8.29409	0.00000	5901.44200
8.29793	0.00000	5901.44200
8.30177	0.00000	5901.44200
8.30562	0.00000	5901.44200
8.30945	0.00000	5896.01100
8.31329	0.00000	5896.01100
8.31714	0.00000	5896.01100
8.32097	0.00000	5896.01100
8.32481	0.00000	5896.01100
8.32865	0.00000	5896.01100
8.33249	0.00000	5896.01100
8.33633	0.00000	5911.29000
8.34019	0.00000	5911.29000
8.34403	0.00000	5911.29000
8.34786	0.00000	5911.29000
8.35171	0.00000	5911.29000
8.35554	0.00000	5911.29000
8.35939	0.00000	5911.29000
8.36324	0.00000	5911.29000
8.36708	0.00000	5910.67600
8.37092	0.00000	5910.67600
8.37476	0.00000	5910.67600
8.37861	0.00000	5910.67600
8.38244	0.00000	5910.67600
8.38628	0.00000	5910.67600
8.39014	0.00000	5910.67600
8.39397	0.00000	5910.67600
8.39780	0.00000	5901.44200
8.40165	0.00000	5901.44200
8.40550	0.00000	5901.44200
8.40932	0.00000	5901.44200
8.41316	0.00000	5901.44200
8.41700	0.00000	5901.44200
8.42083	0.00000	5901.44200
8.42467	0.00000	5901.44200
8.42851	0.00000	5914.07900
8.43236	0.00000	5914.07900
8.43620	0.00000	5914.07900
8.44004	0.00000	5914.07900
8.44388	0.00000	5914.07900
8.44771	0.00000	5914.07900
8.45155	0.00000	5914.07900
8.45539	0.00000	5914.07900
8.45922	0.00000	5899.43900
8.46305	0.00000	5899.43900
8.46688	0.00000	5899.43900
8.47074	0.00000	5899.43900
8.47458	0.00000	5899.43900
8.47842	0.00000	5899.43900
8.48226	0.00000	5899.43900
8.48609	0.00000	5899.43900
8.48993	0.00000	5894.85600
8.49377	0.00000	5894.85600
8.49761	0.00000	5894.85600
8.50145	0.00000	5894.85600
8.50530	0.00000	5894.85600
8.50914	0.00000	5894.85600
8.51297	0.00000	5894.85600
8.51682	0.00000	5894.85600
8.52065	0.00000	5903.44500
8.52449	0.00000	5903.44500
8.52832	0.00000	5903.44500
8.53216	0.00000	5903.44500
8.53600	0.00000	5903.44500
8.53983	0.00000	5903.44500
8.54366	0.00000	5903.44500
8.54751	0.00000	5903.44500
8.55135	0.00000	5907.45100
8.55518	0.00000	5907.45100
8.55903	0.00000	5907.45100
8.56287	0.00000	5907.45100
8.56671	0.00000	5907.45100
8.57056	0.00000	5907.45100
8.57440	0.00000	5907.45100
8.57823	0.00000	5907.45100
8.58206	0.00000	5905.44800
8.58590	0.00000	5905.44800
8.58974	0.00000	5905.44800
8.59358	0.00000	5905.44800
8.59742	0.00000	5905.44800
8.60126	0.00000	5905.44800
8.60511	0.00000	5905.44800
8.60896	0.00000	5905.44800
8.61279	0.00000	5902.03400
8.61662	0.00000	5902.03400
8.62047	0.00000	5902.03400
8.62432	0.00000	5902.03400
8.62816	0.00000	5902.03400
8.63200	0.00000	5902.03400
8.63585	0.00000	5902.03400
8.63969	0.00000	5905.24200
8.64355	0.00000	5905.24200
8.64738	0.00000	5905.24200
8.65122	0.00000	5905.24200
8.65507	0.00000	5905.24200
8.65891	0.00000	5905.24200
8.66275	0.00000	5905.24200
8.66659	0.00000	5905.24200
8.67042	0.00000	5906.65200
8.67427	0.00000	5906.65200
8.67811	0.00000	5906.65200
8.68195	0.00000	5906.65200
8.68580	0.00000	5906.65200
8.68964	0.00000	5906.65200
8.69349	0.00000	5906.65200
8.69732	0.00000	5906.65200
8.70115	0.00000	5893.42900
8.70499	0.00000	5893.42900
8.70883	0.00000	5893.42900
8.71267	0.00000	5893.42900
8.71652	0.00000	5893.42900
8.72036	0.00000	5893.42900
8.72420	0.00000	5893.42900
8.72803	0.00000	5893.42900
8.73187	0.00000	5897.43600
8.73572	0.00000	5897.43600
8.73955	0.00000	5897.43600
8.74339	0.00000	5897.43600
8.74724	0.00000	5897.43600
8.75108	0.00000	5897.43600
8.75493	0.00000	5897.43600
8.75877	0.00000	5897.43600
8.76262	0.00000	5908.05600
8.76646	0.00000	5908.05600
8.77031	0.00000	5908.05600
8.77414	0.00000	5908.05600
8.77797	0.00000	5908.05600
8.78180	0.00000	5908.05600
8.78565	0.00000	5908.05600
8.78948	0.00000	5908.05600
8.79332	0.00000	5910.06400
8.79716	0.00000	5910.06400
8.80100	0.00000	5910.06400
8.80484	0.00000	5910.06400
8.80868	0.00000	5910.06400
8.81252	0.00000	5910.06400
8.81635	0.00000	5910.06400
8.82019	0.00000	5910.06400
8.82404	0.00000	5897.43600
8.82789	0.00000	5897.43600
8.83173	0.00000	5897.43600
8.83558	0.00000	5897.43600
8.83942	0.00000	5897.43600
8.84326	0.00000	5897.43600
8.84709	0.00000	5897.43600
8.85093	0.00000	5897.43600
8.85477	0.00000	5897.43600
8.85860	0.00000	5897.43600
8.86244	0.00000	5897.43600
8.86628	0.00000	5897.43600
8.87012	0.00000	5897.43600
8.87397	0.00000	5897.43600
8.87781	0.00000	5897.43600
8.88165	0.00000	5897.43600
8.88550	0.00000	5908.05600
8.88932	0.00000	5908.05600
8.89316	0.00000	5908.05600
8.89701	0.00000	5908.05600
8.90086	0.00000	5908.05600
8.90470	0.00000	5908.05600
8.90854	0.00000	5908.05600
8.91237	0.00000	5917.96900
8.91620	0.00000	5917.96900
8.92003	0.00000	5917.96900
8.92387	0.00000	5917.96900
8.92771	0.00000	5917.96900
8.93154	0.00000	5917.96900
8.93538	0.00000	5917.96900
8.93922	0.00000	5917.96900
8.94305	0.00000	5903.22600
8.94691	0.00000	5903.22600
8.95075	0.00000	5903.22600
8.95458	0.00000	5903.22600
8.95843	0.00000	5903.22600
8.96227	0.00000	5903.22600
8.96612	0.00000	5903.22600
8.96996	0.00000	5903.22600
8.97380	0.00000	5904.04200
8.97765	0.00000	5904.04200
8.98148	0.00000	5904.04200
8.98532	0.00000	5904.04200
8.98916	0.00000	5904.04200
8.99301	0.00000	5904.04200
8.99685	0.00000	5904.04200
9.00069	0.00000	5904.04200
9.00453	0.00000	5914.07900
9.00838	0.00000	5914.07900
9.01223	0.00000	5914.07900
9.01608	0.00000	5914.07900
9.01992	0.00000	5914.07900
9.02377	0.00000	5914.07900
9.02761	0.00000	5914.07900
9.03145	0.00000	5914.07900
9.03531	0.00000	5899.43900
9.03915	0.00000	5899.43900
9.04299	0.00000	5899.43900
9.04683	0.00000	5899.43900
9.05067	0.00000	5899.43900
9.05454	0.00000	5899.43900
9.05839	0.00000	5899.43900
9.06223	0.00000	5899.43900
9.06607	0.00000	5906.04900
9.06992	0.00000	5906.04900
9.07377	0.00000	5906.04900
9.07761	0.00000	5906.04900
9.08145	0.00000	5906.04900
9.08530	0.00000	5906.04900
9.08915	0.00000	5906.04900
9.09299	0.00000	5906.04900
9.09682	0.00000	5904.04200
9.10066	0.00000	5904.04200
9.10450	0.00000	5904.04200
9.10834	0.00000	5904.04200
9.11217	0.00000	5904.04200
9.11601	0.00000	5904.04200
9.11986	0.00000	5904.04200
9.12369	0.00000	5904.04200
9.12753	0.00000	5908.05600
9.13137	0.00000	5908.05600
9.13520	0.00000	5908.05600
9.13905	0.00000	5908.05600
9.14289	0.00000	5908.05600
9.14673	0.00000	5908.05600
9.15058	0.00000	5908.05600
9.15442	0.00000	5908.05600
9.15827	0.00000	5897.43600
9.16212	0.00000	5897.43600
9.16596	0.00000	5897.43600
9.16979	0.00000	5897.43600
9.17362	0.00000	5897.43600
9.17746	0.00000	5897.43600
9.18130	0.00000	5897.43600
9.18515	0.00000	5897.43600
9.18897	0.00000	5898.60500
9.19281	0.00000	5898.60500
9.19665	0.00000	5898.60500
9.20049	0.00000	5898.60500
9.20433	0.00000	5898.60500
9.20817	0.00000	5898.60500
9.21201	0.00000	5898.60500
9.21585	0.00000	5903.22600
9.21972	0.00000	5903.22600
9.22356	0.00000	5903.22600
9.22739	0.00000	5903.22600
9.23124	0.00000	5903.22600
9.23508	0.00000	5903.22600
9.23891	0.00000	5903.22600
9.24275	0.00000	5903.22600
9.24658	0.00000	5900.02600
9.25042	0.00000	5900.02600
9.25425	0.00000	5900.02600
9.25809	0.00000	5900.02600
9.26193	0.00000	5900.02600
9.26576	0.00000	5900.02600
9.26962	0.00000	5900.02600
9.27346	0.00000	5900.02600
9.27731	0.00000	5897.43600
9.28116	0.00000	5897.43600
9.28500	0.00000	5897.43600
9.28884	0.00000	5897.43600
9.29268	0.00000	5897.43600
9.29652	0.00000	5897.43600
9.30036	0.00000	5897.43600
9.30419	0.00000	5897.43600
9.30803	0.00000	5893.42900
9.31187	0.00000	5893.42900
9.31570	0.00000	5893.42900
9.31954	0.00000	5893.42900
9.32337	0.00000	5893.42900
9.32721	0.00000	5893.42900
9.33106	0.00000	5893.42900
9.33490	0.00000	5893.42900
9.33874	0.00000	5912.07200
9.34258	0.00000	5912.07200
9.34642	0.00000	5912.07200
9.35027	0.00000	5912.07200
9.35410	0.00000	5912.07200
9.35795	0.00000	5912.07200
9.36179	0.00000	5912.07200
9.36563	0.00000	5912.07200
9.36947	0.00000	5908.05600
9.37330	0.00000	5908.05600
9.37714	0.00000	5908.05600
9.38098	0.00000	5908.05600
9.38482	0.00000	5908.05600
9.38866	0.00000	5908.05600
9.39250	0.00000	5908.05600
9.39634	0.00000	5908.05600
9.40018	0.00000	5910.06400
9.40402	0.00000	5910.06400
9.40787	0.00000	5910.06400
9.41171	0.00000	5910.06400
9.41555	0.00000	5910.06400
9.41940	0.00000	5910.06400
9.42324	0.00000	5910.06400
9.42709	0.00000	5910.06400
9.43092	0.00000	5901.44200
9.43476	0.00000	5901.44200
9.43860	0.00000	5901.44200
9.44243	0.00000	5901.44200
9.44627	0.00000	5901.44200
9.45010	0.00000	5901.44200
9.45394	0.00000	5901.44200
9.45777	0.00000	5901.44200
9.46160	0.00000	5900.02600
9.46544	0.00000	5900.02600
9.46927	0.00000	5900.02600
9.47312	0.00000	5900.02600
9.47696	0.00000	5900.02600
9.48080	0.00000	5900.02600
9.48464	0.00000	5900.02600
9.48848	0.00000	5901.21000
9.49231	0.00000	5901.21000
9.49615	0.00000	5901.21000
9.49999	0.00000	5901.21000
9.50383	0.00000	5901.21000
9.50767	0.00000	5901.21000
9.51150	0.00000	5901.21000
9.51534	0.00000	5901.21000
9.51917	0.00000	5905.24200
9.52302	0.00000	5905.24200
9.52687	0.00000	5905.24200
9.53070	0.00000	5905.24200
9.53455	0.00000	5905.24200
9.53838	0.00000	5905.24200
9.54222	0.00000	5905.24200
9.54606	0.00000	5905.24200
9.54991	0.00000	5908.05600
9.55375	0.00000	5908.05600
9.55760	0.00000	5908.05600
9.56144	0.00000	5908.05600
9.56527	0.00000	5908.05600
9.56912	0.00000	5908.05600
9.57295	0.00000	5908.05600
9.57678	0.00000	5908.05600
9.58063	0.00000	5895.43200
9.58447	0.00000	5895.43200
9.58831	0.00000	5895.43200
9.59214	0.00000	5895.43200
9.59599	0.00000	5895.43200
9.59982	0.00000	5895.43200
9.60366	0.00000	5895.43200
9.60750	0.00000	5895.43200
9.61136	0.00000	5906.04900
9.61519	0.00000	5906.04900
9.61903	0.00000	5906.04900
9.62288	0.00000	5906.04900
9.62672	0.00000	5906.04900
9.63055	0.00000	5906.04900
9.63439	0.00000	5906.04900
9.63823	0.00000	5906.04900
9.64207	0.00000	5906.04900
9.64592	0.00000	5906.04900
9.64975	0.00000	5906.04900
9.65358	0.00000	5906.04900
9.65741	0.00000	5906.04900
9.66124	0.00000	5906.04900
9.66508	0.00000	5906.04900
9.66893	0.00000	5906.04900
9.67277	0.00000	5899.43900
9.67662	0.00000	5899.43900
9.68047	0.00000	5899.43900
9.68431	0.00000	5899.43900
9.68816	0.00000	5899.43900
9.69200	0.00000	5899.43900
9.69584	0.00000	5899.43900
9.69969	0.00000	5899.43900
9.70353	0.00000	5901.44200
9.70737	0.00000	5901.44200
9.71120	0.00000	5901.44200
9.71503	0.00000	5901.44200
9.71888	0.00000	5901.44200
9.72271	0.00000	5901.44200
9.72655	0.00000	5901.44200
9.73038	0.00000	5901.44200
9.73421	0.00000	5901.44200
9.73805	0.00000	5901.44200
9.74189	0.00000	5901.44200
9.74573	0.00000	5901.44200
9.74957	0.00000	5901.44200
9.75341	0.00000	5901.44200
9.75726	0.00000	5901.44200
9.76110	0.00000	5901.44200
9.76493	0.00000	5908.66400
9.76877	0.00000	5908.66400
9.77261	0.00000	5908.66400
9.77645	0.00000	5908.66400
9.78028	0.00000	5908.66400
9.78411	0.00000	5908.66400
9.78795	0.00000	5908.66400
9.79180	0.00000	5913.92800
9.79562	0.00000	5913.92800
9.79947	0.00000	5913.92800
9.80330	0.00000	5913.92800
9.80714	0.00000	5913.92800
9.81098	0.00000	5913.92800
9.81482	0.00000	5913.92800
9.81867	0.00000	5913.92800
9.82252	0.00000	5915.32300
9.82637	0.00000	5915.32300
9.83022	0.00000	5915.32300
9.83406	0.00000	5915.32300
9.83790	0.00000	5915.32300
9.84173	0.00000	5915.32300
9.84557	0.00000	5915.32300
9.84941	0.00000	5915.32300
9.85325	0.00000	5897.43600
9.85707	0.00000	5897.43600
9.86091	0.00000	5897.43600
9.86474	0.00000	5897.43600
9.86859	0.00000	5897.43600
9.87243	0.00000	5897.43600
9.87626	0.00000	5897.43600
9.88011	0.00000	5897.43600
9.88396	0.00000	5897.43600
9.88781	0.00000	5897.43600
9.89165	0.00000	5897.43600
9.89549	0.00000	5897.43600
9.89933	0.00000	5897.43600
9.90317	0.00000	5897.43600
9.90701	0.00000	5897.43600
9.91086	0.00000	5897.43600
9.91469	0.00000	5912.07200
9.91854	0.00000	5912.07200
9.92237	0.00000	5912.07200
9.92620	0.00000	5912.07200
9.93004	0.00000	5912.07200
9.93387	0.00000	5912.07200
9.93773	0.00000	5912.07200
9.94157	0.00000	5912.07200
9.94541	0.00000	5912.07200
9.94926	0.00000	5912.07200
9.95311	0.00000	5912.07200
9.95695	0.00000	5912.07200
9.96080	0.00000	5912.07200
9.96465	0.00000	5912.07200
9.96849	0.00000	5912.07200
9.97233	0.00000	5912.07200
9.97617	0.00000	5899.43900
9.98001	0.00000	5899.43900
9.98386	0.00000	5899.43900
9.98769	0.00000	5899.43900
9.99153	0.00000	5899.43900
9.99536	0.00000	5899.43900
9.99920	0.00000	5899.43900
