Time (s)   Thrust (N)   RPM  Input
0.00020	2.08274	3739.34600	7.00000
0.03339	2.34438	3950.89300	7.00000
0.06807	2.59725	4182.94200	7.00000
0.10277	2.95276	4391.44700	7.00000
0.18188	3.04402	4513.22100	7.00000
0.26100	3.19588	4594.35100	7.00000
0.29570	3.22974	4589.59600	7.00000
0.33040	3.26107	4610.36400	7.00000
0.36510	3.28100	4567.38300	7.00000
0.39980	3.28976	4608.39800	7.00000
0.43452	3.31086	4666.73200	7.00000
0.46921	3.31409	4620.11700	7.00000
0.50392	3.32127	4603.58800	7.00000
0.53861	3.33799	4646.48400	7.00000
0.57332	3.36076	4652.34400	7.00000
0.60802	3.34248	4618.05500	7.00000
0.64272	3.35463	4658.20300	7.00000
0.67743	3.35837	4661.13300	7.00000
0.71214	3.35434	4626.73600	7.00000
0.74682	3.35516	4666.99200	7.00000
0.78154	3.35043	4612.26800	7.00000
0.81623	3.36117	4635.41700	7.00000
0.85094	3.36143	4675.78100	7.00000
0.88564	3.35720	4669.92200	7.00000
0.92036	3.36143	4638.31000	7.00000
0.95504	3.36435	4666.99200	7.00000
0.98975	3.35979	4669.92200	7.00000
1.02445	3.36171	4641.20300	7.00000
1.05916	3.36376	4669.92200	7.00000
1.09386	3.35847	4696.28900	7.00000
1.12856	3.35424	4615.16200	7.00000
1.16327	3.36284	4666.99200	7.00000
1.19797	3.35662	4696.28900	7.00000
1.23267	3.36217	4612.26800	7.00000
1.26736	3.35755	4669.92200	7.00000
1.30208	3.37306	4641.20300	7.00000
1.33677	3.36400	4669.92200	7.00000
1.37148	3.35380	4612.26800	7.00000
1.40618	3.35778	4638.31000	7.00000
1.44089	3.35435	4672.85100	7.00000
1.47561	3.34989	4615.16200	7.00000
1.51030	3.34887	4638.31000	7.00000
1.54500	3.33234	4669.92200	7.00000
1.57970	3.35375	4669.92200	7.00000
1.61442	3.35666	4638.31000	7.00000
1.64912	3.35431	4669.92200	7.00000
1.68382	3.34797	4669.92200	7.00000
1.71853	3.34518	4638.31000	7.00000
1.75323	3.34610	4675.78100	7.00000
1.78793	3.34670	4649.88400	7.00000
1.82264	3.36094	4672.85100	7.00000
1.85732	3.35563	4672.85100	7.00000
1.89204	3.35349	4644.09700	7.00000
1.92676	3.36014	4681.64000	7.00000
2.00624	3.35977	4618.05500	7.00000
2.04095	3.35769	4652.77800	7.00000
2.07564	3.35475	4681.64000	7.00000
2.11036	3.35712	4672.85100	7.00000
2.14505	3.36423	4646.99000	7.00000
2.17976	3.35532	4615.16200	7.00000
2.21446	3.34812	4672.85100	7.00000
2.24917	3.36026	4646.99000	7.00000
2.28387	3.35763	4618.05500	7.00000
2.31858	3.32668	4666.99200	7.00000
2.35327	3.34704	4699.21900	7.00000
2.38797	3.35426	4612.26800	7.00000
2.42268	3.35921	4666.99200	7.00000
2.45739	3.35880	4635.41700	7.00000
2.49209	3.34199	4661.13300	7.00000
2.52680	3.34831	4664.06200	7.00000
2.56151	3.34274	4632.52300	7.00000
2.59621	3.35001	4658.20300	7.00000
2.63091	3.34142	4669.92200	7.00000
2.66562	3.34370	4638.31000	7.00000
2.70032	3.34289	4666.99200	7.00000
2.73503	3.34365	4629.62900	7.00000
2.76973	3.33871	4661.13300	7.00000
2.80443	3.34599	4664.06200	7.00000
2.83913	3.34239	4626.73600	7.00000
2.87383	3.33455	4603.58800	7.00000
2.90854	3.34320	4664.06200	7.00000
2.94326	3.34232	4699.21900	7.00000
2.97795	3.34352	4618.05500	7.00000
3.01265	3.34460	4669.92200	7.00000
3.04735	3.34127	4708.00800	7.00000
3.08205	3.34757	4618.05500	7.00000
3.11676	3.34073	4681.64000	7.00000
3.15146	3.33206	4655.67100	7.00000
3.18617	3.33471	4684.57000	7.00000
3.22087	3.33651	4626.73600	7.00000
3.25558	3.33907	4655.67100	7.00000
3.29028	3.33910	4684.57000	7.00000
3.32499	3.33601	4687.50000	7.00000
3.35967	3.32321	4629.62900	7.00000
3.39439	3.33565	4690.42900	7.00000
3.42910	3.33229	4652.77800	7.00000
3.46380	3.32650	4687.50000	7.00000
3.49850	3.32469	4684.57000	7.00000
3.53320	3.33202	4713.86700	7.00000
3.56791	3.34749	4690.42900	7.00000
3.60262	3.34868	4629.62900	7.00000
3.63732	3.34353	4652.77800	7.00000
3.67203	3.33934	4623.84300	7.00000
3.70672	3.34781	4681.64000	7.00000
3.74143	3.35340	4655.67100	7.00000
3.77614	3.31794	4687.50000	7.00000
3.81083	3.34461	4681.64000	7.00000
3.84554	3.33638	4713.86700	7.00000
3.88024	3.34881	4684.57000	7.00000
3.91497	3.34692	4713.86700	7.00000
3.94965	3.34513	4681.64000	7.00000
3.98435	3.35812	4681.64000	7.00000
4.01906	3.34522	4658.56500	7.00000
4.05377	3.35171	4678.71100	7.00000
4.08846	3.35329	4681.64000	7.00000
4.12317	3.35451	4649.88400	7.00000
4.15787	3.34335	4620.94900	7.00000
4.19257	3.34947	4690.42900	7.00000
4.22729	3.34302	4649.88400	7.00000
4.26198	3.34935	4678.71100	7.00000
4.29668	3.34586	4620.94900	7.00000
4.33139	3.35093	4646.99000	7.00000
4.36610	3.35754	4620.94900	7.00000
4.40080	3.34784	4675.78100	7.00000
4.43550	3.35746	4710.93700	7.00000
4.47021	3.35162	4681.64000	7.00000
4.50492	3.35533	4678.71100	7.00000
4.53960	3.34299	4623.84300	7.00000
4.57432	3.34574	4678.71100	7.00000
4.60902	3.34551	4652.77800	7.00000
4.64372	3.35021	4675.78100	7.00000
4.67844	3.35027	4678.71100	7.00000
4.71312	3.34959	4652.77800	7.00000
4.74783	3.34588	4678.71100	7.00000
4.78254	3.33056	4618.05500	7.00000
4.81726	3.33353	4649.88400	7.00000
4.85194	3.34877	4620.94900	7.00000
4.88665	3.34656	4678.71100	7.00000
4.92137	3.34514	4702.14800	7.00000
4.95606	3.34324	4618.05500	7.00000
4.99076	3.35364	4675.78100	7.00000
5.02583	3.34547	4649.88400	6.22500
5.06022	3.20028	4234.80300	6.22500
5.13930	2.60630	4053.69700	6.22500
5.17400	2.43174	3960.59700	6.22500
5.20871	2.30761	3797.55400	6.22500
5.24340	2.22133	3788.47900	6.22500
5.27810	2.13486	3746.44800	6.22500
5.31281	2.07191	3675.42600	6.22500
5.34752	2.02066	3615.05600	6.22500
5.38221	1.99355	3627.40300	6.22500
5.41693	1.96924	3594.95200	6.22500
5.45163	1.95487	3573.31700	6.22500
5.48633	1.93710	3548.07700	6.22500
5.52105	1.92833	3526.44200	6.22500
5.55574	1.91723	3570.55600	6.22500
5.59045	1.89380	3504.80700	6.22500
5.62515	1.89108	3548.58400	6.22500
5.65986	1.89488	3537.59700	6.22500
5.69456	1.87753	3533.93500	6.22500
5.72926	1.87116	3526.61100	6.22500
5.76396	1.87588	3522.94900	6.22500
5.79867	1.87630	3519.28700	6.22500
5.83339	1.86186	3515.62500	6.22500
5.86806	1.86828	3511.96300	6.22500
5.90277	1.85097	3511.96300	6.22500
5.93750	1.86234	3508.30000	6.22500
5.97219	1.85393	3504.63800	6.22500
6.00689	1.86910	3500.97600	6.22500
6.04159	1.85708	3504.63800	6.22500
6.07629	1.86189	3508.30000	6.22500
6.11102	1.86131	3504.63800	6.22500
6.14570	1.86142	3500.97600	6.22500
6.18041	1.86094	3504.63800	6.22500
6.21511	1.85994	3497.31400	6.22500
6.24983	1.85976	3500.97600	6.22500
6.28452	1.85875	3549.10700	6.22500
6.31922	1.85666	3493.65200	6.22500
6.35392	1.85340	3497.31400	6.22500
6.38862	1.85073	3489.99000	6.22500
6.42333	1.85135	3493.65200	6.22500
6.45802	1.86185	3545.38700	6.22500
6.49273	1.85901	3486.32800	6.22500
6.52745	1.86099	3489.99000	6.22500
6.56214	1.85018	3489.99000	6.22500
6.59684	1.84629	3482.66600	6.22500
6.63149	1.84777	3541.66600	6.22500
6.66624	1.84070	3482.66600	6.22500
6.70095	1.84093	3482.66600	6.22500
6.73570	1.84949	3486.32800	6.22500
6.81498	1.85274	3541.66600	6.22500
6.84967	1.84890	3486.32800	6.22500
6.88437	1.85157	3493.65200	6.22500
6.91908	1.85110	3493.65200	6.22500
6.95377	1.85050	3489.99000	6.22500
6.98847	1.84365	3486.32800	6.22500
7.02318	1.84442	3489.99000	6.22500
7.05788	1.85566	3493.65200	6.22500
7.09258	1.86281	3489.99000	6.22500
7.12728	1.85474	3549.10700	6.22500
7.16199	1.84895	3549.10700	6.22500
7.19671	1.85445	3486.32800	6.22500
7.23139	1.85156	3489.99000	6.22500
7.26609	1.84484	3486.32800	6.22500
7.30080	1.85827	3486.32800	6.22500
7.33550	1.85130	3549.10700	6.22500
7.41388	1.84898	3541.66600	6.22500
7.44858	1.85729	3489.99000	6.22500
7.48329	1.86020	3493.65200	6.22500
7.51798	1.85903	3493.65200	6.22500
7.55268	1.85315	3497.31400	6.22500
7.58739	1.85391	3497.31400	6.22500
7.62209	1.84747	3493.65200	6.22500
7.65679	1.85488	3493.65200	6.22500
7.69149	1.85841	3497.31400	6.22500
7.72619	1.85735	3500.97600	6.22500
7.76090	1.85863	3497.31400	6.22500
7.79560	1.86215	3500.97600	6.22500
7.83030	1.85320	3552.82700	6.22500
7.86500	1.85874	3493.65200	6.22500
7.89970	1.85862	3497.31400	6.22500
7.93442	1.85935	3497.31400	6.22500
7.96912	1.85984	3493.65200	6.22500
8.00381	1.87068	3497.31400	6.22500
8.03851	1.86192	3500.97600	6.22500
8.07322	1.86392	3500.97600	6.22500
8.10792	1.86737	3497.31400	6.22500
8.14256	1.86596	3497.31400	6.22500
8.17732	1.86696	3497.31400	6.22500
8.21202	1.86975	3504.63800	6.22500
8.24674	1.87134	3500.97600	6.22500
8.28142	1.86905	3500.97600	6.22500
8.31613	1.86767	3493.65200	6.22500
8.35083	1.85880	3493.65200	6.22500
8.38552	1.86286	3500.97600	6.22500
8.42024	1.86108	3497.31400	6.22500
8.45493	1.86052	3497.31400	6.22500
8.48965	1.85910	3497.31400	6.22500
8.52434	1.85865	3500.97600	6.22500
8.55905	1.85440	3497.31400	6.22500
8.59378	1.85693	3497.31400	6.22500
8.62845	1.84828	3500.97600	6.22500
8.66316	1.86124	3497.31400	6.22500
8.69786	1.85354	3493.65200	6.22500
8.73258	1.85829	3500.97600	6.22500
8.76728	1.85828	3500.97600	6.22500
8.80198	1.86439	3500.97600	6.22500
8.83669	1.85953	3549.10700	6.22500
8.87139	1.85770	3497.31400	6.22500
8.90609	1.85271	3552.82700	6.22500
8.94080	1.86552	3497.31400	6.22500
8.97552	1.85025	3497.31400	6.22500
9.01020	1.86137	3497.31400	6.22500
9.04491	1.86975	3500.97600	6.22500
9.07963	1.85844	3497.31400	6.22500
9.11431	1.85555	3497.31400	6.22500
9.14901	1.86660	3500.97600	6.22500
9.18372	1.87505	3493.65200	6.22500
9.21843	1.85325	3493.65200	6.22500
9.25314	1.85863	3497.31400	6.22500
9.28784	1.85617	3500.97600	6.22500
9.32255	1.85612	3552.82700	6.22500
9.35726	1.85509	3497.31400	6.22500
9.39194	1.85680	3556.54700	6.22500
9.42666	1.86414	3500.97600	6.22500
9.46135	1.85565	3500.97600	6.22500
9.49606	1.85526	3497.31400	6.22500
9.53076	1.85653	3493.65200	6.22500
9.56546	1.84465	3500.97600	6.22500
9.60018	1.86005	3500.97600	6.22500
9.63487	1.84904	3556.54700	6.22500
9.66958	1.86423	3497.31400	6.22500
9.70429	1.86082	3497.31400	6.22500
9.73899	1.84214	3500.97600	6.22500
9.77369	1.85635	3556.54700	6.22500
9.85199	1.84811	3504.63800	6.22500
9.88663	1.83693	3497.31400	6.22500
9.92139	1.84186	3497.31400	6.22500
9.95610	1.85562	3504.63800	6.22500
9.99081	1.86863	3497.31400	6.22500
