Time (s)   Thrust (N)   RPM  Input
0.00021	4.30691	5298.37100	7.00000
0.03031	4.21839	5132.81200	7.00000
0.10849	3.91654	4967.67200	7.00000
0.14319	3.88755	4916.29400	7.00000
0.17789	3.73582	4874.44200	7.00000
0.21255	3.66555	4838.98600	7.00000
0.24726	3.62896	4760.91900	7.00000
0.28196	3.57537	4777.19800	7.00000
0.31667	3.53856	4733.79600	7.00000
0.35137	3.47077	4742.47600	7.00000
0.38608	3.47156	4690.39300	7.00000
0.42077	3.46596	4728.51500	7.00000
0.45547	3.47508	4667.24500	7.00000
0.49019	3.46205	4646.99000	7.00000
0.52489	3.45775	4670.13900	7.00000
0.55959	3.46535	4696.28900	7.00000
0.59429	3.49457	4687.50000	7.00000
0.62901	3.45741	4652.77800	7.00000
0.66371	3.44263	4681.64000	7.00000
0.69842	3.41242	4620.94900	7.00000
0.73311	3.39431	4641.20300	7.00000
0.76783	3.41982	4675.78100	7.00000
0.80254	3.43166	4615.16200	7.00000
0.83723	3.45200	4646.99000	7.00000
0.87194	3.41797	4669.92200	7.00000
0.90665	3.45584	4664.06200	7.00000
0.94135	3.64282	4629.62900	7.00000
0.97606	3.44195	4661.13300	7.00000
1.01076	3.43501	4652.34400	7.00000
1.08907	3.42685	4629.62900	7.00000
1.12375	3.43691	4652.34400	7.00000
1.15846	3.41940	4649.41400	7.00000
1.19317	3.40623	4620.94900	7.00000
1.22788	3.43022	4655.27300	7.00000
1.26258	3.44265	4649.41400	7.00000
1.29729	3.44603	4661.13300	7.00000
1.33199	3.43564	4649.41400	7.00000
1.36669	3.44016	4620.94900	7.00000
1.40139	3.38767	4649.41400	7.00000
1.43610	3.40680	4652.34400	7.00000
1.47081	3.43210	4678.71100	7.00000
1.50550	3.43263	4646.48400	7.00000
1.54021	3.45206	4646.48400	7.00000
1.57491	3.42640	4672.85100	7.00000
1.60963	3.46638	4646.48400	7.00000
1.64432	3.42598	4646.48400	7.00000
1.67905	3.42161	4609.37500	7.00000
1.71374	3.44630	4643.55400	7.00000
1.74845	3.43293	4640.62500	7.00000
1.78315	3.43734	4609.37500	7.00000
1.81785	3.44303	4634.76500	7.00000
1.85256	3.43470	4640.62500	7.00000
1.88727	3.44714	4675.78100	7.00000
1.92197	3.41888	4643.55400	7.00000
1.95667	3.44628	4640.62500	7.00000
1.99139	3.43730	4618.05500	7.00000
2.02609	3.41058	4640.62500	7.00000
2.06078	3.45603	4640.62500	7.00000
2.09549	3.42733	4618.05500	7.00000
2.13020	3.43281	4640.62500	7.00000
2.16490	3.40974	4640.62500	7.00000
2.19961	3.41475	4655.27300	7.00000
2.23431	3.44067	4646.48400	7.00000
2.26902	3.45928	4681.64000	7.00000
2.30371	3.41570	4646.48400	7.00000
2.33842	3.42176	4649.41400	7.00000
2.37312	3.31913	4675.78100	7.00000
2.40782	3.43155	4646.48400	7.00000
2.44253	3.41378	4649.41400	7.00000
2.47723	3.39574	4681.64000	7.00000
2.51194	3.41305	4655.27300	7.00000
2.54664	3.39643	4661.13300	7.00000
2.58136	3.38345	4681.64000	7.00000
2.61606	3.42137	4603.58800	7.00000
2.65075	3.43317	4664.06200	7.00000
2.68545	3.41759	4626.73600	7.00000
2.72016	3.36154	4672.85100	7.00000
2.75483	3.42747	4669.92200	7.00000
2.78957	3.41734	4638.31000	7.00000
2.82426	3.41298	4672.85100	7.00000
2.85897	3.38966	4675.78100	7.00000
2.89369	3.38152	4649.88400	7.00000
2.92838	3.39985	4678.71100	7.00000
2.96308	3.36731	4649.88400	7.00000
2.99779	3.35825	4675.78100	7.00000
3.03249	3.45687	4675.78100	7.00000
3.06720	3.45312	4646.99000	7.00000
3.10191	3.43223	4684.57000	7.00000
3.13661	3.44716	4618.05500	7.00000
3.17124	3.44452	4641.20300	7.00000
3.20601	3.41088	4672.85100	7.00000
3.24072	3.40589	4612.26800	7.00000
3.27542	3.49654	4644.09700	7.00000
3.31012	3.40742	4669.92200	7.00000
3.34482	3.39697	4672.85100	7.00000
3.37953	3.39304	4644.09700	7.00000
3.41423	3.41246	4615.16200	7.00000
3.44895	3.35477	4678.71100	7.00000
3.48364	3.40259	4708.00800	7.00000
3.51834	3.39753	4681.64000	7.00000
3.55305	3.43559	4675.78100	7.00000
3.58775	3.43382	4687.50000	7.00000
3.62245	3.36573	4678.71100	7.00000
3.65715	3.57601	4702.14800	7.00000
3.69186	3.43511	4620.94900	7.00000
3.72656	3.48385	4681.64000	7.00000
3.76128	3.45072	4652.77800	7.00000
3.79597	3.42693	4681.64000	7.00000
3.83068	3.43617	4620.94900	7.00000
3.86539	3.42468	4646.99000	7.00000
3.90009	3.43672	4678.71100	7.00000
3.93478	3.40238	4681.64000	7.00000
3.96949	3.43363	4708.00800	7.00000
4.00419	3.42572	4675.78100	7.00000
4.03891	3.42070	4675.78100	7.00000
4.07362	3.36162	4646.99000	7.00000
4.10830	3.41355	4675.78100	7.00000
4.14301	3.37303	4675.78100	7.00000
4.17772	3.42256	4638.31000	7.00000
4.21242	3.42247	4678.71100	7.00000
4.29129	3.42452	4672.85100	7.00000
4.32599	3.43195	4644.09700	7.00000
4.36070	3.45114	4666.99200	7.00000
4.39540	3.35791	4672.85100	7.00000
4.43011	3.44231	4641.20300	7.00000
4.46482	3.45710	4666.99200	7.00000
4.49952	3.45685	4693.35900	7.00000
4.53423	3.40503	4609.37500	7.00000
4.56893	3.42676	4669.92200	7.00000
4.60364	3.40898	4693.35900	7.00000
4.63834	3.42666	4612.26800	7.00000
4.67305	3.42870	4669.92200	7.00000
4.70776	3.47994	4635.41700	7.00000
4.74249	3.43583	4666.99200	7.00000
4.77717	3.50734	4612.26800	7.00000
4.81189	3.45321	4638.31000	7.00000
4.84658	3.43968	4669.92200	7.00000
4.88129	3.38548	4664.06200	7.00000
4.91600	3.44576	4632.52300	7.00000
4.95071	3.43188	4658.20300	7.00000
4.98541	3.41426	4661.13300	7.00000
5.02051	3.42979	4693.35900	7.60000
5.05493	3.42614	4738.94800	7.60000
5.08959	3.81004	4946.40200	7.60000
5.12425	4.16050	5182.00500	7.60000
5.15896	4.35770	5269.65700	7.60000
5.19365	4.49470	5338.81600	7.60000
5.22837	4.57478	5373.53500	7.60000
5.26306	4.58577	5417.48000	7.60000
5.29777	4.66566	5385.79200	7.60000
5.33246	4.68924	5434.11700	7.60000
5.36716	4.67696	5414.78700	7.60000
5.40189	4.62002	5455.86300	7.60000
5.43658	4.59393	5460.69600	7.60000
5.47128	4.68766	5431.70100	7.60000
5.50598	4.62724	5465.52800	7.60000
5.54070	4.66974	5465.52800	7.60000
5.57540	4.68992	5434.11700	7.60000
5.61009	4.69021	5463.11200	7.60000
5.64481	4.71221	5407.36600	7.60000
5.67951	4.58055	5431.70100	7.60000
5.71421	4.72487	5407.36600	7.60000
5.74892	4.68371	5424.45200	7.60000
5.78364	4.71709	5458.28000	7.60000
5.81835	4.56122	5458.28000	7.60000
5.85303	4.71040	5424.45200	7.60000
5.88774	4.72480	5446.19800	7.60000
5.92245	4.73068	5455.86300	7.60000
5.95715	4.71546	5414.78700	7.60000
5.99186	4.73378	5388.23300	7.60000
6.02657	4.67540	5466.30800	7.60000
6.10492	4.54000	5407.53800	7.60000
6.13961	4.63373	5383.45000	7.60000
6.17431	4.65432	5438.94900	7.60000
6.20902	4.70149	5405.12200	7.60000
6.24373	4.68663	5381.05800	7.60000
6.27843	4.63625	5405.12200	7.60000
6.31317	4.62341	5376.27500	7.60000
6.34784	4.57116	5431.70100	7.60000
6.38255	4.57249	5405.12200	7.60000
6.41725	4.67084	5429.28400	7.60000
6.45195	4.64008	5434.11700	7.60000
6.48666	4.62523	5454.10100	7.60000
6.52136	4.71825	5429.28400	7.60000
6.55608	4.65953	5454.10100	7.60000
6.59077	4.65816	5405.12200	7.60000
6.62548	4.69138	5429.28400	7.60000
6.66019	4.64340	5390.62500	7.60000
6.69490	4.67074	5429.28400	7.60000
6.72960	4.60941	5426.86800	7.60000
6.76431	4.55425	5449.21900	7.60000
6.79902	4.54101	5422.03600	7.60000
6.83372	4.53323	5390.62500	7.60000
6.86842	4.61134	5456.54300	7.60000
6.90315	4.53496	5424.45200	7.60000
6.93783	4.61656	5446.77700	7.60000
6.97254	4.59921	5419.61900	7.60000
7.00725	4.62883	5417.20300	7.60000
7.04197	4.57413	5446.77700	7.60000
7.07666	4.62433	5417.20300	7.60000
7.11138	4.50647	5383.37600	7.60000
7.14610	4.59584	5461.42600	7.60000
7.18078	4.64659	5429.28400	7.60000
7.21549	4.60675	5449.21900	7.60000
7.25020	4.66490	5426.86800	7.60000
7.28494	4.67921	5426.86800	7.60000
7.31962	4.67682	5395.45700	7.60000
7.35432	4.66660	5424.45200	7.60000
7.38904	4.68004	5454.10100	7.60000
7.42374	4.67313	5409.95400	7.60000
7.45844	4.61850	5431.70100	7.60000
7.49314	4.54917	5395.45700	7.60000
7.52784	4.64656	5429.28400	7.60000
7.56256	4.64854	5376.27500	7.60000
7.59726	4.65348	5395.45700	7.60000
7.63196	4.56710	5376.27500	7.60000
7.66667	4.56707	5402.70600	7.60000
7.70138	4.58564	5463.86700	7.60000
7.73608	4.62218	5429.28400	7.60000
7.77078	4.58513	5400.29000	7.60000
7.80549	4.61016	5431.70100	7.60000
7.84020	4.50545	5426.86800	7.60000
7.87491	4.53470	5395.45700	7.60000
7.90961	4.63510	5373.88400	7.60000
7.94432	4.64225	5429.28400	7.60000
7.97902	4.64261	5451.66000	7.60000
8.01372	4.59255	5424.45200	7.60000
8.04843	4.59195	5395.45700	7.60000
8.08314	4.64041	5424.45200	7.60000
8.11785	4.65758	5424.45200	7.60000
8.15254	4.61363	5446.77700	7.60000
8.18725	4.66022	5426.86800	7.60000
8.22196	4.54917	5429.28400	7.60000
8.25666	4.58769	5395.45700	7.60000
8.29138	4.56053	5371.49200	7.60000
8.32608	4.59133	5397.87300	7.60000
8.36079	4.60333	5429.28400	7.60000
8.39550	4.61684	5422.03600	7.60000
8.43019	4.59238	5454.10100	7.60000
8.46490	4.60694	5424.45200	7.60000
8.49960	4.53284	5426.86800	7.60000
8.53430	4.60873	5393.04100	7.60000
8.56901	4.61869	5426.86800	7.60000
8.60372	4.54308	5451.66000	7.60000
8.63842	4.50331	5429.28400	7.60000
8.67312	4.61342	5431.70100	7.60000
8.70783	4.63243	5458.98400	7.60000
8.74255	4.52957	5429.28400	7.60000
8.77725	4.54486	5429.28400	7.60000
8.81195	4.56298	5407.53800	7.60000
8.84665	4.53995	5431.70100	7.60000
8.88136	4.58360	5402.70600	7.60000
8.91607	4.50482	5438.94900	7.60000
8.95078	4.61439	5436.53300	7.60000
8.98548	4.65657	5407.53800	7.60000
9.02018	4.61105	5438.94900	7.60000
9.05489	4.60601	5441.36600	7.60000
9.08959	4.64308	5468.75000	7.60000
9.12429	4.65840	5443.78200	7.60000
9.15900	4.60922	5407.53800	7.60000
9.19371	4.47880	5441.36600	7.60000
9.22841	4.55849	5446.19800	7.60000
9.26313	4.65907	5414.78700	7.60000
9.29781	4.62183	5390.62500	7.60000
9.33253	4.51944	5395.40800	7.60000
9.36723	4.53700	5473.63300	7.60000
9.40194	4.53911	5448.61400	7.60000
9.43663	4.51500	5412.37100	7.60000
9.47135	4.62947	5395.40800	7.60000
9.50606	4.56918	5390.62500	7.60000
9.54075	4.63728	5414.78700	7.60000
9.57545	4.53469	5451.03100	7.60000
9.61016	4.60366	5446.19800	7.60000
9.64486	4.63265	5414.78700	7.60000
9.67959	4.48872	5388.23300	7.60000
9.71428	4.61067	5412.37100	7.60000
9.74897	4.55598	5436.53300	7.60000
9.78368	4.59926	5441.36600	7.60000
9.81838	4.56214	5405.12200	7.60000
9.85309	4.61648	5434.11700	7.60000
9.88781	4.65436	5456.54300	7.60000
9.96640	4.61830	5405.12200	7.60000
