Time (s)   Thrust (N)   RPM  Input
0.00022	2.72310	4202.91300	7.00000
0.03339	2.80044	4356.25000	7.00000
0.06804	2.94405	4431.81800	7.00000
0.10274	3.04384	4486.17700	7.00000
0.13744	3.12102	4512.46000	7.00000
0.17212	3.18109	4541.01500	7.00000
0.20684	3.21208	4608.39800	7.00000
0.24152	3.25181	4684.53300	7.00000
0.27623	3.28653	4615.16200	7.00000
0.31094	3.29720	4664.35100	7.00000
0.34564	3.32296	4716.79700	7.00000
0.38034	3.32358	4681.71300	7.00000
0.41504	3.33741	4656.05900	7.00000
0.44973	3.34572	4696.18000	7.00000
0.48444	3.35786	4707.75500	7.00000
0.51915	3.36385	4742.47600	7.00000
0.55385	3.35970	4722.22200	7.00000
0.63209	3.36384	4698.93300	7.00000
0.66680	3.35509	4725.11500	7.00000
0.70150	3.35248	4728.00900	7.00000
0.73620	3.35724	4710.36500	7.00000
0.77090	3.35657	4736.69000	7.00000
0.80560	3.36095	4678.92500	7.00000
0.84030	3.35496	4710.36500	7.00000
0.87501	3.35581	4687.50000	7.00000
0.90970	3.37438	4739.58300	7.00000
0.94439	3.36810	4693.21700	7.00000
0.97910	3.37810	4736.69000	7.00000
1.01380	3.38406	4704.64900	7.00000
1.04851	3.38059	4730.90300	7.00000
1.08322	3.37283	4670.35000	7.00000
1.11791	3.37913	4693.21700	7.00000
1.15261	3.38435	4725.11500	7.00000
1.18731	3.38330	4722.22200	7.00000
1.22201	3.37877	4696.07400	7.00000
1.25670	3.38375	4716.43500	7.00000
1.29139	3.38560	4716.43500	7.00000
1.36973	3.39629	4710.64800	7.00000
1.40443	3.39892	4707.75500	7.00000
1.43913	3.38929	4673.20900	7.00000
1.47383	3.39898	4707.75500	7.00000
1.50852	3.38871	4704.86100	7.00000
1.54323	3.39163	4676.06700	7.00000
1.57791	3.38522	4704.86100	7.00000
1.61262	3.39024	4704.86100	7.00000
1.64731	3.38948	4676.06700	7.00000
1.68202	3.38735	4701.96700	7.00000
1.71671	3.38552	4739.58300	7.00000
1.75142	3.37637	4704.86100	7.00000
1.78611	3.39565	4701.96700	7.00000
1.82082	3.39213	4736.69000	7.00000
1.85552	3.39302	4701.96700	7.00000
1.89021	3.39650	4704.86100	7.00000
1.92492	3.39416	4730.90300	7.00000
1.95960	3.39021	4704.86100	7.00000
1.99431	3.39856	4704.86100	7.00000
2.02901	3.39546	4716.43500	7.00000
2.06372	3.38876	4701.96700	7.00000
2.09843	3.39237	4742.47600	7.00000
2.13313	3.37682	4707.75500	7.00000
2.16781	3.37301	4710.64800	7.00000
2.20252	3.36467	4684.64100	7.00000
2.23722	3.37111	4716.43500	7.00000
2.27191	3.36354	4716.43500	7.00000
2.30661	3.36913	4690.35800	7.00000
2.34132	3.36714	4722.22200	7.00000
2.37600	3.37080	4698.93300	7.00000
2.41070	3.36447	4722.22200	7.00000
2.44542	3.37320	4728.00900	7.00000
2.48012	3.36839	4698.93300	7.00000
2.51481	3.37090	4728.00900	7.00000
2.54951	3.36595	4733.79600	7.00000
2.58421	3.36689	4701.79100	7.00000
2.61892	3.36671	4733.79600	7.00000
2.65362	3.36624	4707.50700	7.00000
2.68831	3.35389	4742.47600	7.00000
2.72302	3.35337	4676.06700	7.00000
2.75774	3.35139	4707.50700	7.00000
2.79243	3.34413	4676.06700	7.00000
2.82712	3.35283	4739.58300	7.00000
2.86182	3.35530	4713.22400	7.00000
2.89652	3.35858	4745.37000	7.00000
2.93123	3.37259	4721.79900	7.00000
2.96592	3.36215	4745.37000	7.00000
3.00063	3.35513	4739.58300	7.00000
3.03532	3.34988	4716.08200	7.00000
3.07003	3.35629	4751.15700	7.00000
3.10472	3.34580	4678.92500	7.00000
3.13945	3.34654	4721.79900	7.00000
3.17414	3.35060	4742.47600	7.00000
3.20883	3.34963	4693.21700	7.00000
3.24353	3.35000	4748.26400	7.00000
3.27825	3.35122	4687.50000	7.00000
3.31295	3.34565	4710.36500	7.00000
3.34764	3.34156	4751.15700	7.00000
3.38235	3.33403	4687.50000	7.00000
3.41705	3.35372	4721.79900	7.00000
3.45175	3.34369	4751.15700	7.00000
3.48644	3.36203	4698.93300	7.00000
3.52114	3.35263	4754.05100	7.00000
3.55585	3.34676	4754.05100	7.00000
3.59055	3.35345	4730.37300	7.00000
3.62525	3.35807	4698.93300	7.00000
3.65995	3.34986	4756.94500	7.00000
3.69465	3.35893	4721.79900	7.00000
3.72935	3.34622	4696.07400	7.00000
3.76404	3.34794	4676.20400	7.00000
3.79875	3.34386	4756.94500	7.00000
3.83346	3.34823	4754.05100	7.00000
3.86816	3.36421	4721.79900	7.00000
3.90287	3.36485	4748.26400	7.00000
3.93755	3.36056	4756.94500	7.00000
3.97225	3.36463	4718.94000	7.00000
4.00696	3.35160	4751.15700	7.00000
4.04167	3.36398	4721.79900	7.00000
4.07635	3.36020	4690.35800	7.00000
4.11106	3.35716	4742.47600	7.00000
4.18932	3.36011	4707.50700	7.00000
4.22401	3.36423	4742.47600	7.00000
4.25871	3.36593	4742.47600	7.00000
4.29342	3.37039	4765.62500	7.00000
4.32813	3.37320	4742.47600	7.00000
4.36282	3.37409	4736.69000	7.00000
4.39753	3.38179	4704.64900	7.00000
4.43223	3.37900	4730.90300	7.00000
4.46693	3.37275	4704.64900	7.00000
4.50164	3.37801	4733.79600	7.00000
4.53633	3.36494	4673.20900	7.00000
4.57104	3.36892	4701.79100	7.00000
4.60574	3.37078	4730.90300	7.00000
4.64043	3.37111	4728.00900	7.00000
4.67514	3.36734	4701.79100	7.00000
4.70984	3.36513	4667.49200	7.00000
4.74454	3.36283	4696.07400	7.00000
4.77927	3.36746	4728.00900	7.00000
4.81396	3.36487	4664.63400	7.00000
4.84864	3.38136	4690.35800	7.00000
4.88335	3.37969	4728.00900	7.00000
4.91805	3.36489	4722.22200	7.00000
4.95275	3.36908	4693.21700	7.00000
4.98746	3.37947	4725.11500	7.00000
5.02257	3.36769	4672.85100	6.56250
5.05692	3.23564	4589.59600	6.56250
5.09160	3.05859	4490.13100	6.56250
5.12629	2.92054	4362.50000	6.56250
5.16097	2.81991	4312.50000	6.56250
5.19568	2.77455	4238.28100	6.56250
5.27419	2.62754	4170.59000	6.56250
5.30887	2.60195	4163.41100	6.56250
5.34357	2.57162	4130.85900	6.56250
5.37826	2.55369	4108.07300	6.56250
5.41297	2.53916	4091.79700	6.56250
5.44766	2.53451	4082.03100	6.56250
5.48237	2.52951	4108.07300	6.56250
5.51707	2.53233	4065.75500	6.56250
5.55177	2.52652	4119.71800	6.56250
5.58647	2.52965	4113.11600	6.56250
5.62117	2.52583	4113.11600	6.56250
5.65587	2.52592	4109.81500	6.56250
5.69058	2.51710	4106.51400	6.56250
5.72527	2.52332	4062.50000	6.56250
5.75998	2.51662	4106.51400	6.56250
5.79468	2.52407	4106.51400	6.56250
5.82938	2.51656	4049.47900	6.56250
5.86408	2.52257	4103.21300	6.56250
5.89878	2.51549	4103.21300	6.56250
5.93349	2.51688	4078.77600	6.56250
5.96818	2.51742	4106.51400	6.56250
6.00288	2.50910	4106.51400	6.56250
6.03759	2.51431	4106.51400	6.56250
6.07229	2.51364	4106.51400	6.56250
6.10699	2.51449	4049.47900	6.56250
6.14169	2.51582	4109.81500	6.56250
6.17640	2.51675	4142.82500	6.56250
6.21110	2.51311	4049.47900	6.56250
6.24579	2.51412	4109.81500	6.56250
6.28050	2.51658	4055.98900	6.56250
6.31520	2.51176	4106.51400	6.56250
6.34989	2.50820	4106.51400	6.56250
6.38459	2.51272	4049.47900	6.56250
6.41930	2.51328	4075.52100	6.56250
6.45400	2.50936	4052.73400	6.56250
6.48870	2.51313	4106.51400	6.56250
6.52341	2.51106	4109.81500	6.56250
6.55810	2.50899	4055.98900	6.56250
6.59280	2.50856	4109.81500	6.56250
6.62751	2.51083	4113.11600	6.56250
6.66220	2.51264	4062.50000	6.56250
6.69690	2.51582	4113.11600	6.56250
6.73160	2.50905	4055.98900	6.56250
6.76630	2.50791	4113.11600	6.56250
6.80100	2.51393	4052.73400	6.56250
6.83571	2.51009	4116.41700	6.56250
6.87041	2.50601	4082.03100	6.56250
6.90509	2.50072	4116.41700	6.56250
6.93982	2.50417	4113.11600	6.56250
6.97451	2.49760	4116.41700	6.56250
7.00916	2.50677	4113.11600	6.56250
7.04390	2.49914	4055.98900	6.56250
7.07860	2.49825	4119.71800	6.56250
7.11331	2.50149	4088.54100	6.56250
7.14800	2.49826	4113.11600	6.56250
7.18270	2.49908	4062.50000	6.56250
7.21741	2.49437	4113.11600	6.56250
7.25210	2.49312	4059.24400	6.56250
7.28680	2.49458	4116.41700	6.56250
7.32151	2.49932	4116.41700	6.56250
7.35620	2.49826	4126.32000	6.56250
7.39091	2.48894	4062.50000	6.56250
7.42561	2.48772	4119.71800	6.56250
7.46031	2.49424	4123.01900	6.56250
7.49500	2.49802	4119.71800	6.56250
7.52971	2.49238	4119.71800	6.56250
7.56442	2.49969	4088.54100	6.56250
7.59911	2.49918	4119.71800	6.56250
7.63381	2.49830	4065.75500	6.56250
7.66851	2.50343	4119.71800	6.56250
7.70322	2.49987	4065.75500	6.56250
7.73791	2.49437	4069.01000	6.56250
7.77263	2.50009	4123.01900	6.56250
7.80732	2.50779	4091.79700	6.56250
7.84203	2.50864	4126.32000	6.56250
7.87671	2.50175	4123.01900	6.56250
7.91142	2.49773	4069.01000	6.56250
7.94613	2.50762	4123.01900	6.56250
7.98082	2.50820	4065.75500	6.56250
8.01553	2.50819	4149.42700	6.56250
8.05024	2.51319	4065.75500	6.56250
8.08493	2.51413	4123.01900	6.56250
8.11964	2.51918	4123.01900	6.56250
8.15434	2.51940	4059.24400	6.56250
8.18903	2.51114	4119.71800	6.56250
8.22373	2.50978	4065.75500	6.56250
8.25844	2.51129	4085.28600	6.56250
8.29315	2.51770	4055.98900	6.56250
8.32785	2.51670	4109.81500	6.56250
8.36255	2.51640	4055.98900	6.56250
8.39725	2.51405	4116.41700	6.56250
8.43195	2.51719	4109.81500	6.56250
8.46665	2.51262	4109.81500	6.56250
8.50135	2.50423	4075.52100	6.56250
8.53606	2.50958	4052.73400	6.56250
8.57074	2.50579	4113.11600	6.56250
8.60546	2.50573	4103.21300	6.56250
8.64016	2.50612	4052.73400	6.56250
8.67486	2.50820	4103.21300	6.56250
8.70956	2.51807	4106.51400	6.56250
8.74426	2.51661	4046.22400	6.56250
8.77896	2.52006	4109.81500	6.56250
8.81367	2.51996	4103.21300	6.56250
8.84837	2.52763	4049.47900	6.56250
8.88308	2.52055	4099.91200	6.56250
8.91778	2.51012	4106.51400	6.56250
8.95247	2.51471	4075.52100	6.56250
8.98718	2.51307	4103.21300	6.56250
9.02183	2.51402	4103.21300	6.56250
9.05659	2.51655	4099.91200	6.56250
9.09128	2.52418	4039.71300	6.56250
9.12598	2.52214	4096.61000	6.56250
9.16069	2.51987	4103.21300	6.56250
9.19540	2.52312	4123.01900	6.56250
9.23010	2.52136	4046.22400	6.56250
9.26480	2.52764	4099.91200	6.56250
9.29950	2.52764	4099.91200	6.56250
9.37850	2.52823	4103.21300	6.56250
9.41319	2.52752	4046.22400	6.56250
9.44790	2.52647	4099.91200	6.56250
9.48260	2.52830	4099.91200	6.56250
9.51730	2.52371	4046.22400	6.56250
9.55200	2.51818	4069.01000	6.56250
9.58670	2.53061	4103.21300	6.56250
9.62140	2.52719	4103.21300	6.56250
9.65611	2.52628	4039.71300	6.56250
9.69082	2.52199	4099.91200	6.56250
9.72552	2.51998	4103.21300	6.56250
9.76021	2.51917	4103.21300	6.56250
9.79492	2.51445	4069.01000	6.56250
9.82962	2.51850	4103.21300	6.56250
9.86431	2.51997	4103.21300	6.56250
9.89901	2.51691	4049.47900	6.56250
9.93372	2.51905	4106.51400	6.56250
