Time (s)   Thrust (N)   RPM  Input
0.00023	1.68795	3337.95300	7.00000
0.03337	1.88159	3732.24400	7.00000
0.06809	2.30202	3987.72300	7.00000
0.10278	2.58243	4164.17000	7.00000
0.13748	2.78199	4266.25900	7.00000
0.17218	2.92094	4339.02100	7.00000
0.20688	3.03408	4496.29900	7.00000
0.24159	3.10949	4562.70300	7.00000
0.27627	3.18987	4521.36100	7.00000
0.31098	3.24233	4568.82900	7.00000
0.34569	3.27588	4619.26400	7.00000
0.38038	3.31843	4614.25800	7.00000
0.41508	3.32511	4614.25800	7.00000
0.44979	3.34852	4634.76500	7.00000
0.48450	3.36640	4618.05500	7.00000
0.51922	3.37323	4661.13300	7.00000
0.55390	3.37275	4664.06200	7.00000
0.58859	3.39004	4693.35900	7.00000
0.62330	3.38357	4615.16200	7.00000
0.65800	3.39693	4620.94900	7.00000
0.73715	3.39059	4652.77800	7.00000
0.77183	3.39700	4620.94900	7.00000
0.80652	3.39201	4684.57000	7.00000
0.84123	3.39373	4652.77800	7.00000
0.87593	3.38742	4687.50000	7.00000
0.91062	3.38630	4623.84300	7.00000
0.94533	3.38541	4649.88400	7.00000
0.98004	3.39026	4626.73600	7.00000
1.01472	3.37560	4652.77800	7.00000
1.04943	3.38891	4626.73600	7.00000
1.08412	3.39292	4687.50000	7.00000
1.11883	3.38485	4661.45800	7.00000
1.15353	3.38753	4687.50000	7.00000
1.18824	3.39810	4690.42900	7.00000
1.22294	3.39290	4710.93700	7.00000
1.25763	3.39720	4684.57000	7.00000
1.29233	3.40006	4687.50000	7.00000
1.32704	3.38614	4658.56500	7.00000
1.36174	3.39579	4626.73600	7.00000
1.39644	3.39093	4693.35900	7.00000
1.43114	3.36303	4661.45800	7.00000
1.46584	3.40015	4690.42900	7.00000
1.50054	3.38113	4687.50000	7.00000
1.53526	3.38862	4658.56500	7.00000
1.56996	3.37568	4690.42900	7.00000
1.60465	3.37523	4664.35100	7.00000
1.63934	3.37774	4699.21900	7.00000
1.67406	3.38456	4696.28900	7.00000
1.70874	3.38320	4667.24500	7.00000
1.74345	3.37987	4696.28900	7.00000
1.77815	3.37946	4696.28900	7.00000
1.81284	3.38111	4670.13900	7.00000
1.84755	3.39158	4646.99000	7.00000
1.88225	3.38386	4696.28900	7.00000
1.91697	3.38570	4678.81900	7.00000
1.95165	3.38359	4644.09700	7.00000
1.98636	3.38340	4646.99000	7.00000
2.02105	3.37640	4624.61800	7.00000
2.05575	3.38959	4705.07800	7.00000
2.09045	3.39220	4675.92600	7.00000
2.12515	3.38561	4710.93700	7.00000
2.15985	3.38874	4652.77800	7.00000
2.19455	3.44289	4649.88400	7.00000
2.31700	3.37727	4621.76000	7.00000
2.35168	3.37638	4652.77800	7.00000
2.38639	3.37056	4658.56500	7.00000
2.42108	3.37162	4661.45800	7.00000
2.45579	3.37106	4716.79700	7.00000
2.49048	3.37576	4681.71300	7.00000
2.52520	3.37822	4655.67100	7.00000
2.55989	3.36509	4652.77800	7.00000
2.59458	3.37125	4675.92600	7.00000
2.62928	3.37627	4652.77800	7.00000
2.66399	3.37186	4652.77800	7.00000
2.69869	3.37932	4630.33500	7.00000
2.73339	3.37018	4655.67100	7.00000
2.76809	3.37374	4658.56500	7.00000
2.80280	3.37097	4690.39300	7.00000
2.83751	3.37084	4667.24500	7.00000
2.87220	3.37927	4636.05200	7.00000
2.90690	3.36785	4667.24500	7.00000
2.94160	3.36639	4675.92600	7.00000
2.97632	3.37706	4699.07400	7.00000
3.01101	3.38556	4734.37500	7.00000
3.04572	3.38344	4673.03200	7.00000
3.08042	3.38998	4644.62600	7.00000
3.11511	3.38241	4673.03200	7.00000
3.14982	3.38391	4725.58600	7.00000
3.18452	3.38258	4699.07400	7.00000
3.21922	3.37983	4719.72600	7.00000
3.25392	3.38760	4722.65600	7.00000
3.28865	3.38586	4675.92600	7.00000
3.32332	3.38444	4728.51500	7.00000
3.35803	3.38782	4690.39300	7.00000
3.39273	3.38095	4673.03200	7.00000
3.42743	3.38274	4667.24500	7.00000
3.46213	3.37356	4633.19400	7.00000
3.49683	3.38031	4667.24500	7.00000
3.53153	3.37637	4664.35100	7.00000
3.56625	3.39289	4696.18000	7.00000
3.60094	3.39354	4725.58600	7.00000
3.63564	3.38028	4725.58600	7.00000
3.67033	3.38847	4690.39300	7.00000
3.70504	3.39167	4719.72600	7.00000
3.73975	3.38674	4690.39300	7.00000
3.77445	3.39177	4722.65600	7.00000
3.80915	3.37520	4713.86700	7.00000
3.84386	3.38917	4681.71300	7.00000
3.87856	3.39706	4710.93700	7.00000
3.91327	3.39549	4710.93700	7.00000
3.94797	3.39553	4687.50000	7.00000
3.98266	3.39461	4646.99000	7.00000
4.01736	3.38505	4649.88400	7.00000
4.05207	3.38709	4621.76000	7.00000
4.08677	3.37679	4702.14800	7.00000
4.12147	3.37166	4708.00800	7.00000
4.15619	3.37202	4678.81900	7.00000
4.19087	3.37469	4655.67100	7.00000
4.22558	3.37117	4687.50000	7.00000
4.26029	3.37325	4655.67100	7.00000
4.29500	3.38150	4655.67100	7.00000
4.32969	3.37753	4690.39300	7.00000
4.36440	3.38116	4655.67100	7.00000
4.39911	3.36735	4655.67100	7.00000
4.43380	3.38873	4681.71300	7.00000
4.46850	3.38387	4655.67100	7.00000
4.50320	3.38790	4658.56500	7.00000
4.53790	3.37972	4684.60600	7.00000
4.57260	3.38734	4658.56500	7.00000
4.60733	3.37933	4655.67100	7.00000
4.64201	3.37826	4731.44500	7.00000
4.67671	3.38229	4658.56500	7.00000
4.71141	3.38960	4681.71300	7.00000
4.74613	3.39603	4713.86700	7.00000
4.78082	3.39232	4713.86700	7.00000
4.81552	3.38627	4681.71300	7.00000
4.85018	3.38844	4708.00800	7.00000
4.88493	3.38386	4713.86700	7.00000
4.91963	3.39258	4675.92600	7.00000
4.95433	3.40095	4646.99000	7.00000
4.98903	3.38185	4644.09700	7.00000
5.02416	3.40524	4667.24500	6.00000
5.05849	3.18221	4425.00000	6.00000
5.09318	2.80800	4159.33100	6.00000
5.12785	2.53542	3913.04300	6.00000
5.16256	2.30988	3756.99600	6.00000
5.19726	2.13798	3667.06700	6.00000
5.23196	2.00637	3559.57000	6.00000
5.26666	3.44289	3330.39300	6.00000
5.38889	1.68251	3323.51400	6.00000
5.42360	1.62686	3213.20500	6.00000
5.45830	1.60970	3208.24700	6.00000
5.49300	1.60927	3181.35200	6.00000
5.52769	1.57685	3154.45700	6.00000
5.56240	1.55492	3187.50000	6.00000
5.59710	1.53842	3171.87500	6.00000
5.63181	1.52235	3156.25000	6.00000
5.66651	1.52613	3140.62500	6.00000
5.70120	1.52265	3136.71800	6.00000
5.73592	1.50854	3132.81200	6.00000
5.77061	1.50677	3128.90600	6.00000
5.80532	1.52330	3125.00000	6.00000
5.84002	1.49985	3101.56200	6.00000
5.87471	1.50121	3101.56200	6.00000
5.90943	1.50046	3154.13100	6.00000
5.94414	1.50951	3093.75000	6.00000
5.97883	1.49898	3093.75000	6.00000
6.01353	1.49588	3142.21300	6.00000
6.04824	1.50005	3093.75000	6.00000
6.08294	1.50445	3085.93700	6.00000
6.11764	1.49549	3082.03100	6.00000
6.15235	1.49056	3085.93700	6.00000
6.18704	1.48051	3138.24100	6.00000
6.22175	1.47222	3142.21300	6.00000
6.25645	1.46604	3138.24100	6.00000
6.29115	1.50055	3089.84300	6.00000
6.36954	1.50723	3093.75000	6.00000
6.40424	1.47997	3093.75000	6.00000
6.43895	1.49410	3089.84300	6.00000
6.47365	1.47935	3089.84300	6.00000
6.50834	1.48746	3085.93700	6.00000
6.54306	1.47684	3089.84300	6.00000
6.57775	1.47448	3093.75000	6.00000
6.61245	1.47179	3082.03100	6.00000
6.64716	1.48850	3085.93700	6.00000
6.68186	1.47246	3089.84300	6.00000
6.71656	1.47554	3085.93700	6.00000
6.75127	1.47620	3089.84300	6.00000
6.78597	1.47990	3142.21300	6.00000
6.82066	1.47910	3093.75000	6.00000
6.85537	1.48809	3089.84300	6.00000
6.89008	1.47607	3085.93700	6.00000
6.92477	1.47665	3078.12500	6.00000
6.95947	1.48211	3074.21800	6.00000
6.99418	1.46943	3082.03100	6.00000
7.02888	1.47211	3074.21800	6.00000
7.06358	1.47590	3074.21800	6.00000
7.09830	1.47653	3126.32400	6.00000
7.13299	1.48166	3130.29600	6.00000
7.16770	1.48017	3074.21800	6.00000
7.20240	1.47014	3082.03100	6.00000
7.23711	1.47373	3142.21300	6.00000
7.27179	1.48108	3082.03100	6.00000
7.30651	1.47766	3082.03100	6.00000
7.34122	1.47697	3089.84300	6.00000
7.37591	1.48190	3085.93700	6.00000
7.41061	1.48174	3089.84300	6.00000
7.44532	1.48324	3085.93700	6.00000
7.48001	1.48651	3093.75000	6.00000
7.51471	1.48934	3089.84300	6.00000
7.54943	1.48555	3089.84300	6.00000
7.58411	1.50101	3093.75000	6.00000
7.61881	1.49389	3089.84300	6.00000
7.65351	1.49182	3089.84300	6.00000
7.68823	1.47566	3085.93700	6.00000
7.72292	1.48246	3089.84300	6.00000
7.75763	1.48571	3085.93700	6.00000
7.79233	1.47799	3089.84300	6.00000
7.82704	1.47243	3089.84300	6.00000
7.86175	1.47034	3089.84300	6.00000
7.89644	1.46963	3093.75000	6.00000
7.93115	1.48057	3150.15900	6.00000
7.96583	1.47728	3093.75000	6.00000
8.00054	1.47191	3093.75000	6.00000
8.03525	1.48426	3138.24100	6.00000
8.06995	1.48478	3138.24100	6.00000
8.10466	1.47196	3138.24100	6.00000
8.13935	1.46778	3089.84300	6.00000
8.17405	1.47764	3089.84300	6.00000
8.20875	1.46945	3142.21300	6.00000
8.24345	1.46635	3142.21300	6.00000
8.27815	1.46676	3142.21300	6.00000
8.31286	1.47282	3093.75000	6.00000
8.34754	1.47292	3089.84300	6.00000
8.38226	1.47223	3142.21300	6.00000
8.41697	1.47417	3089.84300	6.00000
8.45167	1.47055	3093.75000	6.00000
8.48637	1.47065	3089.84300	6.00000
8.52106	1.48464	3146.18600	6.00000
8.55576	1.49760	3093.75000	6.00000
8.59047	1.49683	3089.84300	6.00000
8.62517	1.49455	3089.84300	6.00000
8.65987	1.50262	3146.18600	6.00000
8.69458	1.49581	3097.65600	6.00000
8.72927	1.49307	3093.75000	6.00000
8.76399	1.50680	3093.75000	6.00000
8.79868	1.49782	3093.75000	6.00000
8.83339	1.49186	3089.84300	6.00000
8.86810	1.49997	3089.84300	6.00000
8.94635	1.48896	3089.84300	6.00000
8.98105	1.49117	3138.24100	6.00000
9.01575	1.49566	3138.24100	6.00000
9.05046	1.49108	3138.24100	6.00000
9.08516	1.49074	3082.03100	6.00000
9.11985	1.49659	3082.03100	6.00000
9.15456	1.49286	3082.03100	6.00000
9.18926	1.48993	3085.93700	6.00000
9.22397	1.49202	3082.03100	6.00000
9.25866	1.48109	3142.21300	6.00000
9.29337	1.47749	3142.21300	6.00000
9.32807	1.51271	3089.84300	6.00000
9.36277	1.49781	3089.84300	6.00000
9.44144	1.49940	3097.65600	6.00000
9.47614	1.50212	3146.18600	6.00000
9.51084	1.50304	3089.84300	6.00000
9.54554	1.51091	3082.03100	6.00000
9.58024	1.49940	3082.03100	6.00000
9.61494	1.49723	3085.93700	6.00000
9.64964	1.49525	3134.26900	6.00000
9.68435	1.48893	3130.29600	6.00000
9.71906	1.49045	3134.26900	6.00000
9.75375	1.48838	3134.26900	6.00000
9.78845	1.49170	3078.12500	6.00000
9.82316	1.50475	3089.84300	6.00000
9.90276	1.48361	3089.84300	6.00000
9.93748	1.47638	3089.84300	6.00000
9.97218	1.50216	3142.21300	6.00000
