Time (s)   Thrust (N)   RPM  Input
0.00021	2.26802	4109.81500	7.00000
0.03337	2.35737	4241.22400	7.00000
0.06802	2.53048	4371.87500	7.00000
0.10270	2.67162	4469.97500	7.00000
0.13740	2.77184	4492.18700	7.00000
0.17209	2.85099	4553.14500	7.00000
0.20679	2.91275	4590.21200	7.00000
0.24148	2.97642	4625.97600	7.00000
0.27617	3.01009	4652.34400	7.00000
0.31086	3.04258	4664.20800	7.00000
0.34556	3.04953	4673.03200	7.00000
0.38027	3.06975	4670.13900	7.00000
0.41495	3.06975	4684.62400	7.00000
0.44965	3.09490	4693.28700	7.00000
0.48434	3.10510	4710.64800	7.00000
0.51904	3.10972	4684.64100	7.00000
0.55373	3.10290	4719.32900	7.00000
0.58843	3.11750	4730.90300	7.00000
0.62314	3.11927	4724.88500	7.00000
0.65783	3.12049	4699.00300	7.00000
0.69251	3.11799	4728.00900	7.00000
0.72722	3.10956	4727.76000	7.00000
0.76191	3.13601	4728.00900	7.00000
0.79660	3.10859	4698.93300	7.00000
0.83130	3.10599	4728.00900	7.00000
0.86599	3.16386	4722.22200	7.00000
0.90069	3.12518	4698.93300	7.00000
0.93537	3.11299	4728.00900	7.00000
0.97007	3.14487	4730.90300	7.00000
1.00476	3.13183	4693.21700	7.00000
1.03947	3.13752	4728.00900	7.00000
1.07416	3.14875	4725.11500	7.00000
1.15484	3.12376	4722.00900	7.00000
1.18953	3.12960	4719.32900	7.00000
1.22422	3.11537	4727.76000	7.00000
1.25891	3.10109	4722.22200	7.00000
1.29360	3.14214	4725.11500	7.00000
1.32830	3.08852	4693.21700	7.00000
1.36300	3.13159	4722.22200	7.00000
1.39770	3.15169	4719.32900	7.00000
1.43239	3.14639	4722.00900	7.00000
1.46710	3.15540	4693.25100	7.00000
1.50179	3.14332	4725.11500	7.00000
1.53648	3.12655	4698.93300	7.00000
1.57118	3.12785	4722.22200	7.00000
1.60587	3.12837	4727.76000	7.00000
1.64058	3.13782	4696.12700	7.00000
1.67527	3.11584	4728.00900	7.00000
1.70996	3.13497	4696.07400	7.00000
1.74467	3.09969	4699.00300	7.00000
1.77934	3.12947	4725.11500	7.00000
1.81405	3.12843	4730.63600	7.00000
1.84874	3.13495	4722.22200	7.00000
1.88344	3.13637	4719.13300	7.00000
1.91815	3.14177	4696.12700	7.00000
1.95283	3.13566	4730.90300	7.00000
1.98751	3.12010	4716.25800	7.00000
2.02223	3.13790	4696.12700	7.00000
2.05692	3.13240	4722.22200	7.00000
2.09161	3.14535	4698.93300	7.00000
2.12630	3.03662	4719.32900	7.00000
2.16100	3.14895	4696.07400	7.00000
2.19568	3.12829	4722.22200	7.00000
2.23038	3.13943	4716.43500	7.00000
2.26508	3.13434	4722.00900	7.00000
2.29978	3.09854	4693.25100	7.00000
2.33447	3.14214	4730.90300	7.00000
2.36918	3.10193	4730.63600	7.00000
2.40387	3.12913	4696.12700	7.00000
2.43856	3.11992	4725.11500	7.00000
2.47325	3.13826	4713.38200	7.00000
2.50795	3.10221	4725.11500	7.00000
2.54264	3.06938	4730.63600	7.00000
2.57733	3.12308	4696.12700	7.00000
2.61203	3.13232	4722.22200	7.00000
2.64672	3.07423	4722.22200	7.00000
2.72497	3.10000	4696.12700	7.00000
2.75966	3.14830	4722.22200	7.00000
2.79457	3.12887	4719.32900	7.00000
2.87324	3.14750	4690.37600	7.00000
2.90787	3.13836	4725.11500	7.00000
2.94262	3.13344	4727.76000	7.00000
2.97731	3.13363	4693.25100	7.00000
3.01202	3.13095	4716.25800	7.00000
3.04671	3.14199	4701.87900	7.00000
3.08139	3.14821	4719.32900	7.00000
3.11609	3.13563	4724.88500	7.00000
3.15080	3.08979	4722.22200	7.00000
3.18549	3.12194	4719.32900	7.00000
3.22018	3.13601	4713.38200	7.00000
3.25490	3.11209	4690.37600	7.00000
3.28957	3.14110	4722.22200	7.00000
3.32426	3.14757	4722.22200	7.00000
3.35897	3.14291	4690.37600	7.00000
3.39367	3.14226	4716.25800	7.00000
3.42835	3.15771	4713.54100	7.00000
3.46306	3.14186	4707.75500	7.00000
3.49775	3.04846	4710.50600	7.00000
3.53245	3.14562	4710.64800	7.00000
3.56715	3.10823	4707.75500	7.00000
3.60185	3.13453	4713.38200	7.00000
3.63653	3.15265	4704.86100	7.00000
3.67123	3.15415	4676.06700	7.00000
3.70593	3.17969	4678.87200	7.00000
3.74062	3.05711	4707.75500	7.00000
3.77532	3.13842	4710.50600	7.00000
3.81003	3.08397	4704.86100	7.00000
3.84471	3.15360	4704.86100	7.00000
3.87940	2.99691	4707.63000	7.00000
3.91411	3.15232	4707.75500	7.00000
3.94880	3.14494	4704.86100	7.00000
3.98354	3.13569	4701.96700	7.00000
4.06300	3.13408	4704.86100	7.00000
4.09767	3.09604	4704.86100	7.00000
4.13240	3.11069	4701.87900	7.00000
4.16707	3.20518	4704.86100	7.00000
4.20176	3.10313	4704.75500	7.00000
4.23647	3.14748	4722.43800	7.00000
4.27116	3.12437	4699.07400	7.00000
4.30586	3.13425	4701.87900	7.00000
4.34055	3.15016	4690.39300	7.00000
4.37519	3.11103	4684.60600	7.00000
4.40994	3.10279	4681.74800	7.00000
4.44465	3.06598	4681.71300	7.00000
4.47933	3.16334	4684.60600	7.00000
4.51403	3.17460	4690.39300	7.00000
4.54871	3.07012	4707.88000	7.00000
4.58343	3.15608	4681.74800	7.00000
4.61813	3.13521	4704.96900	7.00000
4.65282	3.17805	4667.24500	7.00000
4.68751	3.12724	4675.99700	7.00000
4.72221	3.07471	4696.23400	7.00000
4.75691	3.13146	4667.24500	7.00000
4.79160	3.10773	4670.24500	7.00000
4.82630	3.08455	4696.23400	7.00000
4.86100	3.04393	4670.13900	7.00000
4.89570	3.16370	4675.99700	7.00000
4.93039	3.05737	4699.14600	7.00000
4.96509	3.06870	4699.07400	7.00000
4.99978	3.06406	4667.24500	7.00000
5.03484	3.02560	4631.13100	6.45000
5.06922	2.91719	4519.23100	6.45000
5.10387	2.82826	4356.25000	6.45000
5.13856	2.83536	4221.93800	6.45000
5.17329	2.45720	4160.15600	6.45000
5.20797	2.33346	4099.91200	6.45000
5.24266	2.37843	4049.20200	6.45000
5.27735	2.28588	4010.78300	6.45000
5.31205	2.54255	3991.07100	6.45000
5.34674	2.28169	3979.31600	6.45000
5.38143	2.17021	3948.96500	6.45000
5.41613	2.19848	3953.80400	6.45000
5.45082	2.24229	3908.49800	6.45000
5.48551	2.20958	3926.63000	6.45000
5.52022	2.15210	3913.04300	6.45000
5.55491	2.24859	3906.24900	6.45000
5.58960	2.20841	3896.05900	6.45000
5.62430	2.17449	3921.07600	6.45000
5.65902	2.26004	3913.04300	6.45000
5.69370	2.13702	3896.05900	6.45000
5.72839	2.14102	3910.81100	6.45000
5.76307	2.15675	3882.47300	6.45000
5.79777	2.12958	3903.96900	6.45000
5.83248	2.12212	3914.23300	6.45000
5.86717	2.18776	3885.86900	6.45000
5.90185	2.24047	3914.23300	6.45000
5.93655	2.18619	3882.47300	6.45000
5.97126	2.23547	3910.81100	6.45000
6.00595	2.13607	3907.39000	6.45000
6.04066	2.20152	3879.07600	6.45000
6.07534	2.13755	3899.45600	6.45000
6.11003	2.15691	3903.96900	6.45000
6.14473	2.27459	3903.96900	6.45000
6.17937	2.11728	3900.54700	6.45000
6.21413	2.23232	3885.86900	6.45000
6.24882	2.19880	3914.23300	6.45000
6.28352	2.13574	3882.47300	6.45000
6.31821	2.17349	3910.81100	6.45000
6.35290	2.15657	3907.39000	6.45000
6.38760	2.11536	3900.54700	6.45000
6.42229	2.20442	3900.54700	6.45000
6.45699	2.24560	3897.12600	6.45000
6.49169	2.14288	3900.54700	6.45000
6.52640	2.23307	3896.05900	6.45000
6.56107	2.27009	3907.39000	6.45000
6.59577	2.11856	3903.96900	6.45000
6.63047	2.10649	3907.39000	6.45000
6.70920	2.09950	3907.39000	6.45000
6.74390	2.13705	3899.45600	6.45000
6.77859	2.12535	3903.96900	6.45000
6.81329	2.17632	3907.39000	6.45000
6.84798	2.10258	3879.07600	6.45000
6.88267	2.11547	3875.67900	6.45000
6.91738	2.09572	3897.12600	6.45000
6.95208	2.10688	3897.12600	6.45000
6.98676	2.12750	3868.88500	6.45000
7.02146	2.11192	3862.09200	6.45000
7.05615	2.17673	3897.12600	6.45000
7.09085	2.12245	3897.12600	6.45000
7.12554	2.19664	3875.67900	6.45000
7.16024	2.14652	3872.28200	6.45000
7.19494	2.13184	3899.45600	6.45000
7.22963	2.27544	3900.54700	6.45000
7.26434	2.15913	3897.12600	6.45000
7.29903	2.21780	3886.86100	6.45000
7.33372	2.12516	3886.86100	6.45000
7.36842	2.12173	3890.28200	6.45000
7.40311	2.12272	3886.86100	6.45000
7.43781	2.11831	3880.01800	6.45000
7.47251	2.11565	3886.86100	6.45000
7.50720	2.11378	3886.86100	6.45000
7.54189	2.20618	3893.70400	6.45000
7.57659	2.14315	3897.12600	6.45000
7.61129	2.12892	3897.12600	6.45000
7.64598	2.13573	3892.66300	6.45000
7.68068	2.30337	3890.28200	6.45000
7.71538	2.11421	3893.70400	6.45000
7.75007	2.18786	3886.86100	6.45000
7.78478	2.15792	3886.86100	6.45000
7.81946	2.11331	3883.44000	6.45000
7.85415	2.15632	3876.59600	6.45000
7.88886	2.10675	3880.01800	6.45000
7.92356	2.26759	3886.86100	6.45000
7.95825	2.13027	3883.44000	6.45000
7.99297	2.09833	3880.01800	6.45000
8.02764	2.11046	3876.59600	6.45000
8.06234	2.09869	3876.59600	6.45000
8.09704	2.10002	3883.44000	6.45000
8.13174	2.10935	3907.39000	6.45000
8.16644	2.16161	3890.28200	6.45000
8.20112	2.12595	3880.01800	6.45000
8.23583	2.10048	3886.86100	6.45000
8.27053	2.20470	3880.01800	6.45000
8.30522	2.12306	3873.17500	6.45000
8.33992	2.10427	3883.44000	6.45000
8.37461	2.14815	3883.44000	6.45000
8.40931	2.09872	3880.01800	6.45000
8.44399	2.10738	3886.86100	6.45000
8.47870	2.10943	3908.54700	6.45000
8.51339	2.09068	3876.59600	6.45000
8.54809	2.09557	3873.17500	6.45000
8.58279	2.26859	3872.28200	6.45000
8.61748	2.10523	3873.17500	6.45000
8.65218	2.26629	3876.59600	6.45000
8.68687	2.14970	3886.86100	6.45000
8.72157	2.12005	3880.01800	6.45000
8.75628	2.11679	3883.44000	6.45000
8.79097	2.11970	3905.10100	6.45000
8.82567	2.11028	3883.44000	6.45000
8.86036	2.12649	3883.44000	6.45000
8.89505	2.10624	3883.44000	6.45000
8.92974	2.08945	3880.01800	6.45000
8.96444	2.10348	3876.59600	6.45000
8.99913	2.09665	3873.17500	6.45000
9.03383	2.08362	3880.01800	6.45000
9.06855	2.07866	3865.48900	6.45000
9.10323	2.07803	3873.17500	6.45000
9.13792	2.08491	3873.17500	6.45000
9.17262	2.07458	3873.17500	6.45000
9.20731	2.07854	3898.20700	6.45000
9.24201	2.08665	3876.59600	6.45000
9.27670	2.08895	3880.01800	6.45000
9.31140	2.08987	3905.10100	6.45000
9.34610	2.07877	3880.01800	6.45000
9.38080	2.07545	3873.17500	6.45000
9.41550	2.10508	3880.01800	6.45000
9.45018	2.08947	3886.86100	6.45000
9.48488	2.08537	3876.59600	6.45000
9.51957	2.07956	3875.67900	6.45000
9.55427	2.07920	3883.44000	6.45000
9.58897	2.09112	3886.86100	6.45000
9.62368	2.10570	3893.70400	6.45000
9.65836	2.09038	3886.86100	6.45000
9.69306	2.16245	3886.86100	6.45000
9.72775	2.14209	3890.28200	6.45000
9.76245	2.09395	3890.28200	6.45000
9.79715	2.09261	3890.28200	6.45000
9.83184	2.16712	3862.09200	6.45000
9.86653	2.09809	3883.44000	6.45000
9.90124	2.07700	3883.44000	6.45000
9.93593	2.09111	3880.01800	6.45000
9.97063	2.11288	3880.01800	6.45000
