Time (s)   roll (deg)   Delta
0.00039	-6.34982	11.27051
0.00460	-6.34982	11.27051
0.00881	-6.32785	11.27051
0.01299	-6.32785	11.27051
0.01717	-6.34982	11.27051
0.02135	-6.32785	11.27051
0.02552	-6.32785	11.27051
0.02979	-6.32785	11.27051
0.03404	-6.32785	11.27051
0.03824	-6.32785	11.27051
0.04243	-6.32785	11.27051
0.04661	-6.30588	11.27051
0.05079	-6.30588	11.27051
0.05498	-6.32785	11.27051
0.05916	-6.32785	11.27051
0.06345	-6.30588	11.27051
0.06766	-6.30588	11.27051
0.07184	-6.30588	11.27051
0.07603	-6.30588	11.27051
0.08021	-6.28390	11.27051
0.08439	-6.28390	11.27051
0.08857	-6.28390	11.27051
0.09288	-6.28390	11.27051
0.09713	-6.28390	11.27051
0.10148	-6.28390	11.27051
0.10568	-6.28390	11.27051
0.10988	-6.28390	11.27051
0.11407	-6.28390	11.27051
0.11826	-6.26193	11.27051
0.12255	-6.28390	11.27051
0.12682	-6.28390	11.27051
0.13104	-6.26193	11.27051
0.13524	-6.26193	11.27051
0.13943	-6.28390	11.27051
0.14363	-6.28390	11.27051
0.14784	-6.28390	11.27051
0.15204	-6.28390	11.27051
0.15636	-6.28390	11.27051
0.16058	-6.28390	11.27051
0.16478	-6.28390	11.27051
0.16898	-6.28390	11.27051
0.17317	-6.28390	11.27051
0.17736	-6.30588	11.27051
0.18155	-6.30588	11.27051
0.18581	-6.30588	11.27051
0.19008	-6.30588	11.27051
0.19428	-6.32785	11.27051
0.19848	-6.32785	11.27051
0.20278	-6.32785	11.27051
0.20697	-6.34982	11.27051
0.21117	-6.34982	11.27051
0.21540	-6.34982	11.27051
0.21971	-6.37179	11.27051
0.22395	-6.37179	11.27051
0.22814	-6.39377	11.27051
0.23233	-6.41574	11.27051
0.23653	-6.41574	11.27051
0.24072	-6.43771	11.27051
0.24488	-6.43771	11.27051
0.24931	-6.45968	11.27051
0.25354	-6.45968	11.27051
0.25773	-6.48166	11.27051
0.26192	-6.50363	11.27051
0.26611	-6.52560	11.27051
0.27030	-6.52560	11.27051
0.27449	-6.54757	11.27051
0.27877	-6.56955	11.27051
0.28305	-6.59152	11.27051
0.28726	-6.61349	11.27051
0.29145	-6.63547	11.27051
0.29564	-6.65744	11.27051
0.29984	-6.65744	11.27051
0.30413	-6.67941	11.27051
0.30832	-6.70138	11.27051
0.31262	-6.74533	11.27051
0.31684	-6.76730	11.27051
0.32104	-6.76730	11.27051
0.32523	-6.81125	11.27051
0.32942	-6.81125	11.27051
0.33361	-6.85519	11.27051
0.33780	-6.87716	11.27051
0.34220	-6.89914	11.27051
0.34642	-6.94308	11.27051
0.35062	-6.94308	11.27051
0.35481	-6.98703	11.27051
0.35900	-7.00900	11.27051
0.36319	-7.05295	11.27051
0.36738	-7.09689	11.27051
0.37166	-7.11886	11.27051
0.37594	-7.11886	11.27051
0.38014	-7.14084	11.27051
0.38433	-7.20675	11.27051
0.38853	-7.25070	11.27051
0.39271	-7.27267	11.27051
0.39687	-7.31662	11.27051
0.40106	-7.31662	11.27051
0.40547	-7.38254	11.27051
0.40968	-7.40451	11.27051
0.41387	-7.44845	11.27051
0.41805	-7.47043	11.27051
0.42224	-7.53634	11.27051
0.42643	-7.53634	11.27051
0.43062	-7.58029	11.27051
0.43488	-7.62423	11.27051
0.43914	-7.66818	11.27051
0.44334	-7.71213	11.27051
0.44753	-7.77804	11.27051
0.45172	-7.80002	11.27051
0.45591	-7.80002	11.27051
0.46010	-7.84396	11.27051
0.46429	-7.90988	11.27051
0.46859	-7.95382	11.27051
0.47282	-8.01974	11.27051
0.47701	-8.06369	11.27051
0.48120	-8.06369	11.27051
0.48539	-8.10763	11.27051
0.48958	-8.17355	11.27051
0.49377	-8.21750	11.27051
0.49818	-8.26144	11.27051
0.50240	-8.30539	11.27051
0.50671	-8.39328	11.27051
0.51090	-8.39328	11.27051
0.51508	-8.43722	11.27051
0.51927	-8.50314	11.27051
0.52346	-8.54709	11.27051
0.52773	-8.61300	11.27051
0.53202	-8.67892	11.27051
0.53624	-8.72287	11.27051
0.54044	-8.72287	11.27051
0.54463	-8.76681	11.27051
0.54883	-8.83273	11.27051
0.55304	-8.89865	11.27051
0.55724	-8.96457	11.27051
0.56154	-8.96457	11.27051
0.56575	-9.03048	11.27051
0.56995	-9.09640	11.27051
0.57414	-9.14035	11.27051
0.57833	-9.22824	11.27051
0.58252	-9.27218	11.27051
0.58671	-9.33810	11.27051
0.59111	-9.33810	11.27051
0.59533	-9.40402	11.27051
0.59953	-9.44797	11.27051
0.60372	-9.53586	11.27051
0.60802	-9.60177	11.27051
0.61221	-9.66769	11.27051
0.61640	-9.66769	11.27051
0.62067	-9.73361	11.27051
0.62494	-9.77756	11.27051
0.62914	-9.86545	11.27051
0.63333	-9.90939	11.27051
0.63752	-9.99728	11.27051
0.64174	-9.99728	11.27051
0.64594	-10.06320	11.27051
0.65014	-10.12912	11.27051
0.65445	-10.19504	11.27051
0.65867	-10.26095	11.27051
0.66286	-10.26095	11.27051
0.66705	-10.34884	11.27051
0.67124	-10.39279	11.27051
0.67545	-10.45871	11.27051
0.67966	-10.52463	11.27051
0.68408	-10.59054	11.27051
0.68832	-10.65646	11.27051
0.69251	-10.65646	11.27051
0.69670	-10.74435	11.27051
0.70087	-10.81027	11.27051
0.70506	-10.87619	11.27051
0.70937	-10.94211	11.27051
0.71363	-11.00802	11.27051
0.71789	-11.07394	11.27051
0.72209	-11.07394	11.27051
0.72628	-11.13986	11.27051
0.73047	-11.22775	11.27051
0.73465	-11.29367	11.27051
0.73884	-11.35959	11.27051
0.74302	-11.42550	11.27051
0.74730	-11.42550	11.27051
0.75151	-11.51339	11.27051
0.75573	-11.55734	11.27051
0.75993	-11.62326	11.27051
0.76412	-11.71115	11.27051
0.76831	-11.77707	11.27051
0.77250	-11.77707	11.27051
0.77694	-11.84298	11.27051
0.78116	-11.90890	11.27051
0.78535	-11.99679	11.27051
0.78955	-12.06271	11.27051
0.79374	-12.12863	11.27051
0.79792	-12.19455	11.27051
0.80212	-12.19455	11.27051
0.80638	-12.26047	11.27051
0.81077	-12.32638	11.27051
0.81497	-12.41427	11.27051
0.81916	-12.48019	11.27051
0.82335	-12.54611	11.27051
0.82754	-12.54611	11.27051
0.83173	-12.63400	11.27051
0.83591	-12.69992	11.27051
0.84021	-12.74386	11.27051
0.84444	-12.83175	11.27051
0.84863	-12.89767	11.27051
0.85284	-12.96359	11.27051
0.85703	-12.96359	11.27051
0.86122	-13.05148	11.27051
0.86540	-13.11740	11.27051
0.86968	-13.18332	11.27051
0.87393	-13.24923	11.27051
0.87813	-13.24923	11.27051
0.88232	-13.33713	11.27051
0.88651	-13.40304	11.27051
0.89069	-13.46896	11.27051
0.89487	-13.53488	11.27051
0.89906	-13.62277	11.27051
0.90335	-13.62277	11.27051
0.90756	-13.68869	11.27051
0.91185	-13.75461	11.27051
0.91605	-13.84250	11.27051
0.92025	-13.90841	11.27051
0.92444	-13.97433	11.27051
0.92863	-14.04025	11.27051
0.93290	-14.04025	11.27051
0.93714	-14.10617	11.27051
0.94133	-14.17209	11.27051
0.94556	-14.23800	11.27051
0.94975	-14.30392	11.27051
0.95395	-14.39181	11.27051
0.95814	-14.39181	11.27051
0.96242	-14.45773	11.27051
0.96668	-14.50168	11.27051
0.97092	-14.56759	11.27051
0.97511	-14.65548	11.27051
0.97929	-14.72140	11.27051
0.98347	-14.72140	11.27051
0.98766	-14.78732	11.27051
0.99184	-14.85324	11.27051
0.99613	-14.91916	11.27051
1.00033	-14.98507	11.27051
1.00453	-15.05099	11.27051
1.00871	-15.11691	11.27051
1.01297	-15.11691	11.27051
1.01715	-15.18283	11.27051
1.02133	-15.27072	11.27051
1.02559	-15.31466	11.27051
1.02985	-15.38058	11.27051
1.03405	-15.46847	11.27051
1.03823	-15.46847	11.27051
1.04241	-15.51242	11.27051
1.04659	-15.57834	11.27051
1.05078	-15.62228	11.27051
1.05496	-15.71017	11.27051
1.05925	-15.77609	11.27051
1.06345	-15.77609	11.27051
1.06763	-15.82004	11.27051
1.07183	-15.90793	11.27051
1.07601	-15.95187	11.27051
1.08019	-16.01779	11.27051
1.08437	-16.08371	11.27051
1.08861	-16.08371	11.27051
1.09289	-16.14963	11.27051
1.09708	-16.21554	11.27051
1.10126	-16.25949	11.27051
1.10545	-16.32541	11.27051
1.10965	-16.39132	11.27051
1.11395	-16.43527	11.27051
1.11813	-16.43527	11.27051
1.12244	-16.50119	11.27051
1.12665	-16.56711	11.27051
1.13084	-16.63302	11.27051
1.13503	-16.67697	11.27051
1.13921	-16.67697	11.27051
1.14340	-16.74289	11.27051
1.14758	-16.80881	11.27051
1.15199	-16.85275	11.27051
1.15621	-16.91867	11.27051
1.16040	-16.96261	11.27051
1.16459	-16.96261	11.27051
1.16880	-17.02853	11.27051
1.17299	-17.07248	11.27051
1.17718	-17.13839	11.27051
1.18145	-17.18234	11.27051
1.18574	-17.22629	11.27051
1.18994	-17.29220	11.27051
1.19413	-17.29220	11.27051
1.19832	-17.33615	11.27051
1.20251	-17.38009	11.27051
1.20670	-17.42404	11.27051
1.21088	-17.48996	11.27051
1.21530	-17.53390	11.27051
1.21952	-17.57785	11.27051
1.22371	-17.57785	11.27051
1.22790	-17.64377	11.27051
1.23209	-17.68771	11.27051
1.23628	-17.73166	11.27051
1.24047	-17.77560	11.27051
1.24494	-17.81955	11.27051
1.24917	-17.81955	11.27051
1.25337	-17.86349	11.27051
1.25756	-17.90744	11.27051
1.26174	-17.97336	11.27051
1.26593	-17.99533	11.27051
1.27011	-18.03927	11.27051
1.27437	-18.03927	11.27051
1.27865	-18.10519	11.27051
1.28284	-18.12716	11.27051
1.28703	-18.17111	11.27051
1.29121	-18.21506	11.27051
1.29540	-18.25900	11.27051
1.29958	-18.25900	11.27051
1.30376	-18.30295	11.27051
1.30806	-18.32492	11.27051
1.31226	-18.39084	11.27051
1.31655	-18.41281	11.27051
1.32074	-18.45675	11.27051
1.32493	-18.50070	11.27051
1.32912	-18.50070	11.27051
1.33330	-18.52267	11.27051
1.33776	-18.56662	11.27051
1.34198	-18.61056	11.27051
1.34619	-18.63254	11.27051
1.35041	-18.65451	11.27051
1.35462	-18.69845	11.27051
1.35882	-18.69845	11.27051
1.36302	-18.74240	11.27051
1.36730	-18.76437	11.27051
1.37160	-18.80832	11.27051
1.37580	-18.83029	11.27051
1.37999	-18.87423	11.27051
1.38418	-18.87423	11.27051
1.38837	-18.89621	11.27051
1.39256	-18.94015	11.27051
1.39676	-18.96213	11.27051
1.40107	-18.98410	11.27051
1.40529	-18.98410	11.27051
1.40953	-19.00607	11.27051
1.41374	-19.02804	11.27051
1.41804	-19.07199	11.27051
1.42223	-19.09396	11.27051
1.42642	-19.11593	11.27051
1.43085	-19.11593	11.27051
1.43506	-19.13791	11.27051
1.43925	-19.15988	11.27051
1.44344	-19.18185	11.27051
1.44763	-19.20382	11.27051
1.45182	-19.22580	11.27051
1.45601	-19.22580	11.27051
1.46029	-19.22580	11.27051
1.46458	-19.26974	11.27051
1.46880	-19.29172	11.27051
1.47299	-19.29172	11.27051
1.47718	-19.31369	11.27051
1.48137	-19.31369	11.27051
1.48555	-19.35763	11.27051
1.48974	-19.35763	11.27051
1.49404	-19.35763	11.27051
1.49824	-19.37961	11.27051
1.50243	-19.37961	11.27051
1.50662	-19.40158	11.27051
1.51080	-19.40158	11.27051
1.51499	-19.42355	11.27051
1.51927	-19.42355	11.27051
1.52378	-19.42355	11.27051
1.52800	-19.44552	11.27051
1.53220	-19.44552	11.27051
1.53640	-19.44552	11.27051
1.54059	-19.44552	11.27051
1.54480	-19.46750	11.27051
1.54899	-19.46750	11.27051
1.55327	-19.46750	11.27051
1.55756	-19.46750	11.27051
1.56176	-19.48947	11.27051
1.56596	-19.48947	11.27051
1.57015	-19.48947	11.27051
1.57434	-19.48947	11.27051
1.57853	-19.48947	11.27051
1.58272	-19.48947	11.27051
1.58703	-19.48947	11.27051
1.59124	-19.48947	11.27051
1.59543	-19.48947	11.27051
1.59962	-19.48947	11.27051
1.60384	-19.46750	11.27051
1.60805	-19.48947	11.27051
1.61224	-19.46750	11.27051
1.61651	-19.46750	11.27051
1.62093	-19.46750	11.27051
1.62512	-19.46750	11.27051
1.62931	-19.44552	11.27051
1.63350	-19.44552	11.27051
1.63769	-19.44552	11.27051
1.64187	-19.42355	11.27051
1.64613	-19.42355	11.27051
1.65041	-19.42355	11.27051
1.65462	-19.42355	11.27051
1.65881	-19.40158	11.27051
1.66300	-19.37961	11.27051
1.66719	-19.37961	11.27051
1.67137	-19.37961	11.27051
1.67555	-19.35763	11.27051
1.67985	-19.35763	11.27051
1.68405	-19.33566	11.27051
1.68824	-19.31369	11.27051
1.69243	-19.31369	11.27051
1.69661	-19.29172	11.27051
1.70080	-19.29172	11.27051
1.70498	-19.29172	11.27051
1.70924	-19.26974	11.27051
1.71352	-19.24777	11.27051
1.71772	-19.22580	11.27051
1.72201	-19.20382	11.27051
1.72619	-19.20382	11.27051
1.73037	-19.18185	11.27051
1.73456	-19.15988	11.27051
1.73874	-19.15988	11.27051
1.74304	-19.11593	11.27051
1.74724	-19.09396	11.27051
1.75142	-19.09396	11.27051
1.75561	-19.07199	11.27051
1.75979	-19.05002	11.27051
1.76398	-19.02804	11.27051
1.76816	-19.00607	11.27051
1.77241	-18.98410	11.27051
1.77667	-18.96213	11.27051
1.78087	-18.96213	11.27051
1.78505	-18.94015	11.27051
1.78924	-18.91818	11.27051
1.79342	-18.87423	11.27051
1.79760	-18.87423	11.27051
1.80178	-18.87423	11.27051
1.80608	-18.83029	11.27051
1.81028	-18.80832	11.27051
1.81446	-18.78634	11.27051
1.81864	-18.74240	11.27051
1.82293	-18.72043	11.27051
1.82711	-18.69845	11.27051
1.83129	-18.69845	11.27051
1.83572	-18.65451	11.27051
1.83994	-18.63254	11.27051
1.84413	-18.61056	11.27051
1.84831	-18.56662	11.27051
1.85250	-18.54464	11.27051
1.85669	-18.54464	11.27051
1.86087	-18.52267	11.27051
1.86513	-18.47873	11.27051
1.86942	-18.45675	11.27051
1.87362	-18.41281	11.27051
1.87781	-18.39084	11.27051
1.88200	-18.34689	11.27051
1.88619	-18.34689	11.27051
1.89038	-18.32492	11.27051
1.89457	-18.28097	11.27051
1.89887	-18.23703	11.27051
1.90308	-18.21506	11.27051
1.90727	-18.21506	11.27051
1.91147	-18.19308	11.27051
1.91566	-18.12716	11.27051
1.91985	-18.10519	11.27051
1.92414	-18.06125	11.27051
1.92857	-18.03927	11.27051
1.93279	-18.03927	11.27051
1.93699	-17.99533	11.27051
1.94118	-17.95138	11.27051
1.94537	-17.92941	11.27051
1.94956	-17.90744	11.27051
1.95374	-17.86349	11.27051
1.95800	-17.81955	11.27051
1.96228	-17.81955	11.27051
1.96647	-17.77560	11.27051
1.97066	-17.75363	11.27051
1.97484	-17.70968	11.27051
1.97903	-17.66574	11.27051
1.98321	-17.62179	11.27051
1.98740	-17.59982	11.27051
1.99170	-17.59982	11.27051
1.99591	-17.57785	11.27051
2.00010	-17.53390	11.27051
2.00429	-17.48996	11.27051
2.00848	-17.44601	11.27051
2.01267	-17.44601	11.27051
2.01687	-17.42404	11.27051
2.02112	-17.38009	11.27051
2.02549	-17.33615	11.27051
2.02969	-17.29220	11.27051
2.03387	-17.27023	11.27051
2.03806	-17.22629	11.27051
2.04224	-17.22629	11.27051
2.04643	-17.18234	11.27051
2.05061	-17.13839	11.27051
2.05490	-17.11642	11.27051
2.05911	-17.07248	11.27051
2.06329	-17.02853	11.27051
2.06748	-17.02853	11.27051
2.07166	-16.98459	11.27051
2.07585	-16.96261	11.27051
2.08003	-16.91867	11.27051
2.08429	-16.89670	11.27051
2.08856	-16.83078	11.27051
2.09276	-16.80881	11.27051
2.09695	-16.80881	11.27051
2.10113	-16.76486	11.27051
2.10532	-16.72091	11.27051
2.10950	-16.67697	11.27051
2.11368	-16.63302	11.27051
2.11799	-16.61105	11.27051
2.12218	-16.61105	11.27051
2.12647	-16.56711	11.27051
2.13065	-16.54513	11.27051
2.13484	-16.50119	11.27051
2.13902	-16.45724	11.27051
2.14320	-16.41330	11.27051
2.14764	-16.41330	11.27051
2.15185	-16.39132	11.27051
2.15605	-16.34738	11.27051
2.16024	-16.30343	11.27051
2.16443	-16.25949	11.27051
2.16862	-16.21554	11.27051
2.17282	-16.21554	11.27051
2.17710	-16.19357	11.27051
2.18140	-16.14963	11.27051
2.18560	-16.10568	11.27051
2.18979	-16.08371	11.27051
2.19398	-16.08371	11.27051
2.19817	-16.03976	11.27051
2.20236	-15.99582	11.27051
2.20655	-15.97384	11.27051
2.21086	-15.92990	11.27051
2.21507	-15.90793	11.27051
2.21926	-15.86398	11.27051
2.22345	-15.86398	11.27051
2.22775	-15.82004	11.27051
2.23194	-15.79806	11.27051
2.23614	-15.75412	11.27051
2.24058	-15.71017	11.27051
2.24480	-15.68820	11.27051
2.24899	-15.66623	11.27051
2.25317	-15.66623	11.27051
2.25736	-15.62228	11.27051
2.26155	-15.57834	11.27051
2.26573	-15.55636	11.27051
2.26999	-15.51242	11.27051
2.27426	-15.49045	11.27051
2.27846	-15.49045	11.27051
2.28265	-15.44650	11.27051
2.28683	-15.42453	11.27051
2.29102	-15.40256	11.27051
2.29520	-15.35861	11.27051
2.29939	-15.31466	11.27051
2.30369	-15.29269	11.27051
2.30789	-15.29269	11.27051
2.31208	-15.27072	11.27051
2.31626	-15.22677	11.27051
2.32045	-15.18283	11.27051
2.32463	-15.16086	11.27051
2.32893	-15.11691	11.27051
2.33337	-15.09494	11.27051
2.33759	-15.09494	11.27051
2.34178	-15.07297	11.27051
2.34597	-15.02902	11.27051
2.35016	-15.00705	11.27051
2.35435	-14.96310	11.27051
2.35854	-14.96310	11.27051
2.36283	-14.94113	11.27051
2.36712	-14.91916	11.27051
2.37133	-14.89718	11.27051
2.37552	-14.87521	11.27051
2.37971	-14.80929	11.27051
2.38390	-14.80929	11.27051
2.38809	-14.80929	11.27051
2.39228	-14.76535	11.27051
2.39659	-14.74338	11.27051
2.40081	-14.72140	11.27051
2.40500	-14.67746	11.27051
2.40919	-14.65548	11.27051
2.41339	-14.65548	11.27051
2.41758	-14.63351	11.27051
2.42177	-14.61154	11.27051
2.42604	-14.56759	11.27051
2.43042	-14.54562	11.27051
2.43462	-14.54562	11.27051
2.43881	-14.52365	11.27051
2.44300	-14.50168	11.27051
2.44718	-14.47970	11.27051
2.45137	-14.43576	11.27051
2.45562	-14.41379	11.27051
2.45990	-14.39181	11.27051
2.46410	-14.39181	11.27051
2.46828	-14.39181	11.27051
2.47247	-14.34787	11.27051
2.47665	-14.32589	11.27051
2.48084	-14.30392	11.27051
2.48503	-14.28195	11.27051
2.48933	-14.28195	11.27051
2.49353	-14.25998	11.27051
2.49771	-14.23800	11.27051
2.50190	-14.21603	11.27051
2.50609	-14.19406	11.27051
2.51027	-14.17209	11.27051
2.51449	-14.17209	11.27051
2.51878	-14.15011	11.27051
2.52306	-14.12814	11.27051
2.52726	-14.10617	11.27051
2.53155	-14.08420	11.27051
2.53573	-14.06222	11.27051
2.53992	-14.06222	11.27051
2.54410	-14.06222	11.27051
2.54833	-14.01828	11.27051
2.55265	-14.01828	11.27051
2.55686	-13.99631	11.27051
2.56105	-13.97433	11.27051
2.56523	-13.95236	11.27051
2.56942	-13.95236	11.27051
2.57361	-13.93039	11.27051
2.57779	-13.93039	11.27051
2.58224	-13.90841	11.27051
2.58646	-13.88644	11.27051
2.59065	-13.86447	11.27051
2.59484	-13.86447	11.27051
2.59903	-13.86447	11.27051
2.60322	-13.84250	11.27051
2.60741	-13.82052	11.27051
2.61168	-13.82052	11.27051
2.61597	-13.79855	11.27051
2.62018	-13.77658	11.27051
2.62437	-13.77658	11.27051
2.62856	-13.77658	11.27051
2.63287	-13.75461	11.27051
2.63706	-13.73263	11.27051
2.64125	-13.73263	11.27051
2.64556	-13.73263	11.27051
2.64976	-13.73263	11.27051
2.65395	-13.71066	11.27051
2.65814	-13.68869	11.27051
2.66233	-13.68869	11.27051
2.66652	-13.66672	11.27051
2.67071	-13.66672	11.27051
2.67512	-13.66672	11.27051
2.67933	-13.64474	11.27051
2.68353	-13.64474	11.27051
2.68772	-13.64474	11.27051
2.69191	-13.62277	11.27051
2.69610	-13.62277	11.27051
2.70029	-13.62277	11.27051
2.70455	-13.60080	11.27051
2.70886	-13.60080	11.27051
2.71310	-13.57882	11.27051
2.71730	-13.57882	11.27051
2.72148	-13.57882	11.27051
2.72567	-13.55685	11.27051
2.72986	-13.55685	11.27051
2.73414	-13.57882	11.27051
2.73844	-13.55685	11.27051
2.74264	-13.55685	11.27051
2.74683	-13.53488	11.27051
2.75101	-13.53488	11.27051
2.75520	-13.53488	11.27051
2.75938	-13.53488	11.27051
2.76357	-13.51291	11.27051
2.76800	-13.53488	11.27051
2.77221	-13.51291	11.27051
2.77641	-13.51291	11.27051
2.78060	-13.51291	11.27051
2.78480	-13.51291	11.27051
2.78899	-13.51291	11.27051
2.79318	-13.51291	11.27051
2.79746	-13.51291	11.27051
2.80174	-13.51291	11.27051
2.80594	-13.51291	11.27051
2.81013	-13.51291	11.27051
2.81433	-13.49093	11.27051
2.81852	-13.51291	11.27051
2.82271	-13.49093	11.27051
2.82690	-13.51291	11.27051
2.83121	-13.51291	11.27051
2.83553	-13.51291	11.27051
2.83972	-13.51291	11.27051
2.84391	-13.51291	11.27051
2.84810	-13.51291	11.27051
2.85229	-13.51291	11.27051
2.85648	-13.51291	11.27051
2.86093	-13.51291	11.27051
2.86514	-13.51291	11.27051
2.86934	-13.51291	11.27051
2.87352	-13.53488	11.27051
2.87771	-13.53488	11.27051
2.88189	-13.53488	11.27051
2.88608	-13.53488	11.27051
2.89033	-13.53488	11.27051
2.89459	-13.53488	11.27051
2.89878	-13.53488	11.27051
2.90297	-13.55685	11.27051
2.90715	-13.55685	11.27051
2.91134	-13.57882	11.27051
2.91553	-13.57882	11.27051
2.91971	-13.55685	11.27051
2.92401	-13.57882	11.27051
2.92821	-13.57882	11.27051
2.93239	-13.60080	11.27051
2.93668	-13.60080	11.27051
2.94087	-13.60080	11.27051
2.94505	-13.60080	11.27051
2.94923	-13.62277	11.27051
2.95367	-13.62277	11.27051
2.95788	-13.64474	11.27051
2.96208	-13.64474	11.27051
2.96627	-13.64474	11.27051
2.97046	-13.64474	11.27051
2.97465	-13.66672	11.27051
2.97884	-13.66672	11.27051
2.98311	-13.68869	11.27051
2.98740	-13.68869	11.27051
2.99160	-13.68869	11.27051
2.99579	-13.71066	11.27051
2.99998	-13.73263	11.27051
3.00418	-13.73263	11.27051
3.00837	-13.75461	11.27051
3.01256	-13.75461	11.27051
3.01689	-13.77658	11.27051
3.02110	-13.77658	11.27051
3.02529	-13.77658	11.27051
3.02948	-13.79855	11.27051
3.03367	-13.79855	11.27051
3.03797	-13.82052	11.27051
3.04216	-13.82052	11.27051
3.04660	-13.82052	11.27051
3.05081	-13.84250	11.27051
3.05500	-13.86447	11.27051
3.05919	-13.86447	11.27051
3.06338	-13.86447	11.27051
3.06757	-13.90841	11.27051
3.07176	-13.90841	11.27051
3.07602	-13.90841	11.27051
3.08031	-13.93039	11.27051
3.08451	-13.93039	11.27051
3.08870	-13.95236	11.27051
3.09287	-13.97433	11.27051
3.09705	-13.97433	11.27051
3.10124	-13.97433	11.27051
3.10542	-13.99631	11.27051
3.10972	-14.01828	11.27051
3.11392	-14.04025	11.27051
3.11811	-14.04025	11.27051
3.12229	-14.06222	11.27051
3.12648	-14.06222	11.27051
3.13066	-14.08420	11.27051
3.13485	-14.08420	11.27051
3.13921	-14.10617	11.27051
3.14346	-14.12814	11.27051
3.14765	-14.15011	11.27051
3.15184	-14.15011	11.27051
3.15602	-14.15011	11.27051
3.16021	-14.17209	11.27051
3.16439	-14.19406	11.27051
3.16857	-14.21603	11.27051
3.17289	-14.23800	11.27051
3.17709	-14.23800	11.27051
3.18127	-14.23800	11.27051
3.18546	-14.25998	11.27051
3.18965	-14.28195	11.27051
3.19383	-14.30392	11.27051
3.19802	-14.30392	11.27051
3.20227	-14.30392	11.27051
3.20654	-14.32589	11.27051
3.21073	-14.36984	11.27051
3.21492	-14.36984	11.27051
3.21910	-14.39181	11.27051
3.22329	-14.41379	11.27051
3.22748	-14.43576	11.27051
3.23166	-14.43576	11.27051
3.23597	-14.43576	11.27051
3.24028	-14.45773	11.27051
3.24447	-14.47970	11.27051
3.24866	-14.47970	11.27051
3.25285	-14.47970	11.27051
3.25704	-14.50168	11.27051
3.26122	-14.54562	11.27051
3.26568	-14.54562	11.27051
3.26991	-14.58957	11.27051
3.27410	-14.58957	11.27051
3.27829	-14.61154	11.27051
3.28248	-14.61154	11.27051
3.28667	-14.63351	11.27051
3.29086	-14.63351	11.27051
3.29515	-14.65548	11.27051
3.29944	-14.67746	11.27051
3.30365	-14.69943	11.27051
3.30784	-14.69943	11.27051
3.31203	-14.72140	11.27051
3.31622	-14.74338	11.27051
3.32042	-14.74338	11.27051
3.32461	-14.76535	11.27051
3.32894	-14.78732	11.27051
3.33314	-14.80929	11.27051
3.33734	-14.80929	11.27051
3.34164	-14.83127	11.27051
3.34583	-14.85324	11.27051
3.35002	-14.85324	11.27051
3.35421	-14.87521	11.27051
3.35866	-14.89718	11.27051
3.36287	-14.91916	11.27051
3.36706	-14.91916	11.27051
3.37125	-14.94113	11.27051
3.37544	-14.96310	11.27051
3.37963	-14.96310	11.27051
3.38382	-14.98507	11.27051
3.38809	-15.00705	11.27051
3.39238	-15.00705	11.27051
3.39658	-15.00705	11.27051
3.40078	-15.05099	11.27051
3.40498	-15.05099	11.27051
3.40917	-15.07297	11.27051
3.41335	-15.09494	11.27051
3.41754	-15.09494	11.27051
3.42184	-15.09494	11.27051
3.42604	-15.13888	11.27051
3.43022	-15.13888	11.27051
3.43441	-15.16086	11.27051
3.43859	-15.18283	11.27051
3.44287	-15.18283	11.27051
3.44706	-15.18283	11.27051
3.45149	-15.20480	11.27051
3.45570	-15.22677	11.27051
3.45989	-15.24875	11.27051
3.46408	-15.27072	11.27051
3.46828	-15.27072	11.27051
3.47247	-15.27072	11.27051
3.47666	-15.29269	11.27051
3.48095	-15.31466	11.27051
3.48524	-15.31466	11.27051
3.48944	-15.33664	11.27051
3.49363	-15.35861	11.27051
3.49782	-15.35861	11.27051
3.50201	-15.35861	11.27051
3.50620	-15.38058	11.27051
3.51039	-15.40256	11.27051
3.51470	-15.40256	11.27051
3.51891	-15.40256	11.27051
3.52311	-15.42453	11.27051
3.52730	-15.42453	11.27051
3.53149	-15.46847	11.27051
3.53568	-15.46847	11.27051
3.53987	-15.49045	11.27051
3.54426	-15.49045	11.27051
3.54851	-15.49045	11.27051
3.55271	-15.51242	11.27051
3.55688	-15.53439	11.27051
3.56107	-15.53439	11.27051
3.56526	-15.55636	11.27051
3.56945	-15.55636	11.27051
3.57363	-15.57834	11.27051
3.57793	-15.57834	11.27051
3.58213	-15.57834	11.27051
3.58632	-15.60031	11.27051
3.59051	-15.60031	11.27051
3.59469	-15.62228	11.27051
3.59888	-15.62228	11.27051
3.60306	-15.62228	11.27051
3.60748	-15.64425	11.27051
3.61170	-15.64425	11.27051
3.61589	-15.66623	11.27051
3.62008	-15.66623	11.27051
3.62428	-15.68820	11.27051
3.62847	-15.68820	11.27051
3.63266	-15.68820	11.27051
3.63694	-15.71017	11.27051
3.64123	-15.71017	11.27051
3.64554	-15.71017	11.27051
3.64973	-15.73214	11.27051
3.65393	-15.73214	11.27051
3.65812	-15.73214	11.27051
3.66231	-15.75412	11.27051
3.66650	-15.75412	11.27051
3.67081	-15.75412	11.27051
3.67501	-15.77609	11.27051
3.67920	-15.79806	11.27051
3.68340	-15.79806	11.27051
3.68759	-15.79806	11.27051
3.69178	-15.79806	11.27051
3.69597	-15.79806	11.27051
3.70040	-15.82004	11.27051
3.70462	-15.82004	11.27051
3.70883	-15.82004	11.27051
3.71302	-15.84201	11.27051
3.71721	-15.84201	11.27051
3.72140	-15.86398	11.27051
3.72558	-15.84201	11.27051
3.72983	-15.84201	11.27051
3.73410	-15.86398	11.27051
3.73830	-15.86398	11.27051
3.74248	-15.86398	11.27051
3.74677	-15.88595	11.27051
3.75095	-15.88595	11.27051
3.75513	-15.88595	11.27051
3.75932	-15.88595	11.27051
3.76362	-15.88595	11.27051
3.76782	-15.88595	11.27051
3.77201	-15.90793	11.27051
3.77619	-15.90793	11.27051
3.78038	-15.90793	11.27051
3.78456	-15.90793	11.27051
3.78876	-15.90793	11.27051
3.79301	-15.92990	11.27051
3.79728	-15.92990	11.27051
3.80147	-15.90793	11.27051
3.80566	-15.92990	11.27051
3.80985	-15.92990	11.27051
3.81403	-15.92990	11.27051
3.81821	-15.92990	11.27051
3.82239	-15.95187	11.27051
3.82669	-15.92990	11.27051
3.83089	-15.95187	11.27051
3.83508	-15.92990	11.27051
3.83927	-15.92990	11.27051
3.84345	-15.95187	11.27051
3.84773	-15.95187	11.27051
3.85192	-15.95187	11.27051
3.85635	-15.95187	11.27051
3.86056	-15.92990	11.27051
3.86476	-15.95187	11.27051
3.86896	-15.95187	11.27051
3.87315	-15.95187	11.27051
3.87734	-15.95187	11.27051
3.88152	-15.95187	11.27051
3.88580	-15.95187	11.27051
3.89009	-15.95187	11.27051
3.89429	-15.95187	11.27051
3.89848	-15.95187	11.27051
3.90267	-15.95187	11.27051
3.90686	-15.95187	11.27051
3.91105	-15.95187	11.27051
3.91524	-15.95187	11.27051
3.91956	-15.95187	11.27051
3.92376	-15.95187	11.27051
3.92795	-15.92990	11.27051
3.93214	-15.92990	11.27051
3.93634	-15.95187	11.27051
3.94053	-15.92990	11.27051
3.94472	-15.92990	11.27051
3.94908	-15.92990	11.27051
3.95333	-15.92990	11.27051
3.95752	-15.92990	11.27051
3.96170	-15.92990	11.27051
3.96589	-15.90793	11.27051
3.97007	-15.90793	11.27051
3.97425	-15.92990	11.27051
3.97851	-15.90793	11.27051
3.98279	-15.90793	11.27051
3.98699	-15.90793	11.27051
3.99118	-15.90793	11.27051
3.99536	-15.90793	11.27051
3.99955	-15.90793	11.27051
4.00373	-15.88595	11.27051
4.00791	-15.90793	11.27051
4.01222	-15.88595	11.27051
4.01642	-15.88595	11.27051
4.02061	-15.88595	11.27051
4.02481	-15.88595	11.27051
4.02899	-15.86398	11.27051
4.03317	-15.86398	11.27051
4.03736	-15.86398	11.27051
4.04161	-15.84201	11.27051
4.04588	-15.84201	11.27051
4.05017	-15.84201	11.27051
4.05436	-15.84201	11.27051
4.05854	-15.84201	11.27051
4.06273	-15.82004	11.27051
4.06691	-15.82004	11.27051
4.07109	-15.82004	11.27051
4.07539	-15.82004	11.27051
4.07960	-15.82004	11.27051
4.08378	-15.79806	11.27051
4.08797	-15.79806	11.27051
4.09215	-15.79806	11.27051
4.09633	-15.77609	11.27051
4.10052	-15.77609	11.27051
4.10478	-15.77609	11.27051
4.10905	-15.75412	11.27051
4.11324	-15.75412	11.27051
4.11743	-15.75412	11.27051
4.12161	-15.73214	11.27051
4.12580	-15.73214	11.27051
4.12999	-15.73214	11.27051
4.13417	-15.73214	11.27051
4.13847	-15.71017	11.27051
4.14267	-15.71017	11.27051
4.14685	-15.68820	11.27051
4.15114	-15.68820	11.27051
4.15533	-15.68820	11.27051
4.15951	-15.66623	11.27051
4.16369	-15.66623	11.27051
4.16812	-15.66623	11.27051
4.17233	-15.64425	11.27051
4.17652	-15.64425	11.27051
4.18071	-15.64425	11.27051
4.18488	-15.62228	11.27051
4.18907	-15.62228	11.27051
4.19326	-15.60031	11.27051
4.19753	-15.60031	11.27051
4.20182	-15.57834	11.27051
4.20602	-15.57834	11.27051
4.21021	-15.57834	11.27051
4.21440	-15.57834	11.27051
4.21859	-15.55636	11.27051
4.22278	-15.55636	11.27051
4.22697	-15.53439	11.27051
4.23127	-15.53439	11.27051
4.23550	-15.53439	11.27051
4.23968	-15.51242	11.27051
4.24387	-15.51242	11.27051
4.24806	-15.49045	11.27051
4.25234	-15.46847	11.27051
4.25653	-15.46847	11.27051
4.26080	-15.46847	11.27051
4.26507	-15.44650	11.27051
4.26928	-15.44650	11.27051
4.27346	-15.44650	11.27051
4.27765	-15.42453	11.27051
4.28183	-15.42453	11.27051
4.28602	-15.40256	11.27051
4.29020	-15.40256	11.27051
4.29463	-15.40256	11.27051
4.29898	-15.38058	11.27051
4.30323	-15.35861	11.27051
4.30743	-15.35861	11.27051
4.31162	-15.35861	11.27051
4.31581	-15.33664	11.27051
4.32001	-15.33664	11.27051
4.32449	-15.31466	11.27051
4.32872	-15.31466	11.27051
4.33288	-15.29269	11.27051
4.33707	-15.29269	11.27051
4.34127	-15.29269	11.27051
4.34546	-15.27072	11.27051
4.34965	-15.24875	11.27051
4.35410	-15.24875	11.27051
4.35839	-15.22677	11.27051
4.36260	-15.22677	11.27051
4.36679	-15.22677	11.27051
4.37098	-15.20480	11.27051
4.37517	-15.18283	11.27051
4.37936	-15.18283	11.27051
4.38355	-15.16086	11.27051
4.38786	-15.16086	11.27051
4.39207	-15.13888	11.27051
4.39629	-15.13888	11.27051
4.40049	-15.13888	11.27051
4.40469	-15.13888	11.27051
4.40888	-15.09494	11.27051
4.41307	-15.09494	11.27051
4.41754	-15.09494	11.27051
4.42176	-15.07297	11.27051
4.42595	-15.07297	11.27051
4.43014	-15.07297	11.27051
4.43433	-15.05099	11.27051
4.43852	-15.05099	11.27051
4.44270	-15.02902	11.27051
4.44696	-15.02902	11.27051
4.45123	-15.02902	11.27051
4.45553	-15.00705	11.27051
4.45972	-14.98507	11.27051
4.46390	-14.98507	11.27051
4.46808	-14.96310	11.27051
4.47226	-14.96310	11.27051
4.47645	-14.96310	11.27051
4.48076	-14.94113	11.27051
4.48496	-14.94113	11.27051
4.48915	-14.91916	11.27051
4.49333	-14.91916	11.27051
4.49751	-14.91916	11.27051
4.50169	-14.89718	11.27051
4.50588	-14.87521	11.27051
4.51013	-14.87521	11.27051
4.51440	-14.87521	11.27051
4.51859	-14.85324	11.27051
4.52278	-14.85324	11.27051
4.52696	-14.85324	11.27051
4.53115	-14.83127	11.27051
4.53534	-14.83127	11.27051
4.53952	-14.80929	11.27051
4.54382	-14.80929	11.27051
4.54802	-14.78732	11.27051
4.55221	-14.78732	11.27051
4.55650	-14.78732	11.27051
4.56069	-14.78732	11.27051
4.56487	-14.78732	11.27051
4.56906	-14.76535	11.27051
4.57345	-14.74338	11.27051
4.57768	-14.74338	11.27051
4.58186	-14.74338	11.27051
4.58604	-14.72140	11.27051
4.59023	-14.72140	11.27051
4.59441	-14.72140	11.27051
4.59859	-14.69943	11.27051
4.60286	-14.69943	11.27051
4.60714	-14.69943	11.27051
4.61134	-14.69943	11.27051
4.61552	-14.69943	11.27051
4.61970	-14.67746	11.27051
4.62389	-14.67746	11.27051
4.62807	-14.67746	11.27051
4.63225	-14.65548	11.27051
4.63656	-14.65548	11.27051
4.64077	-14.65548	11.27051
4.64496	-14.63351	11.27051
4.64914	-14.63351	11.27051
4.65333	-14.63351	11.27051
4.65761	-14.63351	11.27051
4.66179	-14.61154	11.27051
4.66604	-14.63351	11.27051
4.67031	-14.61154	11.27051
4.67450	-14.61154	11.27051
4.67868	-14.58957	11.27051
4.68287	-14.58957	11.27051
4.68705	-14.58957	11.27051
4.69123	-14.58957	11.27051
4.69542	-14.56759	11.27051
4.69971	-14.58957	11.27051
4.70391	-14.56759	11.27051
4.70809	-14.56759	11.27051
4.71228	-14.56759	11.27051
4.71646	-14.54562	11.27051
4.72064	-14.56759	11.27051
4.72483	-14.56759	11.27051
4.72908	-14.54562	11.27051
4.73335	-14.54562	11.27051
4.73755	-14.54562	11.27051
4.74173	-14.54562	11.27051
4.74592	-14.54562	11.27051
4.75010	-14.52365	11.27051
4.75428	-14.52365	11.27051
4.75857	-14.52365	11.27051
4.76286	-14.52365	11.27051
4.76706	-14.52365	11.27051
4.77125	-14.52365	11.27051
4.77543	-14.52365	11.27051
4.77962	-14.52365	11.27051
4.78380	-14.52365	11.27051
4.78798	-14.50168	11.27051
4.79243	-14.50168	11.27051
4.79664	-14.50168	11.27051
4.80084	-14.50168	11.27051
4.80504	-14.50168	11.27051
4.80923	-14.50168	11.27051
4.81342	-14.50168	11.27051
4.81761	-14.50168	11.27051
4.82188	-14.50168	11.27051
4.82617	-14.50168	11.27051
4.83037	-14.50168	11.27051
4.83456	-14.50168	11.27051
4.83875	-14.50168	11.27051
4.84294	-14.50168	11.27051
4.84713	-14.47970	11.27051
4.85132	-14.47970	11.27051
4.85564	-14.50168	11.27051
4.85996	-14.47970	11.27051
4.86415	-14.50168	11.27051
4.86834	-14.50168	11.27051
4.87253	-14.47970	11.27051
4.87672	-14.50168	11.27051
4.88087	-14.50168	11.27051
4.88514	-14.50168	11.27051
4.88941	-14.50168	11.27051
4.89361	-14.50168	11.27051
4.89780	-14.50168	11.27051
4.90200	-14.50168	11.27051
4.90619	-14.50168	11.27051
4.91038	-14.50168	11.27051
4.91457	-14.50168	11.27051
4.91888	-14.50168	11.27051
4.92309	-14.50168	11.27051
4.92728	-14.50168	11.27051
4.93147	-14.50168	11.27051
4.93565	-14.50168	11.27051
4.93984	-14.50168	11.27051
4.94402	-14.52365	11.27051
4.94845	-14.52365	11.27051
4.95267	-14.52365	11.27051
4.95687	-14.52365	11.27051
4.96117	-14.52365	11.27051
4.96536	-14.52365	11.27051
4.96955	-14.52365	11.27051
4.97373	-14.52365	11.27051
4.97800	-14.54562	11.27051
4.98229	-14.52365	11.27051
4.98649	-14.54562	11.27051
4.99068	-14.54562	11.27051
4.99487	-14.54562	11.27051
4.99906	-14.54562	11.27051
5.00325	-14.54562	11.27051
5.00743	-14.56759	11.27051
5.01174	-14.56759	11.27051
5.01595	-14.56759	11.27051
5.02014	-14.58957	11.27051
5.02433	-14.58957	11.27051
5.02852	-14.56759	11.27051
5.03271	-14.58957	11.27051
5.03687	-14.58957	11.27051
5.04114	-14.58957	11.27051
5.04541	-14.58957	11.27051
5.04960	-14.58957	11.27051
5.05380	-14.61154	11.27051
5.05799	-14.61154	11.27051
5.06228	-14.63351	11.27051
5.06647	-14.63351	11.27051
5.07066	-14.63351	11.27051
5.07499	-14.65548	11.27051
5.07920	-14.65548	11.27051
5.08339	-14.65548	11.27051
5.08758	-14.65548	11.27051
5.09176	-14.67746	11.27051
5.09595	-14.67746	11.27051
5.10013	-14.67746	11.27051
5.10460	-14.69943	11.27051
5.10882	-14.69943	11.27051
5.11301	-14.69943	11.27051
5.11719	-14.72140	11.27051
5.12140	-14.74338	11.27051
5.12559	-14.74338	11.27051
5.12979	-14.74338	11.27051
5.13405	-14.74338	11.27051
5.13832	-14.76535	11.27051
5.14251	-14.76535	11.27051
5.14670	-14.78732	11.27051
5.15088	-14.80929	11.27051
5.15507	-14.80929	11.27051
5.15926	-14.80929	11.27051
5.16355	-14.83127	11.27051
5.16785	-14.83127	11.27051
5.17205	-14.85324	11.27051
5.17624	-14.87521	11.27051
5.18042	-14.87521	11.27051
5.18460	-14.87521	11.27051
5.18879	-14.89718	11.27051
5.19298	-14.89718	11.27051
5.19741	-14.89718	11.27051
5.20164	-14.91916	11.27051
5.20583	-14.94113	11.27051
5.21002	-14.96310	11.27051
5.21421	-14.96310	11.27051
5.21840	-14.96310	11.27051
5.22260	-14.98507	11.27051
5.22690	-15.00705	11.27051
5.23119	-15.00705	11.27051
5.23542	-15.00705	11.27051
5.23961	-15.02902	11.27051
5.24380	-15.05099	11.27051
5.24799	-15.07297	11.27051
5.25218	-15.07297	11.27051
5.25637	-15.09494	11.27051
5.26069	-15.09494	11.27051
5.26501	-15.09494	11.27051
5.26920	-15.11691	11.27051
5.27339	-15.13888	11.27051
5.27758	-15.16086	11.27051
5.28177	-15.16086	11.27051
5.28596	-15.18283	11.27051
5.29038	-15.18283	11.27051
5.29458	-15.20480	11.27051
5.29878	-15.22677	11.27051
5.30304	-15.24875	11.27051
5.30725	-15.24875	11.27051
5.31144	-15.27072	11.27051
5.31564	-15.29269	11.27051
5.31991	-15.29269	11.27051
5.32420	-15.31466	11.27051
5.32840	-15.31466	11.27051
5.33258	-15.33664	11.27051
5.33679	-15.35861	11.27051
5.34097	-15.35861	11.27051
5.34516	-15.38058	11.27051
5.34947	-15.40256	11.27051
5.35376	-15.42453	11.27051
5.35797	-15.42453	11.27051
5.36216	-15.44650	11.27051
5.36645	-15.46847	11.27051
5.37063	-15.46847	11.27051
5.37481	-15.49045	11.27051
5.37900	-15.51242	11.27051
5.38330	-15.51242	11.27051
5.38751	-15.53439	11.27051
5.39170	-15.55636	11.27051
5.39588	-15.55636	11.27051
5.40007	-15.57834	11.27051
5.40425	-15.60031	11.27051
5.40844	-15.62228	11.27051
5.41269	-15.64425	11.27051
5.41698	-15.64425	11.27051
5.42118	-15.68820	11.27051
5.42537	-15.68820	11.27051
5.42955	-15.68820	11.27051
5.43374	-15.71017	11.27051
5.43793	-15.73214	11.27051
5.44211	-15.75412	11.27051
5.44641	-15.77609	11.27051
5.45062	-15.79806	11.27051
5.45481	-15.79806	11.27051
5.45900	-15.79806	11.27051
5.46318	-15.84201	11.27051
5.46746	-15.84201	11.27051
5.47165	-15.88595	11.27051
5.47608	-15.90793	11.27051
5.48030	-15.90793	11.27051
5.48449	-15.92990	11.27051
5.48868	-15.92990	11.27051
5.49287	-15.95187	11.27051
5.49706	-15.97384	11.27051
5.50125	-15.97384	11.27051
5.50553	-15.99582	11.27051
5.50982	-16.01779	11.27051
5.51402	-16.03976	11.27051
5.51821	-16.06173	11.27051
5.52240	-16.08371	11.27051
5.52659	-16.08371	11.27051
5.53078	-16.10568	11.27051
5.53497	-16.12765	11.27051
5.53928	-16.14963	11.27051
5.54348	-16.17160	11.27051
5.54767	-16.17160	11.27051
5.55187	-16.17160	11.27051
5.55606	-16.19357	11.27051
5.56025	-16.21554	11.27051
5.56443	-16.23752	11.27051
5.56884	-16.25949	11.27051
5.57309	-16.28146	11.27051
5.57728	-16.30343	11.27051
5.58146	-16.30343	11.27051
5.58565	-16.30343	11.27051
5.58983	-16.34738	11.27051
5.59401	-16.34738	11.27051
5.59826	-16.39132	11.27051
5.60253	-16.39132	11.27051
5.60673	-16.39132	11.27051
5.61091	-16.41330	11.27051
5.61510	-16.43527	11.27051
5.61928	-16.45724	11.27051
5.62347	-16.45724	11.27051
5.62765	-16.50119	11.27051
5.63195	-16.50119	11.27051
5.63616	-16.50119	11.27051
5.64035	-16.52316	11.27051
5.64453	-16.54513	11.27051
5.64872	-16.56711	11.27051
5.65287	-16.58908	11.27051
5.65705	-16.58908	11.27051
5.66131	-16.58908	11.27051
5.66557	-16.61105	11.27051
5.66987	-16.63302	11.27051
5.67405	-16.65500	11.27051
5.67824	-16.67697	11.27051
5.68242	-16.69894	11.27051
5.68660	-16.69894	11.27051
5.69078	-16.72091	11.27051
5.69508	-16.72091	11.27051
5.69928	-16.74289	11.27051
5.70347	-16.76486	11.27051
5.70765	-16.78683	11.27051
5.71183	-16.78683	11.27051
5.71601	-16.78683	11.27051
5.72020	-16.80881	11.27051
5.72445	-16.83078	11.27051
5.72870	-16.83078	11.27051
5.73288	-16.85275	11.27051
5.73706	-16.85275	11.27051
5.74125	-16.87472	11.27051
5.74543	-16.89670	11.27051
5.74961	-16.89670	11.27051
5.75380	-16.91867	11.27051
5.75811	-16.94064	11.27051
5.76232	-16.94064	11.27051
5.76651	-16.96261	11.27051
5.77080	-16.96261	11.27051
5.77499	-16.98459	11.27051
5.77917	-17.00656	11.27051
5.78335	-17.00656	11.27051
5.78780	-17.02853	11.27051
5.79201	-17.02853	11.27051
5.79620	-17.02853	11.27051
5.80039	-17.05050	11.27051
5.80458	-17.07248	11.27051
5.80878	-17.07248	11.27051
5.81297	-17.07248	11.27051
5.81723	-17.09445	11.27051
5.82152	-17.09445	11.27051
5.82572	-17.11642	11.27051
5.82991	-17.13839	11.27051
5.83410	-17.13839	11.27051
5.83829	-17.16037	11.27051
5.84248	-17.16037	11.27051
5.84667	-17.16037	11.27051
5.85098	-17.16037	11.27051
5.85519	-17.18234	11.27051
5.85940	-17.18234	11.27051
5.86360	-17.20431	11.27051
5.86779	-17.20431	11.27051
5.87209	-17.20431	11.27051
5.87628	-17.20431	11.27051
5.88070	-17.22629	11.27051
5.88490	-17.22629	11.27051
5.88910	-17.24826	11.27051
5.89329	-17.24826	11.27051
5.89748	-17.24826	11.27051
5.90167	-17.27023	11.27051
5.90586	-17.27023	11.27051
5.91011	-17.29220	11.27051
5.91440	-17.29220	11.27051
5.91862	-17.29220	11.27051
5.92281	-17.31418	11.27051
5.92699	-17.31418	11.27051
5.93117	-17.29220	11.27051
5.93536	-17.31418	11.27051
5.93954	-17.31418	11.27051
5.94384	-17.31418	11.27051
5.94805	-17.31418	11.27051
5.95223	-17.33615	11.27051
5.95642	-17.33615	11.27051
5.96062	-17.33615	11.27051
5.96481	-17.33615	11.27051
5.96899	-17.33615	11.27051
5.97335	-17.33615	11.27051
5.97762	-17.33615	11.27051
5.98182	-17.35812	11.27051
5.98601	-17.35812	11.27051
5.99020	-17.35812	11.27051
5.99440	-17.35812	11.27051
5.99858	-17.35812	11.27051
6.00278	-17.35812	11.27051
6.00708	-17.35812	11.27051
6.01129	-17.35812	11.27051
6.01547	-17.35812	11.27051
6.01966	-17.38009	11.27051
6.02385	-17.38009	11.27051
6.02804	-17.38009	11.27051
6.03222	-17.38009	11.27051
6.03664	-17.35812	11.27051
6.04086	-17.35812	11.27051
6.04505	-17.35812	11.27051
6.04923	-17.35812	11.27051
6.05342	-17.35812	11.27051
6.05762	-17.38009	11.27051
6.06181	-17.35812	11.27051
6.06608	-17.35812	11.27051
6.07038	-17.35812	11.27051
6.07468	-17.35812	11.27051
6.07887	-17.35812	11.27051
6.08305	-17.35812	11.27051
6.08724	-17.35812	11.27051
6.09142	-17.35812	11.27051
6.09561	-17.35812	11.27051
6.09990	-17.35812	11.27051
6.10410	-17.33615	11.27051
6.10829	-17.33615	11.27051
6.11247	-17.33615	11.27051
6.11666	-17.33615	11.27051
6.12085	-17.33615	11.27051
6.12503	-17.33615	11.27051
6.12929	-17.33615	11.27051
6.13356	-17.33615	11.27051
6.13776	-17.33615	11.27051
6.14194	-17.33615	11.27051
6.14614	-17.31418	11.27051
6.15032	-17.31418	11.27051
6.15450	-17.31418	11.27051
6.15871	-17.31418	11.27051
6.16301	-17.31418	11.27051
6.16722	-17.29220	11.27051
6.17141	-17.29220	11.27051
6.17569	-17.29220	11.27051
6.17988	-17.27023	11.27051
6.18406	-17.27023	11.27051
6.18824	-17.27023	11.27051
6.19267	-17.27023	11.27051
6.19689	-17.27023	11.27051
6.20107	-17.24826	11.27051
6.20526	-17.24826	11.27051
6.20944	-17.22629	11.27051
6.21362	-17.22629	11.27051
6.21780	-17.22629	11.27051
6.22204	-17.22629	11.27051
6.22633	-17.20431	11.27051
6.23053	-17.20431	11.27051
6.23472	-17.18234	11.27051
6.23891	-17.18234	11.27051
6.24310	-17.18234	11.27051
6.24728	-17.18234	11.27051
6.25147	-17.16037	11.27051
6.25578	-17.16037	11.27051
6.26000	-17.16037	11.27051
6.26420	-17.16037	11.27051
6.26840	-17.13839	11.27051
6.27258	-17.13839	11.27051
6.27691	-17.11642	11.27051
6.28110	-17.11642	11.27051
6.28555	-17.09445	11.27051
6.28977	-17.09445	11.27051
6.29397	-17.09445	11.27051
6.29818	-17.09445	11.27051
6.30238	-17.07248	11.27051
6.30658	-17.07248	11.27051
6.31077	-17.07248	11.27051
6.31505	-17.05050	11.27051
6.31935	-17.05050	11.27051
6.32356	-17.02853	11.27051
6.32775	-17.02853	11.27051
6.33194	-17.00656	11.27051
6.33613	-17.00656	11.27051
6.34032	-16.98459	11.27051
6.34451	-16.98459	11.27051
6.34887	-16.98459	11.27051
6.35309	-16.98459	11.27051
6.35729	-16.96261	11.27051
6.36149	-16.94064	11.27051
6.36569	-16.94064	11.27051
6.36989	-16.94064	11.27051
6.37409	-16.91867	11.27051
6.37851	-16.91867	11.27051
6.38278	-16.89670	11.27051
6.38698	-16.89670	11.27051
6.39117	-16.87472	11.27051
6.39536	-16.87472	11.27051
6.39955	-16.87472	11.27051
6.40374	-16.85275	11.27051
6.40801	-16.83078	11.27051
6.41231	-16.83078	11.27051
6.41651	-16.80881	11.27051
6.42070	-16.78683	11.27051
6.42487	-16.78683	11.27051
6.42905	-16.78683	11.27051
6.43324	-16.76486	11.27051
6.43742	-16.76486	11.27051
6.44172	-16.74289	11.27051
6.44593	-16.72091	11.27051
6.45012	-16.72091	11.27051
6.45431	-16.72091	11.27051
6.45851	-16.69894	11.27051
6.46270	-16.69894	11.27051
6.46690	-16.67697	11.27051
6.47116	-16.67697	11.27051
6.47543	-16.65500	11.27051
6.47973	-16.63302	11.27051
6.48392	-16.63302	11.27051
6.48810	-16.63302	11.27051
6.49230	-16.61105	11.27051
6.49648	-16.61105	11.27051
6.50067	-16.58908	11.27051
6.50498	-16.58908	11.27051
6.50918	-16.56711	11.27051
6.51337	-16.56711	11.27051
6.51755	-16.54513	11.27051
6.52174	-16.52316	11.27051
6.52592	-16.52316	11.27051
6.53010	-16.52316	11.27051
6.53436	-16.50119	11.27051
6.53862	-16.47922	11.27051
6.54281	-16.47922	11.27051
6.54700	-16.45724	11.27051
6.55118	-16.45724	11.27051
6.55537	-16.45724	11.27051
6.55957	-16.43527	11.27051
6.56376	-16.41330	11.27051
6.56807	-16.41330	11.27051
6.57228	-16.39132	11.27051
6.57647	-16.39132	11.27051
6.58077	-16.39132	11.27051
6.58496	-16.36935	11.27051
6.58915	-16.34738	11.27051
6.59333	-16.34738	11.27051
6.59778	-16.32541	11.27051
6.60199	-16.32541	11.27051
6.60619	-16.30343	11.27051
6.61038	-16.30343	11.27051
6.61457	-16.28146	11.27051
6.61876	-16.28146	11.27051
6.62295	-16.25949	11.27051
6.62721	-16.25949	11.27051
6.63150	-16.23752	11.27051
6.63571	-16.23752	11.27051
6.63990	-16.21554	11.27051
6.64409	-16.21554	11.27051
6.64828	-16.19357	11.27051
6.65247	-16.17160	11.27051
6.65666	-16.17160	11.27051
6.66100	-16.14963	11.27051
6.66521	-16.14963	11.27051
6.66941	-16.12765	11.27051
6.67360	-16.12765	11.27051
6.67779	-16.10568	11.27051
6.68208	-16.10568	11.27051
6.68627	-16.08371	11.27051
6.69071	-16.08371	11.27051
6.69492	-16.08371	11.27051
6.69912	-16.06173	11.27051
6.70331	-16.03976	11.27051
6.70750	-16.03976	11.27051
6.71169	-16.01779	11.27051
6.71588	-16.01779	11.27051
6.72015	-16.01779	11.27051
6.72445	-15.99582	11.27051
6.72865	-15.97384	11.27051
6.73285	-15.97384	11.27051
6.73704	-15.95187	11.27051
6.74123	-15.92990	11.27051
6.74542	-15.92990	11.27051
6.74962	-15.92990	11.27051
6.75393	-15.90793	11.27051
6.75819	-15.90793	11.27051
6.76238	-15.88595	11.27051
6.76658	-15.88595	11.27051
6.77077	-15.88595	11.27051
6.77496	-15.86398	11.27051
6.77914	-15.86398	11.27051
6.78368	-15.84201	11.27051
6.78788	-15.82004	11.27051
6.79208	-15.82004	11.27051
6.79627	-15.82004	11.27051
6.80046	-15.79806	11.27051
6.80466	-15.77609	11.27051
6.80885	-15.75412	11.27051
6.81313	-15.75412	11.27051
6.81742	-15.73214	11.27051
6.82163	-15.73214	11.27051
6.82582	-15.73214	11.27051
6.83001	-15.71017	11.27051
6.83420	-15.71017	11.27051
6.83839	-15.68820	11.27051
6.84258	-15.66623	11.27051
6.84688	-15.66623	11.27051
6.85110	-15.66623	11.27051
6.85529	-15.66623	11.27051
6.85950	-15.64425	11.27051
6.86370	-15.62228	11.27051
6.86790	-15.62228	11.27051
6.87209	-15.60031	11.27051
6.87636	-15.60031	11.27051
6.88064	-15.60031	11.27051
6.88497	-15.57834	11.27051
6.88915	-15.55636	11.27051
6.89334	-15.55636	11.27051
6.89753	-15.55636	11.27051
6.90171	-15.53439	11.27051
6.90596	-15.53439	11.27051
6.91024	-15.51242	11.27051
6.91443	-15.51242	11.27051
6.91862	-15.49045	11.27051
6.92280	-15.49045	11.27051
6.92699	-15.49045	11.27051
6.93117	-15.49045	11.27051
6.93536	-15.46847	11.27051
6.93965	-15.46847	11.27051
6.94386	-15.44650	11.27051
6.94804	-15.44650	11.27051
6.95223	-15.42453	11.27051
6.95641	-15.42453	11.27051
6.96061	-15.42453	11.27051
6.96481	-15.40256	11.27051
6.96907	-15.40256	11.27051
6.97335	-15.38058	11.27051
6.97755	-15.38058	11.27051
6.98173	-15.35861	11.27051
6.98602	-15.35861	11.27051
6.99020	-15.35861	11.27051
6.99439	-15.35861	11.27051
6.99857	-15.33664	11.27051
7.00286	-15.33664	11.27051
7.00707	-15.33664	11.27051
7.01125	-15.33664	11.27051
7.01544	-15.31466	11.27051
7.01962	-15.31466	11.27051
7.02381	-15.29269	11.27051
7.02799	-15.29269	11.27051
7.03224	-15.29269	11.27051
7.03651	-15.27072	11.27051
7.04070	-15.27072	11.27051
7.04487	-15.27072	11.27051
7.04906	-15.24875	11.27051
7.05324	-15.24875	11.27051
7.05742	-15.24875	11.27051
7.06163	-15.22677	11.27051
7.06594	-15.22677	11.27051
7.07015	-15.22677	11.27051
7.07433	-15.22677	11.27051
7.07852	-15.20480	11.27051
7.08270	-15.20480	11.27051
7.08699	-15.20480	11.27051
7.09117	-15.20480	11.27051
7.09562	-15.18283	11.27051
7.09983	-15.18283	11.27051
7.10402	-15.18283	11.27051
7.10821	-15.18283	11.27051
7.11240	-15.18283	11.27051
7.11659	-15.18283	11.27051
7.12079	-15.16086	11.27051
7.12505	-15.16086	11.27051
7.12934	-15.13888	11.27051
7.13354	-15.13888	11.27051
7.13773	-15.13888	11.27051
7.14192	-15.13888	11.27051
7.14611	-15.13888	11.27051
7.15031	-15.11691	11.27051
7.15450	-15.11691	11.27051
7.15883	-15.11691	11.27051
7.16304	-15.11691	11.27051
7.16724	-15.11691	11.27051
7.17144	-15.11691	11.27051
7.17563	-15.09494	11.27051
7.17982	-15.09494	11.27051
7.18401	-15.09494	11.27051
7.18840	-15.07297	11.27051
7.19266	-15.07297	11.27051
7.19686	-15.07297	11.27051
7.20106	-15.07297	11.27051
7.20525	-15.07297	11.27051
7.20943	-15.07297	11.27051
7.21362	-15.05099	11.27051
7.21787	-15.05099	11.27051
7.22215	-15.05099	11.27051
7.22636	-15.05099	11.27051
7.23055	-15.05099	11.27051
7.23473	-15.05099	11.27051
7.23892	-15.05099	11.27051
7.24311	-15.05099	11.27051
7.24729	-15.05099	11.27051
7.25160	-15.02902	11.27051
7.25580	-15.02902	11.27051
7.26001	-15.02902	11.27051
7.26420	-15.02902	11.27051
7.26839	-15.02902	11.27051
7.27258	-15.02902	11.27051
7.27678	-15.02902	11.27051
7.28104	-15.02902	11.27051
7.28532	-15.00705	11.27051
7.28961	-15.00705	11.27051
7.29380	-15.00705	11.27051
7.29798	-15.00705	11.27051
7.30217	-15.00705	11.27051
7.30635	-15.00705	11.27051
7.31054	-15.00705	11.27051
7.31483	-15.00705	11.27051
7.31904	-15.00705	11.27051
7.32322	-15.00705	11.27051
7.32741	-15.00705	11.27051
7.33159	-14.98507	11.27051
7.33577	-15.00705	11.27051
7.33996	-15.00705	11.27051
7.34421	-14.98507	11.27051
7.34847	-14.98507	11.27051
7.35269	-15.00705	11.27051
7.35688	-14.98507	11.27051
7.36108	-14.98507	11.27051
7.36528	-14.98507	11.27051
7.36947	-14.98507	11.27051
7.37366	-14.98507	11.27051
7.37796	-14.98507	11.27051
7.38217	-14.98507	11.27051
7.38636	-14.98507	11.27051
7.39065	-14.98507	11.27051
7.39483	-14.98507	11.27051
7.39901	-14.98507	11.27051
7.40320	-14.98507	11.27051
7.40766	-14.98507	11.27051
7.41188	-14.98507	11.27051
7.41608	-14.98507	11.27051
7.42029	-15.00705	11.27051
7.42449	-14.98507	11.27051
7.42868	-14.98507	11.27051
7.43287	-14.98507	11.27051
7.43715	-15.00705	11.27051
7.44150	-14.98507	11.27051
7.44572	-15.00705	11.27051
7.44994	-14.98507	11.27051
7.45413	-15.00705	11.27051
7.45832	-15.00705	11.27051
7.46251	-15.00705	11.27051
7.46670	-15.00705	11.27051
7.47105	-15.00705	11.27051
7.47526	-15.00705	11.27051
7.47945	-15.00705	11.27051
7.48366	-15.00705	11.27051
7.48785	-15.00705	11.27051
7.49214	-15.00705	11.27051
7.49632	-15.00705	11.27051
7.50091	-15.02902	11.27051
7.50515	-15.02902	11.27051
7.50935	-15.02902	11.27051
7.51355	-15.02902	11.27051
7.51774	-15.02902	11.27051
7.52193	-15.02902	11.27051
7.52611	-15.02902	11.27051
7.53038	-15.05099	11.27051
7.53465	-15.05099	11.27051
7.53885	-15.05099	11.27051
7.54304	-15.05099	11.27051
7.54722	-15.05099	11.27051
7.55141	-15.07297	11.27051
7.55559	-15.07297	11.27051
7.55977	-15.07297	11.27051
7.56408	-15.07297	11.27051
7.56828	-15.07297	11.27051
7.57247	-15.07297	11.27051
7.57665	-15.09494	11.27051
7.58085	-15.09494	11.27051
7.58503	-15.09494	11.27051
7.58921	-15.09494	11.27051
7.59358	-15.09494	11.27051
7.59785	-15.11691	11.27051
7.60205	-15.11691	11.27051
7.60623	-15.11691	11.27051
7.61042	-15.13888	11.27051
7.61460	-15.13888	11.27051
7.61879	-15.11691	11.27051
7.62297	-15.13888	11.27051
7.62727	-15.13888	11.27051
7.63147	-15.16086	11.27051
7.63566	-15.16086	11.27051
7.63984	-15.16086	11.27051
7.64403	-15.16086	11.27051
7.64821	-15.18283	11.27051
7.65240	-15.18283	11.27051
7.65665	-15.18283	11.27051
7.66094	-15.18283	11.27051
7.66513	-15.18283	11.27051
7.66932	-15.18283	11.27051
7.67350	-15.20480	11.27051
7.67769	-15.20480	11.27051
7.68187	-15.20480	11.27051
7.68605	-15.20480	11.27051
7.69035	-15.20480	11.27051
7.69465	-15.20480	11.27051
7.69884	-15.22677	11.27051
7.70302	-15.22677	11.27051
7.70720	-15.24875	11.27051
7.71138	-15.22677	11.27051
7.71556	-15.24875	11.27051
7.71992	-15.24875	11.27051
7.72417	-15.24875	11.27051
7.72838	-15.27072	11.27051
7.73259	-15.27072	11.27051
7.73680	-15.27072	11.27051
7.74101	-15.29269	11.27051
7.74522	-15.29269	11.27051
7.75109	-15.29269	11.27051
7.75541	-15.31466	11.27051
7.75963	-15.31466	11.27051
7.76384	-15.29269	11.27051
7.76806	-15.33664	11.27051
7.77226	-15.31466	11.27051
7.77647	-15.33664	11.27051
7.78106	-15.31466	11.27051
7.78536	-15.33664	11.27051
7.78957	-15.33664	11.27051
7.79377	-15.35861	11.27051
7.79807	-15.35861	11.27051
7.80226	-15.35861	11.27051
7.80644	-15.35861	11.27051
7.81063	-15.35861	11.27051
7.81493	-15.38058	11.27051
7.81914	-15.38058	11.27051
7.82333	-15.38058	11.27051
7.82751	-15.38058	11.27051
7.83170	-15.40256	11.27051
7.83588	-15.40256	11.27051
7.84006	-15.40256	11.27051
7.84432	-15.40256	11.27051
7.84858	-15.42453	11.27051
7.85279	-15.42453	11.27051
7.85698	-15.42453	11.27051
7.86116	-15.42453	11.27051
7.86535	-15.44650	11.27051
7.86953	-15.42453	11.27051
7.87371	-15.44650	11.27051
7.87801	-15.44650	11.27051
7.88221	-15.46847	11.27051
7.88640	-15.46847	11.27051
7.89059	-15.46847	11.27051
7.89477	-15.46847	11.27051
7.89906	-15.46847	11.27051
7.90324	-15.46847	11.27051
7.90767	-15.49045	11.27051
7.91187	-15.49045	11.27051
7.91606	-15.49045	11.27051
7.92024	-15.49045	11.27051
7.92443	-15.51242	11.27051
7.92861	-15.51242	11.27051
7.93281	-15.51242	11.27051
7.93706	-15.51242	11.27051
7.94134	-15.53439	11.27051
7.94553	-15.53439	11.27051
7.94971	-15.53439	11.27051
7.95390	-15.53439	11.27051
7.95809	-15.53439	11.27051
7.96227	-15.53439	11.27051
7.96646	-15.53439	11.27051
7.97075	-15.55636	11.27051
7.97495	-15.55636	11.27051
7.97914	-15.55636	11.27051
7.98332	-15.55636	11.27051
7.98752	-15.55636	11.27051
7.99171	-15.57834	11.27051
7.99590	-15.57834	11.27051
8.00027	-15.57834	11.27051
8.00453	-15.57834	11.27051
8.00873	-15.60031	11.27051
8.01288	-15.57834	11.27051
8.01706	-15.60031	11.27051
8.02125	-15.60031	11.27051
8.02543	-15.60031	11.27051
8.02961	-15.60031	11.27051
8.03391	-15.60031	11.27051
8.03811	-15.60031	11.27051
8.04230	-15.62228	11.27051
8.04648	-15.62228	11.27051
8.05066	-15.62228	11.27051
8.05485	-15.62228	11.27051
8.05904	-15.62228	11.27051
8.06329	-15.64425	11.27051
8.06756	-15.62228	11.27051
8.07175	-15.62228	11.27051
8.07594	-15.64425	11.27051
8.08012	-15.64425	11.27051
8.08430	-15.64425	11.27051
8.08849	-15.64425	11.27051
8.09267	-15.64425	11.27051
8.09698	-15.64425	11.27051
8.10128	-15.64425	11.27051
8.10547	-15.64425	11.27051
8.10965	-15.66623	11.27051
8.11383	-15.66623	11.27051
8.11802	-15.66623	11.27051
8.12220	-15.66623	11.27051
8.12661	-15.66623	11.27051
8.13082	-15.66623	11.27051
8.13501	-15.66623	11.27051
8.13919	-15.66623	11.27051
8.14337	-15.66623	11.27051
8.14755	-15.66623	11.27051
8.15174	-15.66623	11.27051
8.15599	-15.66623	11.27051
8.16027	-15.68820	11.27051
8.16446	-15.66623	11.27051
8.16865	-15.68820	11.27051
8.17284	-15.66623	11.27051
8.17703	-15.66623	11.27051
8.18121	-15.66623	11.27051
8.18540	-15.68820	11.27051
8.18969	-15.66623	11.27051
8.19389	-15.68820	11.27051
8.19808	-15.68820	11.27051
8.20237	-15.68820	11.27051
8.20655	-15.68820	11.27051
8.21073	-15.68820	11.27051
8.21491	-15.66623	11.27051
8.21917	-15.68820	11.27051
8.22342	-15.66623	11.27051
8.22765	-15.68820	11.27051
8.23185	-15.68820	11.27051
8.23604	-15.68820	11.27051
8.24023	-15.68820	11.27051
8.24442	-15.66623	11.27051
8.24860	-15.66623	11.27051
8.25293	-15.68820	11.27051
8.25713	-15.68820	11.27051
8.26132	-15.66623	11.27051
8.26550	-15.66623	11.27051
8.26969	-15.68820	11.27051
8.27388	-15.66623	11.27051
8.27806	-15.66623	11.27051
8.28249	-15.66623	11.27051
8.28670	-15.66623	11.27051
8.29088	-15.66623	11.27051
8.29507	-15.66623	11.27051
8.29925	-15.66623	11.27051
8.30355	-15.66623	11.27051
8.30773	-15.64425	11.27051
8.31198	-15.64425	11.27051
8.31624	-15.66623	11.27051
8.32045	-15.64425	11.27051
8.32464	-15.64425	11.27051
8.32883	-15.64425	11.27051
8.33302	-15.64425	11.27051
8.33720	-15.64425	11.27051
8.34138	-15.64425	11.27051
8.34568	-15.64425	11.27051
8.34993	-15.62228	11.27051
8.35412	-15.62228	11.27051
8.35831	-15.62228	11.27051
8.36249	-15.62228	11.27051
8.36668	-15.62228	11.27051
8.37086	-15.62228	11.27051
8.37530	-15.62228	11.27051
8.37951	-15.60031	11.27051
8.38370	-15.60031	11.27051
8.38788	-15.60031	11.27051
8.39207	-15.60031	11.27051
8.39625	-15.60031	11.27051
8.40043	-15.57834	11.27051
8.40484	-15.57834	11.27051
8.40912	-15.57834	11.27051
8.41331	-15.55636	11.27051
8.41750	-15.55636	11.27051
8.42168	-15.55636	11.27051
8.42586	-15.55636	11.27051
8.43005	-15.53439	11.27051
8.43423	-15.53439	11.27051
8.43852	-15.53439	11.27051
8.44272	-15.53439	11.27051
8.44694	-15.53439	11.27051
8.45113	-15.51242	11.27051
8.45532	-15.51242	11.27051
8.45950	-15.51242	11.27051
8.46369	-15.51242	11.27051
8.46795	-15.51242	11.27051
8.47221	-15.51242	11.27051
8.47640	-15.49045	11.27051
8.48059	-15.49045	11.27051
8.48478	-15.46847	11.27051
8.48897	-15.46847	11.27051
8.49315	-15.46847	11.27051
8.49734	-15.46847	11.27051
8.50163	-15.46847	11.27051
8.50593	-15.46847	11.27051
8.51012	-15.44650	11.27051
8.51430	-15.44650	11.27051
8.51849	-15.42453	11.27051
8.52267	-15.42453	11.27051
8.52685	-15.42453	11.27051
8.53132	-15.42453	11.27051
8.53555	-15.42453	11.27051
8.53974	-15.42453	11.27051
8.54392	-15.40256	11.27051
8.54810	-15.40256	11.27051
8.55232	-15.40256	11.27051
8.55651	-15.40256	11.27051
8.56078	-15.40256	11.27051
8.56506	-15.38058	11.27051
8.56926	-15.38058	11.27051
8.57345	-15.38058	11.27051
8.57763	-15.35861	11.27051
8.58181	-15.35861	11.27051
8.58600	-15.35861	11.27051
8.59018	-15.33664	11.27051
8.59447	-15.33664	11.27051
8.59867	-15.33664	11.27051
8.60286	-15.33664	11.27051
8.60715	-15.33664	11.27051
8.61133	-15.33664	11.27051
8.61551	-15.31466	11.27051
8.61970	-15.31466	11.27051
8.62395	-15.31466	11.27051
8.62822	-15.29269	11.27051
8.63241	-15.31466	11.27051
8.63661	-15.29269	11.27051
8.64080	-15.29269	11.27051
8.64499	-15.27072	11.27051
8.64918	-15.27072	11.27051
8.65336	-15.27072	11.27051
8.65766	-15.27072	11.27051
8.66186	-15.27072	11.27051
8.66605	-15.27072	11.27051
8.67023	-15.24875	11.27051
8.67442	-15.24875	11.27051
8.67860	-15.24875	11.27051
8.68278	-15.24875	11.27051
8.68704	-15.24875	11.27051
8.69130	-15.24875	11.27051
8.69549	-15.22677	11.27051
8.69968	-15.22677	11.27051
8.70386	-15.22677	11.27051
8.70815	-15.22677	11.27051
8.71233	-15.22677	11.27051
8.71651	-15.20480	11.27051
8.72082	-15.20480	11.27051
8.72502	-15.20480	11.27051
8.72921	-15.20480	11.27051
8.73339	-15.20480	11.27051
8.73758	-15.20480	11.27051
8.74176	-15.18283	11.27051
8.74594	-15.18283	11.27051
8.75020	-15.18283	11.27051
8.75446	-15.18283	11.27051
8.75865	-15.18283	11.27051
8.76284	-15.16086	11.27051
8.76702	-15.16086	11.27051
8.77120	-15.16086	11.27051
8.77539	-15.16086	11.27051
8.77957	-15.13888	11.27051
8.78386	-15.13888	11.27051
8.78806	-15.13888	11.27051
8.79225	-15.13888	11.27051
8.79643	-15.13888	11.27051
8.80062	-15.13888	11.27051
8.80481	-15.11691	11.27051
8.80910	-15.11691	11.27051
8.81351	-15.11691	11.27051
8.81772	-15.13888	11.27051
8.82191	-15.11691	11.27051
8.82609	-15.11691	11.27051
8.83028	-15.09494	11.27051
8.83446	-15.09494	11.27051
8.83864	-15.09494	11.27051
8.84289	-15.09494	11.27051
8.84717	-15.09494	11.27051
8.85137	-15.09494	11.27051
8.85555	-15.09494	11.27051
8.85974	-15.09494	11.27051
8.86392	-15.09494	11.27051
8.86811	-15.07297	11.27051
8.87229	-15.07297	11.27051
8.87660	-15.07297	11.27051
8.88081	-15.05099	11.27051
8.88500	-15.05099	11.27051
8.88919	-15.07297	11.27051
8.89337	-15.05099	11.27051
8.89756	-15.05099	11.27051
8.90174	-15.05099	11.27051
8.90599	-15.05099	11.27051
8.91037	-15.05099	11.27051
8.91457	-15.05099	11.27051
8.91875	-15.05099	11.27051
8.92294	-15.02902	11.27051
8.92712	-15.02902	11.27051
8.93131	-15.02902	11.27051
8.93549	-15.02902	11.27051
8.93979	-15.02902	11.27051
8.94399	-15.02902	11.27051
8.94818	-15.02902	11.27051
8.95240	-15.02902	11.27051
8.95659	-15.00705	11.27051
8.96080	-15.00705	11.27051
8.96499	-15.00705	11.27051
8.96958	-15.00705	11.27051
8.97380	-15.00705	11.27051
8.97801	-15.00705	11.27051
8.98220	-15.00705	11.27051
8.98640	-15.00705	11.27051
8.99060	-15.00705	11.27051
8.99479	-15.00705	11.27051
8.99907	-14.98507	11.27051
9.00335	-14.98507	11.27051
9.00756	-14.98507	11.27051
9.01187	-14.98507	11.27051
9.01607	-14.98507	11.27051
9.02026	-14.98507	11.27051
9.02445	-14.98507	11.27051
9.02874	-14.98507	11.27051
9.03304	-14.98507	11.27051
9.03724	-14.98507	11.27051
9.04143	-14.96310	11.27051
9.04562	-14.96310	11.27051
9.04982	-14.96310	11.27051
9.05401	-14.96310	11.27051
9.05820	-14.96310	11.27051
9.06253	-14.96310	11.27051
9.06676	-14.96310	11.27051
9.07096	-14.96310	11.27051
9.07516	-14.96310	11.27051
9.07936	-14.96310	11.27051
9.08355	-14.96310	11.27051
9.08774	-14.94113	11.27051
9.09219	-14.94113	11.27051
9.09641	-14.94113	11.27051
9.10060	-14.94113	11.27051
9.10480	-14.94113	11.27051
9.10899	-14.94113	11.27051
9.11328	-14.94113	11.27051
9.11746	-14.94113	11.27051
9.12172	-14.94113	11.27051
9.12600	-14.94113	11.27051
9.13020	-14.94113	11.27051
9.13439	-14.91916	11.27051
9.13858	-14.91916	11.27051
9.14277	-14.91916	11.27051
9.14695	-14.94113	11.27051
9.15114	-14.94113	11.27051
9.15544	-14.91916	11.27051
9.15964	-14.91916	11.27051
9.16384	-14.91916	11.27051
9.16804	-14.91916	11.27051
9.17224	-14.91916	11.27051
9.17643	-14.91916	11.27051
9.18062	-14.91916	11.27051
9.18507	-14.91916	11.27051
9.18928	-14.91916	11.27051
9.19347	-14.91916	11.27051
9.19766	-14.91916	11.27051
9.20186	-14.91916	11.27051
9.20605	-14.91916	11.27051
9.21024	-14.91916	11.27051
9.21465	-14.89718	11.27051
9.21893	-14.91916	11.27051
9.22313	-14.91916	11.27051
9.22733	-14.89718	11.27051
9.23152	-14.89718	11.27051
9.23571	-14.89718	11.27051
9.23991	-14.89718	11.27051
9.24412	-14.89718	11.27051
9.24843	-14.91916	11.27051
9.25265	-14.89718	11.27051
9.25685	-14.89718	11.27051
9.26105	-14.89718	11.27051
9.26525	-14.89718	11.27051
9.26945	-14.89718	11.27051
9.27365	-14.89718	11.27051
9.27808	-14.89718	11.27051
9.28230	-14.89718	11.27051
9.28650	-14.89718	11.27051
9.29069	-14.89718	11.27051
9.29488	-14.89718	11.27051
9.29907	-14.89718	11.27051
9.30325	-14.87521	11.27051
9.30752	-14.89718	11.27051
9.31180	-14.89718	11.27051
9.31610	-14.89718	11.27051
9.32029	-14.89718	11.27051
9.32448	-14.89718	11.27051
9.32866	-14.89718	11.27051
9.33285	-14.87521	11.27051
9.33704	-14.89718	11.27051
9.34134	-14.89718	11.27051
9.34554	-14.89718	11.27051
9.34973	-14.87521	11.27051
9.35392	-14.89718	11.27051
9.35811	-14.87521	11.27051
9.36231	-14.87521	11.27051
9.36650	-14.87521	11.27051
9.37099	-14.89718	11.27051
9.37521	-14.87521	11.27051
9.37939	-14.89718	11.27051
9.38358	-14.87521	11.27051
9.38777	-14.89718	11.27051
9.39195	-14.89718	11.27051
9.39614	-14.87521	11.27051
9.40039	-14.89718	11.27051
9.40467	-14.89718	11.27051
9.40888	-14.87521	11.27051
9.41306	-14.89718	11.27051
9.41736	-14.89718	11.27051
9.42154	-14.89718	11.27051
9.42573	-14.89718	11.27051
9.42991	-14.89718	11.27051
9.43421	-14.89718	11.27051
9.43841	-14.89718	11.27051
9.44259	-14.87521	11.27051
9.44677	-14.87521	11.27051
9.45096	-14.89718	11.27051
9.45515	-14.89718	11.27051
9.45933	-14.87521	11.27051
9.46361	-14.89718	11.27051
9.46789	-14.89718	11.27051
9.47210	-14.87521	11.27051
9.47629	-14.87521	11.27051
9.48048	-14.87521	11.27051
9.48467	-14.89718	11.27051
9.48886	-14.87521	11.27051
9.49305	-14.89718	11.27051
9.49735	-14.89718	11.27051
9.50156	-14.89718	11.27051
9.50574	-14.89718	11.27051
9.50993	-14.89718	11.27051
9.51412	-14.89718	11.27051
9.51840	-14.89718	11.27051
9.52259	-14.89718	11.27051
9.52703	-14.89718	11.27051
9.53124	-14.89718	11.27051
9.53544	-14.89718	11.27051
9.53963	-14.89718	11.27051
9.54382	-14.89718	11.27051
9.54801	-14.89718	11.27051
9.55220	-14.89718	11.27051
9.55646	-14.89718	11.27051
9.56076	-14.89718	11.27051
9.56498	-14.89718	11.27051
9.56917	-14.89718	11.27051
9.57336	-14.91916	11.27051
9.57754	-14.91916	11.27051
9.58173	-14.91916	11.27051
9.58591	-14.91916	11.27051
9.59021	-14.91916	11.27051
9.59441	-14.91916	11.27051
9.59859	-14.91916	11.27051
9.60278	-14.91916	11.27051
9.60697	-14.91916	11.27051
9.61115	-14.91916	11.27051
9.61534	-14.91916	11.27051
9.61970	-14.91916	11.27051
9.62395	-14.94113	11.27051
9.62814	-14.94113	11.27051
9.63233	-14.94113	11.27051
9.63652	-14.94113	11.27051
9.64070	-14.94113	11.27051
9.64487	-14.94113	11.27051
9.64905	-14.94113	11.27051
9.65335	-14.96310	11.27051
9.65755	-14.96310	11.27051
9.66173	-14.96310	11.27051
9.66594	-14.96310	11.27051
9.67014	-14.96310	11.27051
9.67434	-14.96310	11.27051
9.67853	-14.96310	11.27051
9.68279	-14.96310	11.27051
9.68706	-14.96310	11.27051
9.69126	-14.98507	11.27051
9.69544	-14.98507	11.27051
9.69963	-14.98507	11.27051
9.70382	-14.98507	11.27051
9.70800	-14.98507	11.27051
9.71219	-14.98507	11.27051
9.71649	-15.00705	11.27051
9.72081	-14.98507	11.27051
9.72500	-15.00705	11.27051
9.72918	-15.00705	11.27051
9.73337	-15.00705	11.27051
9.73755	-15.00705	11.27051
9.74173	-15.00705	11.27051
9.74617	-15.02902	11.27051
9.75039	-15.02902	11.27051
9.75459	-15.02902	11.27051
9.75878	-15.02902	11.27051
9.76299	-15.02902	11.27051
9.76719	-15.02902	11.27051
9.77139	-15.02902	11.27051
9.77568	-15.02902	11.27051
9.77998	-15.05099	11.27051
9.78419	-15.05099	11.27051
9.78839	-15.05099	11.27051
9.79258	-15.05099	11.27051
9.79678	-15.05099	11.27051
9.80097	-15.07297	11.27051
9.80517	-15.05099	11.27051
9.80948	-15.07297	11.27051
9.81369	-15.07297	11.27051
9.81789	-15.07297	11.27051
9.82220	-15.07297	11.27051
9.82639	-15.07297	11.27051
9.83058	-15.07297	11.27051
9.83477	-15.07297	11.27051
9.83920	-15.07297	11.27051
9.84342	-15.07297	11.27051
9.84761	-15.09494	11.27051
9.85180	-15.09494	11.27051
9.85599	-15.09494	11.27051
9.86019	-15.09494	11.27051
9.86440	-15.09494	11.27051
9.86869	-15.09494	11.27051
9.87300	-15.09494	11.27051
9.87720	-15.11691	11.27051
9.88138	-15.09494	11.27051
9.88557	-15.11691	11.27051
9.88976	-15.09494	11.27051
9.89394	-15.11691	11.27051
9.89813	-15.11691	11.27051
9.90242	-15.11691	11.27051
9.90663	-15.11691	11.27051
9.91082	-15.11691	11.27051
9.91501	-15.11691	11.27051
9.91920	-15.11691	11.27051
9.92348	-15.11691	11.27051
9.92767	-15.11691	11.27051
9.93210	-15.13888	11.27051
9.93631	-15.13888	11.27051
9.94050	-15.13888	11.27051
9.94469	-15.13888	11.27051
9.94887	-15.13888	11.27051
9.95306	-15.13888	11.27051
9.95726	-15.13888	11.27051
9.96155	-15.13888	11.27051
9.96586	-15.13888	11.27051
9.97007	-15.13888	11.27051
9.97426	-15.13888	11.27051
9.97845	-15.13888	11.27051
9.98265	-15.13888	11.27051
9.98684	-15.11691	11.27051
9.99103	-15.13888	11.27051
9.99534	-15.13888	11.27051
9.99955	-15.13888	11.27051
10.00374	-15.13888	11.27051
10.00793	-15.13888	11.27051
10.01212	-15.13888	11.27051
10.01631	-15.13888	11.27051
10.02050	-15.13888	11.27051
10.02495	-15.13888	11.27051
10.02921	-15.13888	11.27051
10.03341	-15.13888	11.27051
10.03761	-15.13888	11.27051
10.04180	-15.13888	11.27051
10.04599	-15.11691	11.27051
10.05017	-15.13888	11.27051
10.05443	-15.13888	11.27051
10.05871	-15.13888	11.27051
10.06293	-15.13888	11.27051
10.06713	-15.11691	11.27051
10.07132	-15.11691	11.27051
10.07550	-15.11691	11.27051
10.07969	-15.11691	11.27051
10.08387	-15.11691	11.27051
10.08817	-15.11691	11.27051
10.09238	-15.11691	11.27051
10.09657	-15.11691	11.27051
10.10076	-15.11691	11.27051
10.10495	-15.11691	11.27051
10.10913	-15.11691	11.27051
10.11332	-15.09494	11.27051
10.11757	-15.09494	11.27051
10.12185	-15.11691	11.27051
10.12614	-15.09494	11.27051
10.13033	-15.09494	11.27051
10.13451	-15.09494	11.27051
10.13870	-15.09494	11.27051
10.14288	-15.09494	11.27051
10.14707	-15.07297	11.27051
10.15137	-15.07297	11.27051
10.15557	-15.07297	11.27051
10.15976	-15.07297	11.27051
10.16396	-15.07297	11.27051
10.16816	-15.07297	11.27051
10.17235	-15.07297	11.27051
10.17654	-15.05099	11.27051
10.18101	-15.05099	11.27051
10.18522	-15.05099	11.27051
10.18942	-15.05099	11.27051
10.19361	-15.05099	11.27051
10.19780	-15.05099	11.27051
10.20199	-15.05099	11.27051
10.20618	-15.02902	11.27051
10.21044	-15.02902	11.27051
10.21473	-15.02902	11.27051
10.21894	-15.02902	11.27051
10.22318	-15.00705	11.27051
10.22750	-15.00705	11.27051
10.23170	-15.00705	11.27051
10.23590	-15.00705	11.27051
10.24012	-15.00705	11.27051
10.24445	-15.00705	11.27051
10.24867	-14.98507	11.27051
10.25287	-14.98507	11.27051
10.25706	-14.98507	11.27051
10.26125	-14.98507	11.27051
10.26543	-14.98507	11.27051
10.26961	-14.98507	11.27051
10.27400	-14.96310	11.27051
10.27819	-14.96310	11.27051
10.28237	-14.96310	11.27051
10.28653	-14.94113	11.27051
10.29070	-14.94113	11.27051
10.29487	-14.94113	11.27051
10.29905	-14.94113	11.27051
10.30334	-14.94113	11.27051
10.30761	-14.91916	11.27051
10.31179	-14.91916	11.27051
10.31596	-14.91916	11.27051
10.32012	-14.91916	11.27051
10.32429	-14.91916	11.27051
10.32854	-14.89718	11.27051
10.33270	-14.89718	11.27051
10.33697	-14.87521	11.27051
10.34116	-14.87521	11.27051
10.34532	-14.87521	11.27051
10.34949	-14.87521	11.27051
10.35366	-14.87521	11.27051
10.35782	-14.85324	11.27051
10.36199	-14.85324	11.27051
10.36628	-14.85324	11.27051
10.37056	-14.85324	11.27051
10.37476	-14.85324	11.27051
10.37895	-14.83127	11.27051
10.38313	-14.83127	11.27051
10.38732	-14.83127	11.27051
10.39151	-14.83127	11.27051
10.39569	-14.80929	11.27051
10.39999	-14.80929	11.27051
10.40420	-14.80929	11.27051
10.40838	-14.78732	11.27051
10.41257	-14.78732	11.27051
10.41677	-14.78732	11.27051
10.42095	-14.78732	11.27051
10.42514	-14.78732	11.27051
10.42969	-14.76535	11.27051
10.43389	-14.76535	11.27051
10.43809	-14.76535	11.27051
10.44228	-14.76535	11.27051
10.44647	-14.74338	11.27051
10.45066	-14.74338	11.27051
10.45485	-14.74338	11.27051
10.45912	-14.72140	11.27051
10.46343	-14.72140	11.27051
10.46764	-14.72140	11.27051
10.47185	-14.72140	11.27051
10.47604	-14.72140	11.27051
10.48023	-14.69943	11.27051
10.48442	-14.69943	11.27051
10.48861	-14.69943	11.27051
10.49294	-14.69943	11.27051
10.49715	-14.67746	11.27051
10.50134	-14.67746	11.27051
10.50554	-14.67746	11.27051
10.50973	-14.67746	11.27051
10.51392	-14.65548	11.27051
10.51811	-14.65548	11.27051
10.52238	-14.65548	11.27051
10.52665	-14.65548	11.27051
10.53094	-14.63351	11.27051
10.53513	-14.63351	11.27051
10.53932	-14.63351	11.27051
10.54350	-14.63351	11.27051
10.54769	-14.63351	11.27051
10.55193	-14.61154	11.27051
10.55622	-14.61154	11.27051
10.56042	-14.61154	11.27051
10.56463	-14.58957	11.27051
10.56884	-14.61154	11.27051
10.57304	-14.58957	11.27051
10.57723	-14.58957	11.27051
10.58143	-14.58957	11.27051
10.58585	-14.58957	11.27051
10.59006	-14.56759	11.27051
10.59426	-14.56759	11.27051
10.59845	-14.56759	11.27051
10.60264	-14.56759	11.27051
10.60683	-14.56759	11.27051
10.61101	-14.56759	11.27051
10.61527	-14.54562	11.27051
10.61955	-14.54562	11.27051
10.62375	-14.54562	11.27051
10.62793	-14.54562	11.27051
10.63222	-14.54562	11.27051
10.63640	-14.52365	11.27051
10.64059	-14.52365	11.27051
10.64478	-14.52365	11.27051
10.64909	-14.52365	11.27051
10.65330	-14.52365	11.27051
10.65749	-14.50168	11.27051
10.66167	-14.50168	11.27051
10.66587	-14.52365	11.27051
10.67006	-14.50168	11.27051
10.67425	-14.50168	11.27051
10.67865	-14.50168	11.27051
10.68286	-14.47970	11.27051
10.68705	-14.47970	11.27051
10.69124	-14.47970	11.27051
10.69542	-14.47970	11.27051
10.69960	-14.47970	11.27051
10.70379	-14.47970	11.27051
10.70803	-14.45773	11.27051
10.71234	-14.47970	11.27051
10.71655	-14.47970	11.27051
10.72075	-14.45773	11.27051
10.72494	-14.45773	11.27051
10.72912	-14.45773	11.27051
10.73340	-14.45773	11.27051
10.73759	-14.45773	11.27051
10.74190	-14.43576	11.27051
10.74609	-14.43576	11.27051
10.75028	-14.43576	11.27051
10.75446	-14.43576	11.27051
10.75865	-14.43576	11.27051
10.76283	-14.43576	11.27051
10.76703	-14.43576	11.27051
10.77129	-14.43576	11.27051
10.77558	-14.43576	11.27051
10.77978	-14.41379	11.27051
10.78396	-14.41379	11.27051
10.78815	-14.43576	11.27051
10.79233	-14.41379	11.27051
10.79652	-14.41379	11.27051
10.80070	-14.41379	11.27051
10.80499	-14.41379	11.27051
10.80919	-14.41379	11.27051
10.81338	-14.41379	11.27051
10.81756	-14.41379	11.27051
10.82174	-14.41379	11.27051
10.82593	-14.41379	11.27051
10.83011	-14.41379	11.27051
10.83447	-14.41379	11.27051
10.83872	-14.39181	11.27051
10.84291	-14.39181	11.27051
10.84710	-14.39181	11.27051
10.85128	-14.39181	11.27051
10.85546	-14.39181	11.27051
10.85965	-14.39181	11.27051
10.86385	-14.39181	11.27051
10.86817	-14.39181	11.27051
10.87238	-14.39181	11.27051
10.87656	-14.39181	11.27051
10.88075	-14.39181	11.27051
10.88494	-14.39181	11.27051
10.88921	-14.39181	11.27051
10.89341	-14.39181	11.27051
10.89780	-14.39181	11.27051
10.90204	-14.39181	11.27051
10.90623	-14.39181	11.27051
10.91042	-14.39181	11.27051
10.91460	-14.39181	11.27051
10.91878	-14.36984	11.27051
10.92297	-14.36984	11.27051
10.92723	-14.36984	11.27051
10.93152	-14.36984	11.27051
10.93582	-14.36984	11.27051
10.94000	-14.36984	11.27051
10.94419	-14.36984	11.27051
10.94837	-14.36984	11.27051
10.95255	-14.36984	11.27051
10.95675	-14.36984	11.27051
10.96105	-14.34787	11.27051
10.96528	-14.36984	11.27051
10.96947	-14.36984	11.27051
10.97366	-14.34787	11.27051
10.97785	-14.34787	11.27051
10.98203	-14.36984	11.27051
10.98622	-14.36984	11.27051
10.99047	-14.34787	11.27051
10.99473	-14.34787	11.27051
10.99893	-14.34787	11.27051
11.00311	-14.34787	11.27051
11.00729	-14.34787	11.27051
11.01148	-14.34787	11.27051
11.01566	-14.34787	11.27051
11.01984	-14.34787	11.27051
11.02414	-14.34787	11.27051
11.02834	-14.34787	11.27051
11.03252	-14.34787	11.27051
11.03682	-14.34787	11.27051
11.04101	-14.34787	11.27051
11.04519	-14.34787	11.27051
11.04937	-14.34787	11.27051
11.05377	-14.34787	11.27051
11.05799	-14.34787	11.27051
11.06218	-14.34787	11.27051
11.06639	-14.32589	11.27051
11.07059	-14.34787	11.27051
11.07477	-14.32589	11.27051
11.07896	-14.32589	11.27051
11.08321	-14.32589	11.27051
11.08751	-14.32589	11.27051
11.09171	-14.32589	11.27051
11.09589	-14.32589	11.27051
11.10008	-14.32589	11.27051
11.10426	-14.32589	11.27051
11.10844	-14.32589	11.27051
11.11263	-14.32589	11.27051
11.11694	-14.34787	11.27051
11.12113	-14.32589	11.27051
11.12532	-14.32589	11.27051
11.12950	-14.32589	11.27051
11.13369	-14.32589	11.27051
11.13797	-14.32589	11.27051
11.14215	-14.32589	11.27051
11.14641	-14.32589	11.27051
11.15068	-14.32589	11.27051
11.15488	-14.32589	11.27051
11.15906	-14.32589	11.27051
11.16324	-14.32589	11.27051
11.16744	-14.32589	11.27051
11.17163	-14.32589	11.27051
11.17581	-14.32589	11.27051
11.18012	-14.32589	11.27051
11.18432	-14.32589	11.27051
11.18851	-14.32589	11.27051
11.19269	-14.32589	11.27051
11.19687	-14.32589	11.27051
11.20105	-14.32589	11.27051
11.20524	-14.32589	11.27051
11.20948	-14.32589	11.27051
11.21375	-14.32589	11.27051
11.21795	-14.32589	11.27051
11.22214	-14.32589	11.27051
11.22632	-14.32589	11.27051
11.23050	-14.32589	11.27051
11.23469	-14.32589	11.27051
11.23899	-14.32589	11.27051
11.24329	-14.32589	11.27051
11.24749	-14.32589	11.27051
11.25168	-14.32589	11.27051
11.25586	-14.32589	11.27051
11.26005	-14.32589	11.27051
11.26425	-14.32589	11.27051
11.26845	-14.32589	11.27051
11.27287	-14.32589	11.27051
11.27711	-14.32589	11.27051
11.28130	-14.32589	11.27051
11.28549	-14.32589	11.27051
11.28967	-14.32589	11.27051
11.29386	-14.32589	11.27051
11.29804	-14.32589	11.27051
11.30254	-14.32589	11.27051
11.30685	-14.32589	11.27051
11.31105	-14.32589	11.27051
11.31524	-14.32589	11.27051
11.31943	-14.32589	11.27051
11.32361	-14.32589	11.27051
11.32779	-14.32589	11.27051
11.33198	-14.32589	11.27051
11.33628	-14.32589	11.27051
11.34059	-14.32589	11.27051
11.34478	-14.32589	11.27051
11.34896	-14.32589	11.27051
11.35315	-14.32589	11.27051
11.35734	-14.34787	11.27051
11.36153	-14.32589	11.27051
11.36595	-14.32589	11.27051
11.37018	-14.32589	11.27051
11.37437	-14.32589	11.27051
11.37856	-14.32589	11.27051
11.38274	-14.32589	11.27051
11.38693	-14.32589	11.27051
11.39111	-14.32589	11.27051
11.39536	-14.32589	11.27051
11.39965	-14.32589	11.27051
11.40385	-14.32589	11.27051
11.40804	-14.32589	11.27051
11.41224	-14.34787	11.27051
11.41643	-14.32589	11.27051
11.42061	-14.32589	11.27051
11.42481	-14.32589	11.27051
11.42911	-14.32589	11.27051
11.43331	-14.32589	11.27051
11.43750	-14.34787	11.27051
11.44179	-14.32589	11.27051
11.44597	-14.32589	11.27051
11.45016	-14.32589	11.27051
11.45434	-14.32589	11.27051
11.45859	-14.32589	11.27051
11.46286	-14.32589	11.27051
11.46708	-14.32589	11.27051
11.47128	-14.32589	11.27051
11.47547	-14.32589	11.27051
11.47965	-14.32589	11.27051
11.48384	-14.34787	11.27051
11.48802	-14.32589	11.27051
11.49232	-14.34787	11.27051
11.49652	-14.32589	11.27051
11.50071	-14.32589	11.27051
11.50487	-14.32589	11.27051
11.50906	-14.32589	11.27051
11.51324	-14.32589	11.27051
11.51743	-14.32589	11.27051
11.52168	-14.32589	11.27051
11.52595	-14.32589	11.27051
11.53014	-14.32589	11.27051
11.53433	-14.32589	11.27051
11.53851	-14.32589	11.27051
11.54280	-14.32589	11.27051
11.54698	-14.32589	11.27051
11.55116	-14.32589	11.27051
11.55546	-14.32589	11.27051
11.55966	-14.32589	11.27051
11.56384	-14.32589	11.27051
11.56804	-14.34787	11.27051
11.57223	-14.32589	11.27051
11.57642	-14.32589	11.27051
11.58061	-14.32589	11.27051
11.58489	-14.32589	11.27051
11.58916	-14.32589	11.27051
11.59336	-14.32589	11.27051
11.59755	-14.32589	11.27051
11.60173	-14.32589	11.27051
11.60592	-14.32589	11.27051
11.61010	-14.32589	11.27051
11.61429	-14.32589	11.27051
11.61859	-14.32589	11.27051
11.62279	-14.32589	11.27051
11.62697	-14.32589	11.27051
11.63116	-14.32589	11.27051
11.63534	-14.32589	11.27051
11.63953	-14.32589	11.27051
11.64381	-14.32589	11.27051
11.64822	-14.32589	11.27051
11.65244	-14.32589	11.27051
11.65663	-14.32589	11.27051
11.66083	-14.32589	11.27051
11.66503	-14.32589	11.27051
11.66923	-14.32589	11.27051
11.67342	-14.32589	11.27051
11.67768	-14.32589	11.27051
11.68195	-14.32589	11.27051
11.68615	-14.32589	11.27051
11.69033	-14.32589	11.27051
11.69452	-14.32589	11.27051
11.69870	-14.32589	11.27051
11.70288	-14.32589	11.27051
11.70707	-14.32589	11.27051
11.71148	-14.32589	11.27051
11.71570	-14.32589	11.27051
11.71989	-14.32589	11.27051
11.72407	-14.32589	11.27051
11.72826	-14.32589	11.27051
11.73244	-14.32589	11.27051
11.73663	-14.32589	11.27051
11.74089	-14.32589	11.27051
11.74528	-14.32589	11.27051
11.74948	-14.32589	11.27051
11.75366	-14.32589	11.27051
11.75785	-14.32589	11.27051
11.76203	-14.32589	11.27051
11.76623	-14.32589	11.27051
11.77042	-14.32589	11.27051
11.77473	-14.32589	11.27051
11.77894	-14.32589	11.27051
11.78313	-14.32589	11.27051
11.78731	-14.32589	11.27051
11.79149	-14.32589	11.27051
11.79568	-14.32589	11.27051
11.79986	-14.32589	11.27051
11.80411	-14.32589	11.27051
11.80838	-14.32589	11.27051
11.81257	-14.32589	11.27051
11.81677	-14.32589	11.27051
11.82095	-14.32589	11.27051
11.82514	-14.34787	11.27051
11.82932	-14.32589	11.27051
11.83350	-14.34787	11.27051
11.83780	-14.34787	11.27051
11.84199	-14.32589	11.27051
11.84628	-14.34787	11.27051
11.85046	-14.34787	11.27051
11.85464	-14.34787	11.27051
11.85883	-14.34787	11.27051
11.86301	-14.34787	11.27051
11.86746	-14.34787	11.27051
11.87169	-14.34787	11.27051
11.87588	-14.34787	11.27051
11.88007	-14.34787	11.27051
11.88425	-14.34787	11.27051
11.88844	-14.34787	11.27051
11.89262	-14.34787	11.27051
11.89688	-14.34787	11.27051
11.90117	-14.34787	11.27051
11.90536	-14.36984	11.27051
11.90955	-14.36984	11.27051
11.91373	-14.36984	11.27051
11.91792	-14.36984	11.27051
11.92210	-14.36984	11.27051
11.92629	-14.36984	11.27051
11.93058	-14.36984	11.27051
11.93479	-14.36984	11.27051
11.93897	-14.36984	11.27051
11.94316	-14.36984	11.27051
11.94744	-14.36984	11.27051
11.95162	-14.36984	11.27051
11.95580	-14.36984	11.27051
11.96005	-14.39181	11.27051
11.96432	-14.39181	11.27051
11.96853	-14.39181	11.27051
11.97272	-14.39181	11.27051
11.97688	-14.39181	11.27051
11.98106	-14.39181	11.27051
11.98525	-14.39181	11.27051
11.98943	-14.41379	11.27051
11.99372	-14.39181	11.27051
11.99793	-14.41379	11.27051
12.00212	-14.41379	11.27051
12.00631	-14.41379	11.27051
12.01049	-14.41379	11.27051
12.01468	-14.41379	11.27051
12.01887	-14.41379	11.27051
12.02312	-14.41379	11.27051
12.02739	-14.43576	11.27051
12.03159	-14.43576	11.27051
12.03578	-14.43576	11.27051
12.03996	-14.43576	11.27051
12.04415	-14.43576	11.27051
12.04843	-14.43576	11.27051
12.05262	-14.43576	11.27051
12.05693	-14.45773	11.27051
12.06113	-14.45773	11.27051
12.06533	-14.45773	11.27051
12.06953	-14.45773	11.27051
12.07372	-14.45773	11.27051
12.07791	-14.47970	11.27051
12.08209	-14.47970	11.27051
12.08634	-14.47970	11.27051
12.09061	-14.47970	11.27051
12.09480	-14.50168	11.27051
12.09899	-14.50168	11.27051
12.10318	-14.50168	11.27051
12.10736	-14.50168	11.27051
12.11155	-14.50168	11.27051
12.11573	-14.50168	11.27051
12.12003	-14.50168	11.27051
12.12423	-14.52365	11.27051
12.12842	-14.52365	11.27051
12.13260	-14.54562	11.27051
12.13679	-14.54562	11.27051
12.14098	-14.54562	11.27051
12.14516	-14.54562	11.27051
12.14951	-14.54562	11.27051
12.15378	-14.56759	11.27051
12.15797	-14.56759	11.27051
12.16215	-14.56759	11.27051
12.16636	-14.56759	11.27051
12.17055	-14.56759	11.27051
12.17474	-14.58957	11.27051
12.17893	-14.58957	11.27051
12.18323	-14.58957	11.27051
12.18743	-14.58957	11.27051
12.19161	-14.61154	11.27051
12.19580	-14.61154	11.27051
12.19998	-14.61154	11.27051
12.20417	-14.63351	11.27051
12.20835	-14.63351	11.27051
12.21260	-14.63351	11.27051
12.21688	-14.65548	11.27051
12.22108	-14.65548	11.27051
12.22526	-14.65548	11.27051
12.22944	-14.67746	11.27051
12.23363	-14.67746	11.27051
12.23782	-14.67746	11.27051
12.24201	-14.67746	11.27051
12.24631	-14.69943	11.27051
12.25062	-14.69943	11.27051
12.25482	-14.69943	11.27051
12.25900	-14.72140	11.27051
12.26319	-14.72140	11.27051
12.26739	-14.72140	11.27051
12.27158	-14.74338	11.27051
12.27599	-14.74338	11.27051
12.28022	-14.74338	11.27051
12.28441	-14.76535	11.27051
12.28860	-14.76535	11.27051
12.29280	-14.76535	11.27051
12.29698	-14.76535	11.27051
12.30117	-14.78732	11.27051
12.30542	-14.78732	11.27051
12.30970	-14.78732	11.27051
12.31389	-14.80929	11.27051
12.31808	-14.80929	11.27051
12.32226	-14.80929	11.27051
12.32645	-14.83127	11.27051
12.33063	-14.83127	11.27051
12.33481	-14.83127	11.27051
12.33924	-14.85324	11.27051
12.34345	-14.85324	11.27051
12.34763	-14.85324	11.27051
12.35193	-14.87521	11.27051
12.35611	-14.87521	11.27051
12.36030	-14.89718	11.27051
12.36448	-14.89718	11.27051
12.36879	-14.89718	11.27051
12.37307	-14.89718	11.27051
12.37728	-14.89718	11.27051
12.38147	-14.91916	11.27051
12.38565	-14.91916	11.27051
12.38984	-14.94113	11.27051
12.39402	-14.94113	11.27051
12.39821	-14.94113	11.27051
12.40250	-14.96310	11.27051
12.40670	-14.96310	11.27051
12.41089	-14.98507	11.27051
12.41507	-14.98507	11.27051
12.41926	-14.98507	11.27051
12.42344	-14.98507	11.27051
12.42762	-14.98507	11.27051
12.43188	-15.00705	11.27051
12.43615	-15.00705	11.27051
12.44034	-15.02902	11.27051
12.44453	-15.02902	11.27051
12.44871	-15.02902	11.27051
12.45298	-15.02902	11.27051
12.45716	-15.05099	11.27051
12.46134	-15.05099	11.27051
12.46565	-15.05099	11.27051
12.46986	-15.07297	11.27051
12.47406	-15.07297	11.27051
12.47826	-15.07297	11.27051
12.48244	-15.07297	11.27051
12.48663	-15.09494	11.27051
12.49081	-15.09494	11.27051
12.49506	-15.09494	11.27051
12.49933	-15.09494	11.27051
12.50353	-15.09494	11.27051
12.50771	-15.09494	11.27051
12.51190	-15.11691	11.27051
12.51608	-15.11691	11.27051
12.52026	-15.11691	11.27051
12.52445	-15.11691	11.27051
12.52876	-15.13888	11.27051
12.53297	-15.13888	11.27051
12.53715	-15.13888	11.27051
12.54134	-15.13888	11.27051
12.54552	-15.13888	11.27051
12.54970	-15.13888	11.27051
12.55404	-15.13888	11.27051
12.55843	-15.16086	11.27051
12.56266	-15.16086	11.27051
12.56687	-15.16086	11.27051
12.57106	-15.16086	11.27051
12.57525	-15.16086	11.27051
12.57945	-15.18283	11.27051
12.58364	-15.18283	11.27051
12.58790	-15.18283	11.27051
12.59219	-15.18283	11.27051
12.59639	-15.18283	11.27051
12.60057	-15.18283	11.27051
12.60477	-15.20480	11.27051
12.60896	-15.20480	11.27051
12.61315	-15.18283	11.27051
12.61733	-15.18283	11.27051
12.62163	-15.20480	11.27051
12.62583	-15.18283	11.27051
12.63002	-15.20480	11.27051
12.63420	-15.20480	11.27051
12.63839	-15.20480	11.27051
12.64257	-15.20480	11.27051
12.64675	-15.20480	11.27051
12.65101	-15.20480	11.27051
12.65539	-15.20480	11.27051
12.65958	-15.20480	11.27051
12.66376	-15.20480	11.27051
12.66797	-15.20480	11.27051
12.67216	-15.20480	11.27051
12.67635	-15.20480	11.27051
12.68054	-15.20480	11.27051
12.68486	-15.20480	11.27051
12.68906	-15.20480	11.27051
12.69325	-15.22677	11.27051
12.69744	-15.20480	11.27051
12.70162	-15.20480	11.27051
12.70580	-15.20480	11.27051
12.70998	-15.20480	11.27051
12.71423	-15.20480	11.27051
12.71850	-15.20480	11.27051
12.72269	-15.20480	11.27051
12.72687	-15.20480	11.27051
12.73105	-15.20480	11.27051
12.73524	-15.20480	11.27051
12.73942	-15.20480	11.27051
12.74360	-15.20480	11.27051
12.74790	-15.18283	11.27051
12.75210	-15.20480	11.27051
12.75639	-15.18283	11.27051
12.76057	-15.20480	11.27051
12.76476	-15.20480	11.27051
12.76896	-15.18283	11.27051
12.77316	-15.18283	11.27051
12.77758	-15.18283	11.27051
12.78180	-15.18283	11.27051
12.78599	-15.18283	11.27051
12.79017	-15.16086	11.27051
12.79436	-15.16086	11.27051
12.79854	-15.18283	11.27051
12.80272	-15.16086	11.27051
12.80697	-15.16086	11.27051
12.81126	-15.16086	11.27051
12.81546	-15.16086	11.27051
12.81965	-15.16086	11.27051
12.82383	-15.16086	11.27051
12.82801	-15.16086	11.27051
12.83220	-15.13888	11.27051
12.83638	-15.13888	11.27051
12.84068	-15.13888	11.27051
12.84489	-15.13888	11.27051
12.84907	-15.13888	11.27051
12.85326	-15.11691	11.27051
12.85754	-15.11691	11.27051
12.86173	-15.11691	11.27051
12.86591	-15.11691	11.27051
12.87018	-15.11691	11.27051
12.87446	-15.11691	11.27051
12.87865	-15.09494	11.27051
12.88284	-15.09494	11.27051
12.88702	-15.09494	11.27051
12.89121	-15.09494	11.27051
12.89539	-15.09494	11.27051
12.89958	-15.09494	11.27051
12.90387	-15.09494	11.27051
12.90807	-15.07297	11.27051
12.91226	-15.07297	11.27051
12.91644	-15.07297	11.27051
12.92062	-15.07297	11.27051
12.92482	-15.07297	11.27051
12.92900	-15.07297	11.27051
12.93326	-15.07297	11.27051
12.93753	-15.05099	11.27051
12.94172	-15.05099	11.27051
12.94591	-15.05099	11.27051
12.95009	-15.02902	11.27051
12.95428	-15.02902	11.27051
12.95856	-15.02902	11.27051
12.96275	-15.02902	11.27051
12.96706	-15.00705	11.27051
12.97127	-15.00705	11.27051
12.97546	-15.00705	11.27051
12.97964	-15.00705	11.27051
12.98384	-14.98507	11.27051
12.98803	-15.00705	11.27051
12.99221	-14.98507	11.27051
12.99646	-14.98507	11.27051
13.00076	-14.98507	11.27051
13.00496	-14.98507	11.27051
13.00915	-14.98507	11.27051
13.01333	-14.98507	11.27051
13.01751	-14.96310	11.27051
13.02170	-14.96310	11.27051
13.02588	-14.96310	11.27051
13.03017	-14.94113	11.27051
13.03437	-14.94113	11.27051
13.03856	-14.94113	11.27051
13.04274	-14.91916	11.27051
13.04693	-14.91916	11.27051
13.05111	-14.91916	11.27051
13.05529	-14.91916	11.27051
13.05965	-14.91916	11.27051
13.06393	-14.91916	11.27051
13.06814	-14.91916	11.27051
13.07233	-14.91916	11.27051
13.07652	-14.91916	11.27051
13.08072	-14.89718	11.27051
13.08488	-14.89718	11.27051
13.08907	-14.89718	11.27051
13.09337	-14.89718	11.27051
13.09756	-14.89718	11.27051
13.10175	-14.87521	11.27051
13.10594	-14.87521	11.27051
13.11012	-14.89718	11.27051
13.11430	-14.87521	11.27051
13.11848	-14.87521	11.27051
13.12273	-14.87521	11.27051
13.12700	-14.87521	11.27051
13.13119	-14.87521	11.27051
13.13538	-14.87521	11.27051
13.13957	-14.87521	11.27051
13.14375	-14.85324	11.27051
13.14793	-14.85324	11.27051
13.15212	-14.85324	11.27051
13.15642	-14.85324	11.27051
13.16072	-14.87521	11.27051
13.16488	-14.85324	11.27051
13.16908	-14.85324	11.27051
13.17327	-14.85324	11.27051
13.17746	-14.85324	11.27051
13.18165	-14.85324	11.27051
13.18604	-14.85324	11.27051
13.19026	-14.85324	11.27051
13.19445	-14.85324	11.27051
13.19864	-14.85324	11.27051
13.20282	-14.85324	11.27051
13.20701	-14.85324	11.27051
13.21119	-14.85324	11.27051
13.21543	-14.85324	11.27051
13.21971	-14.85324	11.27051
13.22391	-14.85324	11.27051
13.22810	-14.85324	11.27051
13.23229	-14.85324	11.27051
13.23648	-14.85324	11.27051
13.24067	-14.85324	11.27051
13.24486	-14.85324	11.27051
13.24917	-14.85324	11.27051
13.25337	-14.85324	11.27051
13.25756	-14.85324	11.27051
13.26185	-14.85324	11.27051
13.26603	-14.85324	11.27051
13.27023	-14.85324	11.27051
13.27442	-14.85324	11.27051
13.27868	-14.85324	11.27051
13.28295	-14.87521	11.27051
13.28716	-14.87521	11.27051
13.29135	-14.85324	11.27051
13.29555	-14.87521	11.27051
13.29974	-14.87521	11.27051
13.30393	-14.87521	11.27051
13.30811	-14.87521	11.27051
13.31243	-14.87521	11.27051
13.31664	-14.87521	11.27051
13.32083	-14.87521	11.27051
13.32502	-14.87521	11.27051
13.32920	-14.89718	11.27051
13.33339	-14.89718	11.27051
13.33757	-14.89718	11.27051
13.34183	-14.89718	11.27051
13.34611	-14.89718	11.27051
13.35032	-14.89718	11.27051
13.35451	-14.91916	11.27051
13.35870	-14.91916	11.27051
13.36299	-14.91916	11.27051
13.36718	-14.91916	11.27051
13.37138	-14.91916	11.27051
13.37569	-14.91916	11.27051
13.37989	-14.94113	11.27051
13.38407	-14.94113	11.27051
13.38827	-14.94113	11.27051
13.39246	-14.94113	11.27051
13.39665	-14.94113	11.27051
13.40084	-14.96310	11.27051
13.40524	-14.96310	11.27051
13.40946	-14.96310	11.27051
13.41365	-14.98507	11.27051
13.41783	-14.98507	11.27051
13.42202	-14.98507	11.27051
13.42620	-14.98507	11.27051
13.43038	-14.98507	11.27051
13.43465	-14.98507	11.27051
13.43894	-15.00705	11.27051
13.44315	-15.00705	11.27051
13.44733	-15.00705	11.27051
13.45152	-15.02902	11.27051
13.45571	-15.02902	11.27051
13.45989	-15.02902	11.27051
13.46418	-15.05099	11.27051
13.46850	-15.05099	11.27051
13.47271	-15.05099	11.27051
13.47688	-15.05099	11.27051
13.48106	-15.05099	11.27051
13.48525	-15.07297	11.27051
13.48944	-15.07297	11.27051
13.49363	-15.07297	11.27051
13.49788	-15.07297	11.27051
13.50215	-15.09494	11.27051
13.50634	-15.09494	11.27051
13.51053	-15.11691	11.27051
13.51471	-15.11691	11.27051
13.51889	-15.11691	11.27051
13.52308	-15.11691	11.27051
13.52726	-15.11691	11.27051
13.53155	-15.13888	11.27051
13.53575	-15.16086	11.27051
13.53994	-15.16086	11.27051
13.54412	-15.16086	11.27051
13.54831	-15.16086	11.27051
13.55249	-15.16086	11.27051
13.55667	-15.18283	11.27051
13.56093	-15.18283	11.27051
13.56529	-15.20480	11.27051
13.56951	-15.20480	11.27051
13.57370	-15.20480	11.27051
13.57789	-15.20480	11.27051
13.58207	-15.22677	11.27051
13.58626	-15.22677	11.27051
13.59045	-15.24875	11.27051
13.59474	-15.24875	11.27051
13.59894	-15.27072	11.27051
13.60313	-15.27072	11.27051
13.60731	-15.27072	11.27051
13.61149	-15.27072	11.27051
13.61568	-15.29269	11.27051
13.61986	-15.29269	11.27051
13.62411	-15.31466	11.27051
13.62838	-15.31466	11.27051
13.63258	-15.31466	11.27051
13.63677	-15.33664	11.27051
13.64097	-15.33664	11.27051
13.64515	-15.35861	11.27051
13.64934	-15.35861	11.27051
13.65352	-15.38058	11.27051
13.65783	-15.38058	11.27051
13.66203	-15.38058	11.27051
13.66632	-15.40256	11.27051
13.67052	-15.40256	11.27051
13.67471	-15.40256	11.27051
13.67890	-15.42453	11.27051
13.68309	-15.42453	11.27051
13.68750	-15.44650	11.27051
13.69172	-15.44650	11.27051
13.69591	-15.46847	11.27051
13.70009	-15.46847	11.27051
13.70428	-15.46847	11.27051
13.70846	-15.49045	11.27051
13.71264	-15.51242	11.27051
13.71690	-15.51242	11.27051
13.72118	-15.53439	11.27051
13.72538	-15.53439	11.27051
13.72956	-15.53439	11.27051
13.73375	-15.53439	11.27051
13.73793	-15.55636	11.27051
13.74212	-15.55636	11.27051
13.74630	-15.57834	11.27051
13.75071	-15.57834	11.27051
13.75492	-15.60031	11.27051
13.75910	-15.60031	11.27051
13.76328	-15.62228	11.27051
13.76758	-15.62228	11.27051
13.77178	-15.64425	11.27051
13.77598	-15.64425	11.27051
13.78026	-15.66623	11.27051
13.78456	-15.66623	11.27051
13.78877	-15.66623	11.27051
13.79296	-15.68820	11.27051
13.79714	-15.68820	11.27051
13.80133	-15.71017	11.27051
13.80551	-15.73214	11.27051
13.80970	-15.73214	11.27051
13.81399	-15.75412	11.27051
13.81819	-15.75412	11.27051
13.82238	-15.75412	11.27051
13.82656	-15.77609	11.27051
13.83075	-15.79806	11.27051
13.83493	-15.79806	11.27051
13.83912	-15.79806	11.27051
13.84337	-15.82004	11.27051
13.84763	-15.82004	11.27051
13.85183	-15.84201	11.27051
13.85601	-15.84201	11.27051
13.86020	-15.86398	11.27051
13.86438	-15.88595	11.27051
13.86868	-15.88595	11.27051
13.87288	-15.88595	11.27051
13.87717	-15.90793	11.27051
13.88138	-15.90793	11.27051
13.88556	-15.92990	11.27051
13.88975	-15.92990	11.27051
13.89393	-15.95187	11.27051
13.89811	-15.95187	11.27051
13.90230	-15.97384	11.27051
13.90655	-15.97384	11.27051
13.91082	-15.99582	11.27051
13.91502	-15.99582	11.27051
13.91920	-15.99582	11.27051
13.92339	-16.01779	11.27051
13.92757	-16.01779	11.27051
13.93175	-16.03976	11.27051
13.93594	-16.06173	11.27051
13.94023	-16.06173	11.27051
13.94443	-16.06173	11.27051
13.94862	-16.08371	11.27051
13.95281	-16.08371	11.27051
13.95700	-16.08371	11.27051
13.96118	-16.10568	11.27051
13.96536	-16.10568	11.27051
13.96977	-16.10568	11.27051
13.97404	-16.12765	11.27051
13.97823	-16.12765	11.27051
13.98242	-16.14963	11.27051
13.98660	-16.17160	11.27051
13.99079	-16.17160	11.27051
13.99498	-16.17160	11.27051
13.99916	-16.19357	11.27051
14.00346	-16.19357	11.27051
14.00766	-16.19357	11.27051
14.01184	-16.21554	11.27051
14.01603	-16.21554	11.27051
14.02021	-16.23752	11.27051
14.02439	-16.23752	11.27051
14.02858	-16.23752	11.27051
14.03284	-16.25949	11.27051
14.03711	-16.25949	11.27051
14.04130	-16.25949	11.27051
14.04549	-16.28146	11.27051
14.04967	-16.28146	11.27051
14.05385	-16.28146	11.27051
14.05804	-16.30343	11.27051
14.06222	-16.30343	11.27051
14.06652	-16.30343	11.27051
14.07085	-16.30343	11.27051
14.07504	-16.30343	11.27051
14.07924	-16.30343	11.27051
14.08342	-16.32541	11.27051
14.08761	-16.32541	11.27051
14.09179	-16.34738	11.27051
14.09620	-16.34738	11.27051
14.10043	-16.34738	11.27051
14.10462	-16.34738	11.27051
14.10882	-16.34738	11.27051
14.11301	-16.34738	11.27051
14.11719	-16.36935	11.27051
14.12137	-16.34738	11.27051
14.12561	-16.36935	11.27051
14.12990	-16.36935	11.27051
14.13410	-16.36935	11.27051
14.13828	-16.36935	11.27051
14.14247	-16.39132	11.27051
14.14665	-16.36935	11.27051
14.15083	-16.39132	11.27051
14.15501	-16.39132	11.27051
14.15942	-16.36935	11.27051
14.16364	-16.39132	11.27051
14.16782	-16.39132	11.27051
14.17212	-16.39132	11.27051
14.17631	-16.41330	11.27051
14.18049	-16.41330	11.27051
14.18469	-16.39132	11.27051
14.18894	-16.41330	11.27051
14.19323	-16.39132	11.27051
14.19744	-16.41330	11.27051
14.20163	-16.39132	11.27051
14.20582	-16.39132	11.27051
14.21000	-16.39132	11.27051
14.21418	-16.41330	11.27051
14.21837	-16.39132	11.27051
14.22266	-16.39132	11.27051
14.22687	-16.39132	11.27051
14.23106	-16.39132	11.27051
14.23526	-16.39132	11.27051
14.23946	-16.39132	11.27051
14.24366	-16.39132	11.27051
14.24785	-16.39132	11.27051
14.25213	-16.39132	11.27051
14.25640	-16.39132	11.27051
14.26060	-16.39132	11.27051
14.26480	-16.36935	11.27051
14.26900	-16.36935	11.27051
14.27329	-16.36935	11.27051
14.27747	-16.34738	11.27051
14.28166	-16.36935	11.27051
14.28596	-16.36935	11.27051
14.29016	-16.34738	11.27051
14.29435	-16.34738	11.27051
14.29855	-16.34738	11.27051
14.30275	-16.32541	11.27051
14.30694	-16.34738	11.27051
14.31113	-16.34738	11.27051
14.31538	-16.32541	11.27051
14.31966	-16.32541	11.27051
14.32386	-16.32541	11.27051
14.32805	-16.30343	11.27051
14.33223	-16.30343	11.27051
14.33641	-16.30343	11.27051
14.34060	-16.30343	11.27051
14.34479	-16.30343	11.27051
14.34909	-16.28146	11.27051
14.35330	-16.28146	11.27051
14.35748	-16.28146	11.27051
14.36167	-16.25949	11.27051
14.36586	-16.25949	11.27051
14.37006	-16.25949	11.27051
14.37436	-16.23752	11.27051
14.37875	-16.23752	11.27051
14.38299	-16.23752	11.27051
14.38718	-16.21554	11.27051
14.39136	-16.21554	11.27051
14.39555	-16.21554	11.27051
14.39973	-16.21554	11.27051
14.40392	-16.19357	11.27051
14.40817	-16.19357	11.27051
14.41246	-16.19357	11.27051
14.41667	-16.17160	11.27051
14.42086	-16.17160	11.27051
14.42505	-16.17160	11.27051
14.42923	-16.14963	11.27051
14.43341	-16.12765	11.27051
14.43760	-16.12765	11.27051
14.44190	-16.12765	11.27051
14.44609	-16.12765	11.27051
14.45028	-16.10568	11.27051
14.45446	-16.10568	11.27051
14.45865	-16.08371	11.27051
14.46283	-16.08371	11.27051
14.46701	-16.08371	11.27051
14.47130	-16.06173	11.27051
14.47575	-16.06173	11.27051
14.47997	-16.06173	11.27051
14.48418	-16.03976	11.27051
14.48839	-16.03976	11.27051
14.49260	-16.01779	11.27051
14.49683	-16.01779	11.27051
14.50270	-15.99582	11.27051
14.50701	-15.99582	11.27051
14.51124	-15.99582	11.27051
14.51544	-15.97384	11.27051
14.51965	-15.95187	11.27051
14.52386	-15.95187	11.27051
14.52807	-15.92990	11.27051
14.53302	-15.92990	11.27051
14.53732	-15.90793	11.27051
14.54152	-15.90793	11.27051
14.54571	-15.90793	11.27051
14.54990	-15.88595	11.27051
14.55409	-15.88595	11.27051
14.55828	-15.86398	11.27051
14.56246	-15.86398	11.27051
14.56676	-15.86398	11.27051
14.57097	-15.86398	11.27051
14.57516	-15.82004	11.27051
14.57945	-15.82004	11.27051
14.58363	-15.82004	11.27051
14.58782	-15.79806	11.27051
14.59200	-15.79806	11.27051
14.59644	-15.79806	11.27051
14.60065	-15.77609	11.27051
14.60485	-15.77609	11.27051
14.60903	-15.75412	11.27051
14.61321	-15.73214	11.27051
14.61740	-15.73214	11.27051
14.62158	-15.73214	11.27051
14.62584	-15.73214	11.27051
14.63012	-15.71017	11.27051
14.63432	-15.68820	11.27051
14.63850	-15.68820	11.27051
14.64268	-15.66623	11.27051
14.64687	-15.66623	11.27051
14.65105	-15.66623	11.27051
14.65524	-15.66623	11.27051
14.65953	-15.64425	11.27051
14.66374	-15.62228	11.27051
14.66792	-15.62228	11.27051
14.67211	-15.62228	11.27051
14.67629	-15.60031	11.27051
14.68058	-15.60031	11.27051
14.68477	-15.57834	11.27051
14.68902	-15.57834	11.27051
14.69329	-15.55636	11.27051
14.69748	-15.55636	11.27051
14.70167	-15.55636	11.27051
14.70585	-15.53439	11.27051
14.71003	-15.53439	11.27051
14.71422	-15.53439	11.27051
14.71841	-15.51242	11.27051
14.72271	-15.51242	11.27051
14.72691	-15.51242	11.27051
14.73110	-15.49045	11.27051
14.73529	-15.49045	11.27051
14.73947	-15.46847	11.27051
14.74366	-15.46847	11.27051
14.74784	-15.46847	11.27051
14.75209	-15.46847	11.27051
14.75636	-15.44650	11.27051
14.76056	-15.44650	11.27051
14.76476	-15.42453	11.27051
14.76895	-15.42453	11.27051
14.77314	-15.42453	11.27051
14.77732	-15.42453	11.27051
14.78161	-15.40256	11.27051
14.78591	-15.40256	11.27051
14.79011	-15.38058	11.27051
14.79430	-15.38058	11.27051
14.79850	-15.38058	11.27051
14.80269	-15.38058	11.27051
14.80687	-15.35861	11.27051
14.81105	-15.35861	11.27051
14.81548	-15.35861	11.27051
14.81969	-15.33664	11.27051
14.82388	-15.31466	11.27051
14.82807	-15.31466	11.27051
14.83226	-15.33664	11.27051
14.83645	-15.31466	11.27051
14.84063	-15.31466	11.27051
14.84493	-15.31466	11.27051
14.84921	-15.29269	11.27051
14.85341	-15.29269	11.27051
14.85759	-15.29269	11.27051
14.86178	-15.29269	11.27051
14.86597	-15.27072	11.27051
14.87016	-15.27072	11.27051
14.87434	-15.27072	11.27051
14.87864	-15.24875	11.27051
14.88296	-15.24875	11.27051
14.88715	-15.24875	11.27051
14.89133	-15.24875	11.27051
14.89552	-15.24875	11.27051
14.89971	-15.22677	11.27051
14.90392	-15.22677	11.27051
14.90819	-15.22677	11.27051
14.91247	-15.22677	11.27051
14.91667	-15.22677	11.27051
14.92088	-15.20480	11.27051
14.92507	-15.20480	11.27051
14.92926	-15.20480	11.27051
14.93345	-15.20480	11.27051
14.93764	-15.20480	11.27051
14.94194	-15.20480	11.27051
14.94615	-15.18283	11.27051
14.95034	-15.18283	11.27051
14.95453	-15.16086	11.27051
14.95872	-15.16086	11.27051
14.96291	-15.18283	11.27051
14.96710	-15.16086	11.27051
14.97153	-15.13888	11.27051
14.97574	-15.16086	11.27051
14.97994	-15.13888	11.27051
14.98424	-15.13888	11.27051
14.98843	-15.13888	11.27051
14.99262	-15.13888	11.27051
14.99681	-15.13888	11.27051
15.00164	-15.13888	3.48888
15.00586	-15.11691	3.48888
15.01005	-15.11691	3.48888
15.01423	-15.11691	3.48888
15.01842	-15.11691	3.48888
15.02260	-15.11691	3.48888
15.02678	-15.11691	3.48888
15.03097	-15.09494	3.48888
15.03526	-15.09494	3.48888
15.03945	-15.09494	3.48888
15.04364	-15.07297	3.48888
15.04782	-15.09494	3.48888
15.05200	-15.07297	3.48888
15.05618	-15.07297	3.48888
15.06037	-15.07297	3.48888
15.06482	-15.05099	3.48888
15.06903	-15.05099	3.48888
15.07321	-15.07297	3.48888
15.07739	-15.05099	3.48888
15.08158	-15.05099	3.48888
15.08576	-15.02902	3.48888
15.08994	-15.02902	3.48888
15.09419	-15.02902	3.48888
15.09846	-15.02902	3.48888
15.10277	-15.00705	3.48888
15.10696	-15.00705	3.48888
15.11114	-14.98507	3.48888
15.11532	-14.98507	3.48888
15.11950	-14.98507	3.48888
15.12368	-14.96310	3.48888
15.12798	-14.96310	3.48888
15.13218	-14.96310	3.48888
15.13637	-14.91916	3.48888
15.14055	-14.91916	3.48888
15.14475	-14.89718	3.48888
15.14893	-14.89718	3.48888
15.15311	-14.89718	3.48888
15.15737	-14.87521	3.48888
15.16162	-14.85324	3.48888
15.16582	-14.83127	3.48888
15.17000	-14.80929	3.48888
15.17419	-14.78732	3.48888
15.17838	-14.78732	3.48888
15.18256	-14.76535	3.48888
15.18675	-14.74338	3.48888
15.19105	-14.72140	3.48888
15.19525	-14.69943	3.48888
15.19944	-14.69943	3.48888
15.20374	-14.67746	3.48888
15.20792	-14.65548	3.48888
15.21210	-14.63351	3.48888
15.21629	-14.61154	3.48888
15.22072	-14.56759	3.48888
15.22489	-14.56759	3.48888
15.22907	-14.52365	3.48888
15.23329	-14.50168	3.48888
15.23749	-14.47970	3.48888
15.24168	-14.41379	3.48888
15.24587	-14.39181	3.48888
15.25017	-14.39181	3.48888
15.25445	-14.36984	3.48888
15.25864	-14.32589	3.48888
15.26283	-14.30392	3.48888
15.26702	-14.25998	3.48888
15.27120	-14.21603	3.48888
15.27539	-14.17209	3.48888
15.27957	-14.17209	3.48888
15.28388	-14.12814	3.48888
15.28808	-14.08420	3.48888
15.29226	-14.04025	3.48888
15.29644	-13.99631	3.48888
15.30063	-13.97433	3.48888
15.30494	-13.97433	3.48888
15.30912	-13.93039	3.48888
15.31338	-13.86447	3.48888
15.31766	-13.82052	3.48888
15.32186	-13.77658	3.48888
15.32604	-13.73263	3.48888
15.33022	-13.73263	3.48888
15.33442	-13.68869	3.48888
15.33861	-13.62277	3.48888
15.34279	-13.57882	3.48888
15.34709	-13.53488	3.48888
15.35135	-13.46896	3.48888
15.35554	-13.42502	3.48888
15.35973	-13.42502	3.48888
15.36391	-13.38107	3.48888
15.36809	-13.31515	3.48888
15.37228	-13.24923	3.48888
15.37670	-13.20529	3.48888
15.38089	-13.13937	3.48888
15.38508	-13.09543	3.48888
15.38927	-13.09543	3.48888
15.39345	-13.02951	3.48888
15.39764	-12.96359	3.48888
15.40182	-12.91964	3.48888
15.40622	-12.85373	3.48888
15.41050	-12.78781	3.48888
15.41469	-12.78781	3.48888
15.41888	-12.72189	3.48888
15.42306	-12.65597	3.48888
15.42725	-12.59006	3.48888
15.43143	-12.52414	3.48888
15.43561	-12.45822	3.48888
15.43990	-12.45822	3.48888
15.44411	-12.39230	3.48888
15.44829	-12.32638	3.48888
15.45248	-12.26047	3.48888
15.45668	-12.19455	3.48888
15.46088	-12.12863	3.48888
15.46507	-12.12863	3.48888
15.46950	-12.06271	3.48888
15.47371	-11.97482	3.48888
15.47789	-11.90890	3.48888
15.48208	-11.84298	3.48888
15.48626	-11.84298	3.48888
15.49045	-11.75509	3.48888
15.49463	-11.68918	3.48888
15.49890	-11.62326	3.48888
15.50318	-11.53537	3.48888
15.50748	-11.46945	3.48888
15.51166	-11.46945	3.48888
15.51585	-11.40353	3.48888
15.52003	-11.33761	3.48888
15.52422	-11.24972	3.48888
15.52840	-11.18381	3.48888
15.53270	-11.09591	3.48888
15.53689	-11.00802	3.48888
15.54107	-11.00802	3.48888
15.54526	-10.94211	3.48888
15.54944	-10.85422	3.48888
15.55362	-10.78830	3.48888
15.55781	-10.72238	3.48888
15.56206	-10.63449	3.48888
15.56632	-10.56857	3.48888
15.57052	-10.56857	3.48888
15.57471	-10.48068	3.48888
15.57890	-10.39279	3.48888
15.58308	-10.32687	3.48888
15.58726	-10.23898	3.48888
15.59145	-10.23898	3.48888
15.59574	-10.15109	3.48888
15.59995	-10.06320	3.48888
15.60414	-9.99728	3.48888
15.60843	-9.90939	3.48888
15.61262	-9.84347	3.48888
15.61681	-9.75558	3.48888
15.62099	-9.75558	3.48888
15.62541	-9.66769	3.48888
15.62961	-9.57980	3.48888
15.63380	-9.51388	3.48888
15.63798	-9.42599	3.48888
15.64217	-9.33810	3.48888
15.64635	-9.27218	3.48888
15.65053	-9.27218	3.48888
15.65479	-9.18429	3.48888
15.65906	-9.09640	3.48888
15.66326	-9.00851	3.48888
15.66745	-8.92062	3.48888
15.67163	-8.92062	3.48888
15.67581	-8.85470	3.48888
15.67999	-8.74484	3.48888
15.68418	-8.67892	3.48888
15.68848	-8.61300	3.48888
15.69268	-8.52511	3.48888
15.69687	-8.43722	3.48888
15.70106	-8.43722	3.48888
15.70524	-8.34933	3.48888
15.70952	-8.26144	3.48888
15.71371	-8.17355	3.48888
15.71796	-8.08566	3.48888
15.72222	-7.99777	3.48888
15.72640	-7.99777	3.48888
15.73059	-7.93185	3.48888
15.73477	-7.84396	3.48888
15.73896	-7.75607	3.48888
15.74314	-7.66818	3.48888
15.74732	-7.66818	3.48888
15.75161	-7.58029	3.48888
15.75581	-7.49240	3.48888
15.76000	-7.40451	3.48888
15.76418	-7.31662	3.48888
15.76837	-7.22873	3.48888
15.77255	-7.18478	3.48888
15.77674	-7.18478	3.48888
15.78101	-7.09689	3.48888
15.78526	-7.00900	3.48888
15.78945	-6.92111	3.48888
15.79364	-6.83322	3.48888
15.79782	-6.74533	3.48888
15.80200	-6.74533	3.48888
15.80619	-6.65744	3.48888
15.81047	-6.59152	3.48888
15.81476	-6.50363	3.48888
15.81896	-6.43771	3.48888
15.82315	-6.34982	3.48888
15.82733	-6.28390	3.48888
15.83151	-6.28390	3.48888
15.83570	-6.19601	3.48888
15.83988	-6.10812	3.48888
15.84430	-6.02023	3.48888
15.84851	-5.95431	3.48888
15.85269	-5.95431	3.48888
15.85687	-5.86642	3.48888
15.86106	-5.80050	3.48888
15.86524	-5.71261	3.48888
15.86942	-5.64670	3.48888
15.87369	-5.55881	3.48888
15.87797	-5.47091	3.48888
15.88216	-5.47091	3.48888
15.88635	-5.40500	3.48888
15.89053	-5.31711	3.48888
15.89472	-5.25119	3.48888
15.89890	-5.18527	3.48888
15.90308	-5.09738	3.48888
15.90738	-5.03146	3.48888
15.91169	-5.03146	3.48888
15.91587	-4.96554	3.48888
15.92006	-4.87765	3.48888
15.92424	-4.78976	3.48888
15.92843	-4.72384	3.48888
15.93261	-4.72384	3.48888
15.93688	-4.63595	3.48888
15.94115	-4.57004	3.48888
15.94535	-4.50412	3.48888
15.94954	-4.43820	3.48888
15.95373	-4.37228	3.48888
15.95791	-4.28439	3.48888
15.96209	-4.28439	3.48888
15.96627	-4.21847	3.48888
15.97057	-4.15256	3.48888
15.97477	-4.06466	3.48888
15.97896	-3.99875	3.48888
15.98314	-3.93283	3.48888
15.98732	-3.93283	3.48888
15.99151	-3.86691	3.48888
15.99569	-3.80099	3.48888
15.99994	-3.71310	3.48888
16.00419	-3.64718	3.48888
16.00838	-3.64718	3.48888
16.01267	-3.58127	3.48888
16.01686	-3.51535	3.48888
16.02104	-3.42746	3.48888
16.02524	-3.38351	3.48888
16.02944	-3.31759	3.48888
16.03374	-3.25168	3.48888
16.03794	-3.25168	3.48888
16.04212	-3.18576	3.48888
16.04631	-3.11984	3.48888
16.05049	-3.03195	3.48888
16.05467	-2.98800	3.48888
16.05885	-2.92209	3.48888
16.06311	-2.92209	3.48888
16.06736	-2.85617	3.48888
16.07156	-2.81222	3.48888
16.07574	-2.74631	3.48888
16.07993	-2.68039	3.48888
16.08412	-2.61447	3.48888
16.08831	-2.61447	3.48888
16.09249	-2.54855	3.48888
16.09680	-2.48263	3.48888
16.10100	-2.43869	3.48888
16.10519	-2.35080	3.48888
16.10937	-2.30685	3.48888
16.11365	-2.26291	3.48888
16.11784	-2.26291	3.48888
16.12203	-2.19699	3.48888
16.12645	-2.15304	3.48888
16.13067	-2.08713	3.48888
16.13486	-2.04318	3.48888
16.13905	-1.97726	3.48888
16.14323	-1.97726	3.48888
16.14741	-1.93332	3.48888
16.15160	-1.86740	3.48888
16.15585	-1.82345	3.48888
16.16013	-1.75754	3.48888
16.16433	-1.71359	3.48888
16.16852	-1.66964	3.48888
16.17270	-1.66964	3.48888
16.17687	-1.60373	3.48888
16.18105	-1.55978	3.48888
16.18524	-1.51584	3.48888
16.18952	-1.47189	3.48888
16.19372	-1.47189	3.48888
16.19791	-1.40597	3.48888
16.20209	-1.38400	3.48888
16.20627	-1.31808	3.48888
16.21046	-1.27414	3.48888
16.21475	-1.23019	3.48888
16.21899	-1.18625	3.48888
16.22325	-1.18625	3.48888
16.22744	-1.14230	3.48888
16.23163	-1.09836	3.48888
16.23586	-1.05441	3.48888
16.24006	-1.01047	3.48888
16.24424	-0.96652	3.48888
16.24843	-0.96652	3.48888
16.25275	-0.92257	3.48888
16.25696	-0.90060	3.48888
16.26114	-0.85666	3.48888
16.26533	-0.81271	3.48888
16.26952	-0.81271	3.48888
16.27370	-0.76877	3.48888
16.27788	-0.74679	3.48888
16.28230	-0.70285	3.48888
16.28651	-0.68088	3.48888
16.29070	-0.65890	3.48888
16.29488	-0.61496	3.48888
16.29907	-0.61496	3.48888
16.30325	-0.59298	3.48888
16.30743	-0.54904	3.48888
16.31170	-0.52707	3.48888
16.31609	-0.48312	3.48888
16.32030	-0.46115	3.48888
16.32449	-0.43918	3.48888
16.32868	-0.43918	3.48888
16.33287	-0.41720	3.48888
16.33705	-0.39523	3.48888
16.34124	-0.37326	3.48888
16.34553	-0.32931	3.48888
16.34974	-0.32931	3.48888
16.35395	-0.32931	3.48888
16.35814	-0.28537	3.48888
16.36233	-0.26339	3.48888
16.36651	-0.26339	3.48888
16.37071	-0.24142	3.48888
16.37515	-0.21945	3.48888
16.37937	-0.19748	3.48888
16.38357	-0.19748	3.48888
16.38776	-0.17550	3.48888
16.39194	-0.15353	3.48888
16.39613	-0.15353	3.48888
16.40031	-0.13156	3.48888
16.40457	-0.13156	3.48888
16.40887	-0.10959	3.48888
16.41307	-0.10959	3.48888
16.41737	-0.08761	3.48888
16.42155	-0.06564	3.48888
16.42574	-0.06564	3.48888
16.42992	-0.04367	3.48888
16.43411	-0.04367	3.48888
16.43840	-0.04367	3.48888
16.44261	-0.04367	3.48888
16.44680	-0.02170	3.48888
16.45098	-0.02170	3.48888
16.45520	0.00028	3.48888
16.45939	0.00028	3.48888
16.46358	0.00028	3.48888
16.46802	0.00028	3.48888
16.47223	0.00028	3.48888
16.47642	0.00028	3.48888
16.48061	0.02225	3.48888
16.48481	0.02225	3.48888
16.48899	0.02225	3.48888
16.49318	0.02225	3.48888
16.49744	0.02225	3.48888
16.50173	0.02225	3.48888
16.50592	0.02225	3.48888
16.51011	0.02225	3.48888
16.51432	0.00028	3.48888
16.51861	0.00028	3.48888
16.52280	0.00028	3.48888
16.52699	0.00028	3.48888
16.53128	0.00028	3.48888
16.53549	0.00028	3.48888
16.53967	0.00028	3.48888
16.54386	-0.02170	3.48888
16.54804	-0.02170	3.48888
16.55223	-0.02170	3.48888
16.55644	-0.04367	3.48888
16.56091	-0.04367	3.48888
16.56512	-0.04367	3.48888
16.56932	-0.06564	3.48888
16.57350	-0.06564	3.48888
16.57769	-0.08761	3.48888
16.58187	-0.08761	3.48888
16.58606	-0.10959	3.48888
16.59032	-0.13156	3.48888
16.59460	-0.13156	3.48888
16.59880	-0.13156	3.48888
16.60299	-0.15353	3.48888
16.60717	-0.15353	3.48888
16.61135	-0.17550	3.48888
16.61554	-0.17550	3.48888
16.61982	-0.19748	3.48888
16.62412	-0.21945	3.48888
16.62832	-0.21945	3.48888
16.63251	-0.24142	3.48888
16.63669	-0.26339	3.48888
16.64087	-0.28537	3.48888
16.64505	-0.28537	3.48888
16.64924	-0.30734	3.48888
16.65349	-0.32931	3.48888
16.65775	-0.35129	3.48888
16.66194	-0.37326	3.48888
16.66612	-0.39523	3.48888
16.67030	-0.41720	3.48888
16.67449	-0.41720	3.48888
16.67867	-0.43918	3.48888
16.68285	-0.46115	3.48888
16.68715	-0.48312	3.48888
16.69134	-0.50509	3.48888
16.69553	-0.50509	3.48888
16.69971	-0.54904	3.48888
16.70390	-0.57101	3.48888
16.70808	-0.59298	3.48888
16.71226	-0.61496	3.48888
16.71651	-0.63693	3.48888
16.72089	-0.65890	3.48888
16.72507	-0.65890	3.48888
16.72926	-0.70285	3.48888
16.73344	-0.72482	3.48888
16.73762	-0.74679	3.48888
16.74181	-0.79074	3.48888
16.74599	-0.81271	3.48888
16.75028	-0.81271	3.48888
16.75448	-0.83468	3.48888
16.75866	-0.87863	3.48888
16.76284	-0.92257	3.48888
16.76703	-0.94455	3.48888
16.77121	-0.94455	3.48888
16.77540	-0.98849	3.48888
16.77965	-1.01047	3.48888
16.78390	-1.05441	3.48888
16.78809	-1.07638	3.48888
16.79228	-1.12033	3.48888
16.79647	-1.14230	3.48888
16.80066	-1.14230	3.48888
16.80485	-1.18625	3.48888
16.80904	-1.23019	3.48888
16.81333	-1.27414	3.48888
16.81753	-1.29611	3.48888
16.82181	-1.34006	3.48888
16.82600	-1.34006	3.48888
16.83018	-1.38400	3.48888
16.83436	-1.40597	3.48888
16.83854	-1.44992	3.48888
16.84295	-1.49386	3.48888
16.84717	-1.51584	3.48888
16.85135	-1.51584	3.48888
16.85554	-1.55978	3.48888
16.85972	-1.60373	3.48888
16.86390	-1.64767	3.48888
16.86808	-1.69162	3.48888
16.87235	-1.73556	3.48888
16.87663	-1.73556	3.48888
16.88083	-1.77951	3.48888
16.88505	-1.80148	3.48888
16.88924	-1.86740	3.48888
16.89343	-1.88937	3.48888
16.89761	-1.93332	3.48888
16.90180	-1.97726	3.48888
16.90610	-1.97726	3.48888
16.91029	-2.04318	3.48888
16.91448	-2.08713	3.48888
16.91866	-2.13107	3.48888
16.92295	-2.15304	3.48888
16.92713	-2.21896	3.48888
16.93131	-2.26291	3.48888
16.93556	-2.26291	3.48888
16.93983	-2.30685	3.48888
16.94402	-2.35080	3.48888
16.94821	-2.39474	3.48888
16.95240	-2.46066	3.48888
16.95658	-2.46066	3.48888
16.96078	-2.48263	3.48888
16.96497	-2.54855	3.48888
16.96926	-2.59250	3.48888
16.97347	-2.63644	3.48888
16.97765	-2.68039	3.48888
16.98184	-2.72433	3.48888
16.98603	-2.72433	3.48888
16.99021	-2.79025	3.48888
16.99440	-2.83420	3.48888
16.99865	-2.87814	3.48888
17.00292	-2.94406	3.48888
17.00711	-2.98800	3.48888
17.01129	-2.98800	3.48888
17.01548	-3.03195	3.48888
17.01967	-3.09787	3.48888
17.02396	-3.14181	3.48888
17.02814	-3.20773	3.48888
17.03244	-3.20773	3.48888
17.03664	-3.25168	3.48888
17.04084	-3.31759	3.48888
17.04502	-3.36154	3.48888
17.04921	-3.42746	3.48888
17.05339	-3.47140	3.48888
17.05758	-3.51535	3.48888
17.06184	-3.51535	3.48888
17.06610	-3.55929	3.48888
17.07029	-3.62521	3.48888
17.07447	-3.69113	3.48888
17.07866	-3.73507	3.48888
17.08290	-3.80099	3.48888
17.08709	-3.80099	3.48888
17.09128	-3.84494	3.48888
17.09558	-3.88888	3.48888
17.09979	-3.95480	3.48888
17.10398	-3.99875	3.48888
17.10816	-4.06466	3.48888
17.11235	-4.06466	3.48888
17.11654	-4.13058	3.48888
17.12073	-4.17453	3.48888
17.12505	-4.24045	3.48888
17.12929	-4.28439	3.48888
17.13349	-4.35031	3.48888
17.13767	-4.39425	3.48888
17.14186	-4.39425	3.48888
17.14604	-4.46017	3.48888
17.15022	-4.50412	3.48888
17.15441	-4.57004	3.48888
17.15870	-4.61398	3.48888
17.16290	-4.67990	3.48888
17.16709	-4.67990	3.48888
17.17127	-4.74582	3.48888
17.17546	-4.78976	3.48888
17.17964	-4.83371	3.48888
17.18382	-4.89963	3.48888
17.18808	-4.94357	3.48888
17.19234	-4.94357	3.48888
17.19653	-5.00949	3.48888
17.20072	-5.07541	3.48888
17.20487	-5.11935	3.48888
17.20905	-5.18527	3.48888
17.21324	-5.22922	3.48888
17.21742	-5.22922	3.48888
17.22171	-5.29513	3.48888
17.22601	-5.33908	3.48888
17.23020	-5.38302	3.48888
17.23441	-5.44894	3.48888
17.23862	-5.51486	3.48888
17.24281	-5.55881	3.48888
17.24700	-5.55881	3.48888
17.25145	-5.62472	3.48888
17.25566	-5.66867	3.48888
17.25985	-5.71261	3.48888
17.26404	-5.77853	3.48888
17.26822	-5.84445	3.48888
17.27241	-5.84445	3.48888
17.27659	-5.88839	3.48888
17.28088	-5.95431	3.48888
17.28516	-5.99826	3.48888
17.28936	-6.06418	3.48888
17.29355	-6.06418	3.48888
17.29774	-6.10812	3.48888
17.30196	-6.15207	3.48888
17.30615	-6.21798	3.48888
17.31033	-6.26193	3.48888
17.31464	-6.30588	3.48888
17.31885	-6.37179	3.48888
17.32303	-6.37179	3.48888
17.32732	-6.41574	3.48888
17.33151	-6.45968	3.48888
17.33570	-6.52560	3.48888
17.33988	-6.56955	3.48888
17.34414	-6.63547	3.48888
17.34841	-6.65744	3.48888
17.35265	-6.65744	3.48888
17.35685	-6.72336	3.48888
17.36104	-6.76730	3.48888
17.36523	-6.81125	3.48888
17.36942	-6.85519	3.48888
17.37360	-6.85519	3.48888
17.37790	-6.89914	3.48888
17.38211	-6.96506	3.48888
17.38630	-7.00900	3.48888
17.39049	-7.05295	3.48888
17.39467	-7.09689	3.48888
17.39885	-7.14084	3.48888
17.40304	-7.14084	3.48888
17.40746	-7.18478	3.48888
17.41167	-7.22873	3.48888
17.41586	-7.29464	3.48888
17.42006	-7.33859	3.48888
17.42424	-7.38254	3.48888
17.42853	-7.38254	3.48888
17.43271	-7.42648	3.48888
17.43695	-7.47043	3.48888
17.44123	-7.51437	3.48888
17.44543	-7.55832	3.48888
17.44962	-7.60226	3.48888
17.45380	-7.62423	3.48888
17.45801	-7.62423	3.48888
17.46220	-7.69015	3.48888
17.46639	-7.73410	3.48888
17.47070	-7.77804	3.48888
17.47491	-7.82199	3.48888
17.47909	-7.84396	3.48888
17.48328	-7.88791	3.48888
17.48746	-7.88791	3.48888
17.49165	-7.93185	3.48888
17.49583	-7.97580	3.48888
17.50008	-7.99777	3.48888
17.50434	-8.04172	3.48888
17.50853	-8.04172	3.48888
17.51272	-8.08566	3.48888
17.51687	-8.12961	3.48888
17.52106	-8.17355	3.48888
17.52524	-8.19552	3.48888
17.52953	-8.23947	3.48888
17.53382	-8.23947	3.48888
17.53802	-8.28341	3.48888
17.54220	-8.32736	3.48888
17.54639	-8.34933	3.48888
17.55057	-8.39328	3.48888
17.55476	-8.39328	3.48888
17.55894	-8.41525	3.48888
17.56336	-8.45920	3.48888
17.56757	-8.48117	3.48888
17.57176	-8.52511	3.48888
17.57594	-8.54709	3.48888
17.58013	-8.59103	3.48888
17.58431	-8.59103	3.48888
17.58850	-8.61300	3.48888
17.59277	-8.65695	3.48888
17.59707	-8.67892	3.48888
17.60127	-8.72287	3.48888
17.60546	-8.74484	3.48888
17.60964	-8.76681	3.48888
17.61383	-8.76681	3.48888
17.61801	-8.81076	3.48888
17.62220	-8.83273	3.48888
17.62651	-8.85470	3.48888
17.63082	-8.89865	3.48888
17.63500	-8.92062	3.48888
17.63919	-8.92062	3.48888
17.64338	-8.94259	3.48888
17.64756	-8.96457	3.48888
17.65175	-8.98654	3.48888
17.65600	-9.00851	3.48888
17.66027	-9.03048	3.48888
17.66448	-9.07443	3.48888
17.66866	-9.07443	3.48888
17.67286	-9.09640	3.48888
17.67704	-9.11838	3.48888
17.68123	-9.14035	3.48888
17.68541	-9.16232	3.48888
17.68971	-9.16232	3.48888
17.69390	-9.16232	3.48888
17.69809	-9.20627	3.48888
17.70228	-9.20627	3.48888
17.70646	-9.22824	3.48888
17.71065	-9.25021	3.48888
17.71483	-9.27218	3.48888
17.71909	-9.27218	3.48888
17.72335	-9.29416	3.48888
17.72755	-9.31613	3.48888
17.73183	-9.33810	3.48888
17.73602	-9.33810	3.48888
17.74020	-9.36007	3.48888
17.74439	-9.38205	3.48888
17.74857	-9.38205	3.48888
17.75288	-9.38205	3.48888
17.75708	-9.40402	3.48888
17.76127	-9.42599	3.48888
17.76546	-9.42599	3.48888
17.76964	-9.42599	3.48888
17.77383	-9.44797	3.48888
17.77801	-9.44797	3.48888
17.78226	-9.46994	3.48888
17.78652	-9.46994	3.48888
17.79071	-9.49191	3.48888
17.79490	-9.49191	3.48888
17.79908	-9.51388	3.48888
17.80327	-9.51388	3.48888
17.80745	-9.53586	3.48888
17.81163	-9.53586	3.48888
17.81592	-9.53586	3.48888
17.82012	-9.55783	3.48888
17.82432	-9.55783	3.48888
17.82850	-9.55783	3.48888
17.83280	-9.57980	3.48888
17.83699	-9.57980	3.48888
17.84117	-9.57980	3.48888
17.84559	-9.57980	3.48888
17.84980	-9.57980	3.48888
17.85399	-9.60177	3.48888
17.85817	-9.60177	3.48888
17.86235	-9.60177	3.48888
17.86654	-9.60177	3.48888
17.87072	-9.60177	3.48888
17.87498	-9.60177	3.48888
17.87926	-9.60177	3.48888
17.88346	-9.62375	3.48888
17.88764	-9.62375	3.48888
17.89183	-9.62375	3.48888
17.89601	-9.62375	3.48888
17.90019	-9.62375	3.48888
17.90438	-9.62375	3.48888
17.90867	-9.62375	3.48888
17.91290	-9.62375	3.48888
17.91709	-9.62375	3.48888
17.92127	-9.62375	3.48888
17.92546	-9.62375	3.48888
17.92964	-9.62375	3.48888
17.93393	-9.62375	3.48888
17.93818	-9.62375	3.48888
17.94244	-9.62375	3.48888
17.94664	-9.62375	3.48888
17.95083	-9.60177	3.48888
17.95501	-9.60177	3.48888
17.95920	-9.60177	3.48888
17.96338	-9.60177	3.48888
17.96756	-9.57980	3.48888
17.97186	-9.60177	3.48888
17.97607	-9.57980	3.48888
17.98026	-9.57980	3.48888
17.98444	-9.57980	3.48888
17.98863	-9.57980	3.48888
17.99282	-9.57980	3.48888
17.99701	-9.55783	3.48888
18.00144	-9.55783	3.48888
18.00564	-9.53586	3.48888
18.00983	-9.53586	3.48888
18.01401	-9.53586	3.48888
18.01820	-9.53586	3.48888
18.02238	-9.51388	3.48888
18.02657	-9.51388	3.48888
18.03082	-9.51388	3.48888
18.03520	-9.51388	3.48888
18.03939	-9.49191	3.48888
18.04357	-9.49191	3.48888
18.04776	-9.46994	3.48888
18.05194	-9.46994	3.48888
18.05613	-9.46994	3.48888
18.06031	-9.44797	3.48888
18.06461	-9.42599	3.48888
18.06883	-9.42599	3.48888
18.07301	-9.40402	3.48888
18.07720	-9.40402	3.48888
18.08138	-9.38205	3.48888
18.08556	-9.38205	3.48888
18.08975	-9.38205	3.48888
18.09400	-9.36007	3.48888
18.09827	-9.36007	3.48888
18.10247	-9.33810	3.48888
18.10665	-9.33810	3.48888
18.11083	-9.31613	3.48888
18.11502	-9.31613	3.48888
18.11920	-9.27218	3.48888
18.12338	-9.27218	3.48888
18.12768	-9.25021	3.48888
18.13189	-9.25021	3.48888
18.13617	-9.25021	3.48888
18.14036	-9.20627	3.48888
18.14454	-9.20627	3.48888
18.14872	-9.20627	3.48888
18.15287	-9.16232	3.48888
18.15729	-9.14035	3.48888
18.16150	-9.14035	3.48888
18.16569	-9.14035	3.48888
18.16988	-9.11838	3.48888
18.17406	-9.09640	3.48888
18.17824	-9.07443	3.48888
18.18243	-9.05246	3.48888
18.18669	-9.05246	3.48888
18.19097	-9.05246	3.48888
18.19517	-9.03048	3.48888
18.19935	-9.00851	3.48888
18.20354	-8.98654	3.48888
18.20772	-8.96457	3.48888
18.21190	-8.96457	3.48888
18.21609	-8.96457	3.48888
18.22038	-8.94259	3.48888
18.22458	-8.92062	3.48888
18.22879	-8.89865	3.48888
18.23298	-8.87668	3.48888
18.23732	-8.83273	3.48888
18.24151	-8.83273	3.48888
18.24570	-8.83273	3.48888
18.25016	-8.81076	3.48888
18.25437	-8.78879	3.48888
18.25856	-8.76681	3.48888
18.26275	-8.74484	3.48888
18.26694	-8.72287	3.48888
18.27113	-8.72287	3.48888
18.27531	-8.70089	3.48888
18.27957	-8.67892	3.48888
18.28383	-8.65695	3.48888
18.28802	-8.63498	3.48888
18.29220	-8.63498	3.48888
18.29639	-8.61300	3.48888
18.30058	-8.59103	3.48888
18.30477	-8.56906	3.48888
18.30896	-8.54709	3.48888
18.31325	-8.52511	3.48888
18.31745	-8.52511	3.48888
18.32164	-8.50314	3.48888
18.32582	-8.48117	3.48888
18.33001	-8.43722	3.48888
18.33419	-8.43722	3.48888
18.33847	-8.41525	3.48888
18.34289	-8.39328	3.48888
18.34710	-8.39328	3.48888
18.35132	-8.34933	3.48888
18.35551	-8.32736	3.48888
18.35970	-8.30539	3.48888
18.36388	-8.28341	3.48888
18.36807	-8.26144	3.48888
18.37231	-8.23947	3.48888
18.37660	-8.23947	3.48888
18.38081	-8.21750	3.48888
18.38500	-8.19552	3.48888
18.38918	-8.17355	3.48888
18.39337	-8.15158	3.48888
18.39755	-8.15158	3.48888
18.40173	-8.12961	3.48888
18.40603	-8.08566	3.48888
18.41023	-8.06369	3.48888
18.41442	-8.06369	3.48888
18.41861	-8.01974	3.48888
18.42279	-7.99777	3.48888
18.42697	-7.99777	3.48888
18.43116	-7.97580	3.48888
18.43542	-7.95382	3.48888
18.43978	-7.93185	3.48888
18.44397	-7.90988	3.48888
18.44816	-7.88791	3.48888
18.45234	-7.88791	3.48888
18.45653	-7.86593	3.48888
18.46072	-7.84396	3.48888
18.46487	-7.80002	3.48888
18.46918	-7.80002	3.48888
18.47339	-7.75607	3.48888
18.47758	-7.73410	3.48888
18.48176	-7.73410	3.48888
18.48595	-7.71213	3.48888
18.49013	-7.69015	3.48888
18.49432	-7.66818	3.48888
18.49873	-7.64621	3.48888
18.50294	-7.62423	3.48888
18.50712	-7.62423	3.48888
18.51131	-7.60226	3.48888
18.51549	-7.58029	3.48888
18.51968	-7.53634	3.48888
18.52386	-7.51437	3.48888
18.52813	-7.49240	3.48888
18.53242	-7.49240	3.48888
18.53662	-7.47043	3.48888
18.54092	-7.44845	3.48888
18.54510	-7.42648	3.48888
18.54929	-7.40451	3.48888
18.55347	-7.36056	3.48888
18.55765	-7.36056	3.48888
18.56195	-7.36056	3.48888
18.56615	-7.31662	3.48888
18.57034	-7.29464	3.48888
18.57453	-7.27267	3.48888
18.57871	-7.27267	3.48888
18.58289	-7.25070	3.48888
18.58708	-7.22873	3.48888
18.59133	-7.20675	3.48888
18.59560	-7.16281	3.48888
18.59980	-7.16281	3.48888
18.60398	-7.14084	3.48888
18.60817	-7.14084	3.48888
18.61235	-7.11886	3.48888
18.61654	-7.07492	3.48888
18.62072	-7.05295	3.48888
18.62499	-7.03097	3.48888
18.62919	-7.00900	3.48888
18.63339	-6.98703	3.48888
18.63757	-6.98703	3.48888
18.64186	-6.96506	3.48888
18.64604	-6.94308	3.48888
18.65023	-6.92111	3.48888
18.65464	-6.89914	3.48888
18.65885	-6.87716	3.48888
18.66304	-6.87716	3.48888
18.66723	-6.85519	3.48888
18.67141	-6.83322	3.48888
18.67560	-6.81125	3.48888
18.67978	-6.78927	3.48888
18.68404	-6.76730	3.48888
18.68832	-6.76730	3.48888
18.69251	-6.74533	3.48888
18.69670	-6.72336	3.48888
18.70087	-6.70138	3.48888
18.70505	-6.67941	3.48888
18.70924	-6.67941	3.48888
18.71343	-6.63547	3.48888
18.71773	-6.63547	3.48888
18.72194	-6.61349	3.48888
18.72612	-6.59152	3.48888
18.73031	-6.56955	3.48888
18.73450	-6.54757	3.48888
18.73868	-6.54757	3.48888
18.74297	-6.52560	3.48888
18.74723	-6.50363	3.48888
18.75149	-6.48166	3.48888
18.75568	-6.48166	3.48888
18.75987	-6.45968	3.48888
18.76406	-6.43771	3.48888
18.76824	-6.43771	3.48888
18.77243	-6.41574	3.48888
18.77661	-6.39377	3.48888
18.78092	-6.37179	3.48888
18.78512	-6.34982	3.48888
18.78931	-6.34982	3.48888
18.79349	-6.34982	3.48888
18.79768	-6.32785	3.48888
18.80186	-6.30588	3.48888
18.80604	-6.28390	3.48888
18.81030	-6.26193	3.48888
18.81456	-6.23996	3.48888
18.81875	-6.23996	3.48888
18.82294	-6.23996	3.48888
18.82712	-6.21798	3.48888
18.83130	-6.19601	3.48888
18.83550	-6.17404	3.48888
18.83968	-6.17404	3.48888
18.84408	-6.17404	3.48888
18.84828	-6.15207	3.48888
18.85247	-6.13009	3.48888
18.85665	-6.10812	3.48888
18.86091	-6.10812	3.48888
18.86510	-6.08615	3.48888
18.86928	-6.08615	3.48888
18.87371	-6.06418	3.48888
18.87793	-6.06418	3.48888
18.88212	-6.04220	3.48888
18.88630	-6.04220	3.48888
18.89049	-6.02023	3.48888
18.89467	-5.99826	3.48888
18.89886	-5.99826	3.48888
18.90312	-5.99826	3.48888
18.90741	-5.97629	3.48888
18.91160	-5.95431	3.48888
18.91579	-5.95431	3.48888
18.91998	-5.93234	3.48888
18.92416	-5.93234	3.48888
18.92835	-5.93234	3.48888
18.93253	-5.91037	3.48888
18.93685	-5.91037	3.48888
18.94105	-5.88839	3.48888
18.94534	-5.88839	3.48888
18.94952	-5.88839	3.48888
18.95371	-5.86642	3.48888
18.95789	-5.86642	3.48888
18.96207	-5.86642	3.48888
18.96633	-5.84445	3.48888
18.97059	-5.84445	3.48888
18.97478	-5.82248	3.48888
18.97896	-5.82248	3.48888
18.98315	-5.82248	3.48888
18.98734	-5.80050	3.48888
18.99152	-5.80050	3.48888
18.99570	-5.80050	3.48888
19.00000	-5.77853	3.48888
19.00420	-5.77853	3.48888
19.00838	-5.77853	3.48888
19.01257	-5.77853	3.48888
19.01676	-5.75656	3.48888
19.02095	-5.77853	3.48888
19.02513	-5.75656	3.48888
19.02955	-5.75656	3.48888
19.03375	-5.75656	3.48888
19.03794	-5.73459	3.48888
19.04213	-5.73459	3.48888
19.04642	-5.73459	3.48888
19.05061	-5.71261	3.48888
19.05479	-5.71261	3.48888
19.05905	-5.71261	3.48888
19.06331	-5.71261	3.48888
19.06751	-5.71261	3.48888
19.07169	-5.71261	3.48888
19.07588	-5.71261	3.48888
19.08006	-5.71261	3.48888
19.08424	-5.69064	3.48888
19.08843	-5.71261	3.48888
19.09272	-5.69064	3.48888
19.09689	-5.69064	3.48888
19.10108	-5.69064	3.48888
19.10526	-5.69064	3.48888
19.10945	-5.69064	3.48888
19.11363	-5.69064	3.48888
19.11781	-5.69064	3.48888
19.12206	-5.69064	3.48888
19.12633	-5.69064	3.48888
19.13052	-5.69064	3.48888
19.13471	-5.69064	3.48888
19.13889	-5.69064	3.48888
19.14308	-5.69064	3.48888
19.14736	-5.69064	3.48888
19.15155	-5.69064	3.48888
19.15585	-5.69064	3.48888
19.16005	-5.69064	3.48888
19.16423	-5.69064	3.48888
19.16842	-5.69064	3.48888
19.17260	-5.69064	3.48888
19.17679	-5.69064	3.48888
19.18098	-5.69064	3.48888
19.18523	-5.69064	3.48888
19.18949	-5.69064	3.48888
19.19368	-5.71261	3.48888
19.19787	-5.69064	3.48888
19.20205	-5.69064	3.48888
19.20624	-5.71261	3.48888
19.21042	-5.71261	3.48888
19.21461	-5.71261	3.48888
19.21890	-5.71261	3.48888
19.22310	-5.71261	3.48888
19.22729	-5.71261	3.48888
19.23148	-5.73459	3.48888
19.23567	-5.71261	3.48888
19.23989	-5.71261	3.48888
19.24409	-5.73459	3.48888
19.24852	-5.73459	3.48888
19.25280	-5.73459	3.48888
19.25699	-5.75656	3.48888
19.26119	-5.75656	3.48888
19.26538	-5.75656	3.48888
19.26957	-5.75656	3.48888
19.27376	-5.75656	3.48888
19.27806	-5.77853	3.48888
19.28235	-5.77853	3.48888
19.28655	-5.77853	3.48888
19.29074	-5.77853	3.48888
19.29493	-5.77853	3.48888
19.29913	-5.80050	3.48888
19.30332	-5.80050	3.48888
19.30752	-5.80050	3.48888
19.31182	-5.82248	3.48888
19.31603	-5.82248	3.48888
19.32022	-5.82248	3.48888
19.32440	-5.82248	3.48888
19.32859	-5.84445	3.48888
19.33278	-5.84445	3.48888
19.33697	-5.84445	3.48888
19.34123	-5.84445	3.48888
19.34551	-5.86642	3.48888
19.34982	-5.86642	3.48888
19.35405	-5.88839	3.48888
19.35824	-5.88839	3.48888
19.36244	-5.88839	3.48888
19.36663	-5.91037	3.48888
19.37082	-5.91037	3.48888
19.37511	-5.91037	3.48888
19.37933	-5.93234	3.48888
19.38352	-5.93234	3.48888
19.38770	-5.93234	3.48888
19.39188	-5.93234	3.48888
19.39607	-5.93234	3.48888
19.40025	-5.95431	3.48888
19.40468	-5.95431	3.48888
19.40889	-5.97629	3.48888
19.41308	-5.97629	3.48888
19.41727	-5.97629	3.48888
19.42145	-5.97629	3.48888
19.42564	-5.99826	3.48888
19.42982	-5.99826	3.48888
19.43407	-6.02023	3.48888
19.43837	-6.02023	3.48888
19.44256	-6.04220	3.48888
19.44675	-6.04220	3.48888
19.45104	-6.04220	3.48888
19.45522	-6.06418	3.48888
19.45942	-6.06418	3.48888
19.46361	-6.06418	3.48888
19.46792	-6.08615	3.48888
19.47212	-6.10812	3.48888
19.47630	-6.10812	3.48888
19.48049	-6.10812	3.48888
19.48468	-6.10812	3.48888
19.48887	-6.13009	3.48888
19.49305	-6.13009	3.48888
19.49731	-6.15207	3.48888
19.50159	-6.15207	3.48888
19.50578	-6.15207	3.48888
19.50996	-6.17404	3.48888
19.51415	-6.17404	3.48888
19.51834	-6.17404	3.48888
19.52252	-6.19601	3.48888
19.52671	-6.19601	3.48888
19.53101	-6.19601	3.48888
19.53521	-6.21798	3.48888
19.53940	-6.23996	3.48888
19.54359	-6.23996	3.48888
19.54777	-6.26193	3.48888
19.55206	-6.26193	3.48888
19.55624	-6.26193	3.48888
19.56066	-6.28390	3.48888
19.56488	-6.28390	3.48888
19.56907	-6.30588	3.48888
19.57325	-6.32785	3.48888
19.57743	-6.32785	3.48888
19.58161	-6.32785	3.48888
19.58580	-6.32785	3.48888
19.59006	-6.34982	3.48888
19.59434	-6.37179	3.48888
19.59854	-6.39377	3.48888
19.60272	-6.39377	3.48888
19.60691	-6.39377	3.48888
19.61109	-6.39377	3.48888
19.61527	-6.41574	3.48888
19.61945	-6.41574	3.48888
19.62375	-6.43771	3.48888
19.62795	-6.43771	3.48888
19.63214	-6.43771	3.48888
19.63632	-6.45968	3.48888
19.64052	-6.45968	3.48888
19.64470	-6.48166	3.48888
19.64887	-6.48166	3.48888
19.65323	-6.50363	3.48888
19.65747	-6.50363	3.48888
19.66166	-6.50363	3.48888
19.66585	-6.52560	3.48888
19.67003	-6.52560	3.48888
19.67422	-6.54757	3.48888
19.67840	-6.54757	3.48888
19.68258	-6.54757	3.48888
19.68688	-6.56955	3.48888
19.69108	-6.56955	3.48888
19.69526	-6.59152	3.48888
19.69945	-6.59152	3.48888
19.70364	-6.61349	3.48888
19.70782	-6.61349	3.48888
19.71200	-6.61349	3.48888
19.71626	-6.63547	3.48888
19.72052	-6.63547	3.48888
19.72471	-6.65744	3.48888
19.72887	-6.65744	3.48888
19.73306	-6.65744	3.48888
19.73724	-6.67941	3.48888
19.74143	-6.67941	3.48888
19.74561	-6.67941	3.48888
19.74991	-6.70138	3.48888
19.75421	-6.72336	3.48888
19.75839	-6.72336	3.48888
19.76257	-6.72336	3.48888
19.76676	-6.72336	3.48888
19.77094	-6.74533	3.48888
19.77513	-6.74533	3.48888
19.77955	-6.76730	3.48888
19.78376	-6.76730	3.48888
19.78795	-6.78927	3.48888
19.79213	-6.78927	3.48888
19.79632	-6.78927	3.48888
19.80050	-6.81125	3.48888
19.80468	-6.81125	3.48888
19.80896	-6.81125	3.48888
19.81324	-6.83322	3.48888
19.81744	-6.83322	3.48888
19.82163	-6.83322	3.48888
19.82582	-6.85519	3.48888
19.83000	-6.85519	3.48888
19.83418	-6.87716	3.48888
19.83837	-6.87716	3.48888
19.84267	-6.87716	3.48888
19.84688	-6.87716	3.48888
19.85107	-6.89914	3.48888
19.85536	-6.89914	3.48888
19.85954	-6.89914	3.48888
19.86373	-6.89914	3.48888
19.86791	-6.92111	3.48888
19.87217	-6.92111	3.48888
19.87643	-6.94308	3.48888
19.88063	-6.94308	3.48888
19.88482	-6.94308	3.48888
19.88901	-6.96506	3.48888
19.89319	-6.96506	3.48888
19.89738	-6.96506	3.48888
19.90156	-6.98703	3.48888
19.90586	-6.98703	3.48888
19.91006	-6.98703	3.48888
19.91424	-7.00900	3.48888
19.91843	-7.00900	3.48888
19.92261	-7.00900	3.48888
19.92679	-7.00900	3.48888
19.93098	-7.00900	3.48888
19.93523	-7.03097	3.48888
19.93949	-7.03097	3.48888
19.94369	-7.03097	3.48888
19.94789	-7.05295	3.48888
19.95207	-7.05295	3.48888
19.95636	-7.05295	3.48888
19.96055	-7.05295	3.48888
19.96474	-7.05295	3.48888
19.96904	-7.07492	3.48888
19.97325	-7.07492	3.48888
19.97744	-7.07492	3.48888
19.98163	-7.07492	3.48888
19.98582	-7.09689	3.48888
19.99000	-7.09689	3.48888
19.99418	-7.09689	3.48888
19.99863	-7.09689	3.48888
20.00283	-7.09689	3.48888
20.00702	-7.11886	3.48888
20.01120	-7.11886	3.48888
20.01542	-7.11886	3.48888
20.01961	-7.11886	3.48888
20.02380	-7.11886	3.48888
20.02807	-7.11886	3.48888
20.03242	-7.14084	3.48888
20.03665	-7.14084	3.48888
20.04086	-7.14084	3.48888
20.04506	-7.14084	3.48888
20.04927	-7.14084	3.48888
20.05347	-7.14084	3.48888
20.05779	-7.14084	3.48888
20.06211	-7.14084	3.48888
20.06633	-7.16281	3.48888
20.07052	-7.16281	3.48888
20.07471	-7.16281	3.48888
20.07891	-7.16281	3.48888
20.08310	-7.16281	3.48888
20.08729	-7.16281	3.48888
20.09174	-7.18478	3.48888
20.09596	-7.16281	3.48888
20.10015	-7.18478	3.48888
20.10435	-7.18478	3.48888
20.10854	-7.18478	3.48888
20.11273	-7.18478	3.48888
20.11687	-7.18478	3.48888
20.12115	-7.18478	3.48888
20.12544	-7.18478	3.48888
20.12965	-7.18478	3.48888
20.13384	-7.18478	3.48888
20.13804	-7.20675	3.48888
20.14224	-7.20675	3.48888
20.14643	-7.20675	3.48888
20.15062	-7.20675	3.48888
20.15493	-7.20675	3.48888
20.15926	-7.20675	3.48888
20.16345	-7.20675	3.48888
20.16764	-7.20675	3.48888
20.17183	-7.20675	3.48888
20.17602	-7.20675	3.48888
20.18021	-7.20675	3.48888
20.18464	-7.20675	3.48888
20.18886	-7.20675	3.48888
20.19304	-7.20675	3.48888
20.19723	-7.20675	3.48888
20.20142	-7.20675	3.48888
20.20561	-7.20675	3.48888
20.20979	-7.20675	3.48888
20.21404	-7.20675	3.48888
20.21832	-7.20675	3.48888
20.22251	-7.20675	3.48888
20.22670	-7.20675	3.48888
20.23094	-7.20675	3.48888
20.23515	-7.20675	3.48888
20.23935	-7.20675	3.48888
20.24354	-7.20675	3.48888
20.24785	-7.20675	3.48888
20.25206	-7.20675	3.48888
20.25625	-7.20675	3.48888
20.26054	-7.18478	3.48888
20.26474	-7.20675	3.48888
20.26893	-7.20675	3.48888
20.27311	-7.18478	3.48888
20.27754	-7.18478	3.48888
20.28175	-7.18478	3.48888
20.28594	-7.18478	3.48888
20.29012	-7.18478	3.48888
20.29431	-7.18478	3.48888
20.29849	-7.18478	3.48888
20.30268	-7.18478	3.48888
20.30693	-7.18478	3.48888
20.31123	-7.18478	3.48888
20.31543	-7.16281	3.48888
20.31961	-7.16281	3.48888
20.32383	-7.16281	3.48888
20.32802	-7.16281	3.48888
20.33221	-7.16281	3.48888
20.33640	-7.16281	3.48888
20.34087	-7.16281	3.48888
20.34508	-7.16281	3.48888
20.34927	-7.16281	3.48888
20.35347	-7.14084	3.48888
20.35766	-7.14084	3.48888
20.36197	-7.14084	3.48888
20.36616	-7.14084	3.48888
20.37043	-7.14084	3.48888
20.37471	-7.11886	3.48888
20.37892	-7.14084	3.48888
20.38311	-7.11886	3.48888
20.38730	-7.11886	3.48888
20.39149	-7.11886	3.48888
20.39568	-7.11886	3.48888
20.39986	-7.11886	3.48888
20.40416	-7.09689	3.48888
20.40836	-7.11886	3.48888
20.41255	-7.09689	3.48888
20.41674	-7.09689	3.48888
20.42093	-7.09689	3.48888
20.42511	-7.09689	3.48888
20.42929	-7.09689	3.48888
20.43368	-7.07492	3.48888
20.43790	-7.09689	3.48888
20.44209	-7.07492	3.48888
20.44627	-7.07492	3.48888
20.45045	-7.07492	3.48888
20.45464	-7.07492	3.48888
20.45882	-7.05295	3.48888
20.46318	-7.05295	3.48888
20.46746	-7.05295	3.48888
20.47166	-7.05295	3.48888
20.47584	-7.05295	3.48888
20.48002	-7.05295	3.48888
20.48421	-7.03097	3.48888
20.48839	-7.03097	3.48888
20.49258	-7.03097	3.48888
20.49690	-7.03097	3.48888
20.50110	-7.00900	3.48888
20.50529	-7.00900	3.48888
20.50947	-7.00900	3.48888
20.51365	-7.00900	3.48888
20.51786	-7.00900	3.48888
20.52205	-6.98703	3.48888
20.52631	-6.98703	3.48888
20.53059	-6.98703	3.48888
20.53478	-6.96506	3.48888
20.53897	-6.96506	3.48888
20.54315	-6.96506	3.48888
20.54733	-6.96506	3.48888
20.55152	-6.96506	3.48888
20.55571	-6.96506	3.48888
20.56001	-6.96506	3.48888
20.56434	-6.94308	3.48888
20.56852	-6.94308	3.48888
20.57271	-6.94308	3.48888
20.57687	-6.92111	3.48888
20.58105	-6.94308	3.48888
20.58523	-6.94308	3.48888
20.58963	-6.89914	3.48888
20.59385	-6.92111	3.48888
20.59804	-6.89914	3.48888
20.60222	-6.89914	3.48888
20.60641	-6.89914	3.48888
20.61059	-6.89914	3.48888
20.61477	-6.89914	3.48888
20.61902	-6.87716	3.48888
20.62331	-6.87716	3.48888
20.62750	-6.87716	3.48888
20.63169	-6.87716	3.48888
20.63588	-6.85519	3.48888
20.64006	-6.85519	3.48888
20.64424	-6.85519	3.48888
20.64844	-6.83322	3.48888
20.65276	-6.83322	3.48888
20.65696	-6.83322	3.48888
20.66114	-6.83322	3.48888
20.66543	-6.83322	3.48888
20.66962	-6.83322	3.48888
20.67380	-6.83322	3.48888
20.67798	-6.81125	3.48888
20.68224	-6.81125	3.48888
20.68651	-6.81125	3.48888
20.69070	-6.81125	3.48888
20.69488	-6.78927	3.48888
20.69907	-6.78927	3.48888
20.70325	-6.78927	3.48888
20.70743	-6.76730	3.48888
20.71162	-6.76730	3.48888
20.71592	-6.76730	3.48888
20.72011	-6.76730	3.48888
20.72430	-6.76730	3.48888
20.72848	-6.76730	3.48888
20.73267	-6.74533	3.48888
20.73686	-6.74533	3.48888
20.74104	-6.74533	3.48888
20.74529	-6.74533	3.48888
20.74957	-6.72336	3.48888
20.75376	-6.74533	3.48888
20.75795	-6.72336	3.48888
20.76214	-6.72336	3.48888
20.76643	-6.72336	3.48888
20.77061	-6.72336	3.48888
20.77479	-6.70138	3.48888
20.77909	-6.70138	3.48888
20.78329	-6.67941	3.48888
20.78747	-6.67941	3.48888
20.79166	-6.67941	3.48888
20.79584	-6.67941	3.48888
20.80003	-6.67941	3.48888
20.80421	-6.67941	3.48888
20.80846	-6.65744	3.48888
20.81273	-6.65744	3.48888
20.81688	-6.65744	3.48888
20.82106	-6.65744	3.48888
20.82525	-6.63547	3.48888
20.82943	-6.63547	3.48888
20.83362	-6.63547	3.48888
20.83780	-6.63547	3.48888
20.84210	-6.61349	3.48888
20.84630	-6.61349	3.48888
20.85049	-6.61349	3.48888
20.85468	-6.61349	3.48888
20.85886	-6.59152	3.48888
20.86305	-6.59152	3.48888
20.86734	-6.59152	3.48888
20.87178	-6.59152	3.48888
20.87600	-6.59152	3.48888
20.88020	-6.56955	3.48888
20.88438	-6.56955	3.48888
20.88857	-6.56955	3.48888
20.89276	-6.56955	3.48888
20.89695	-6.56955	3.48888
20.90120	-6.54757	3.48888
20.90549	-6.54757	3.48888
20.90969	-6.54757	3.48888
20.91388	-6.52560	3.48888
20.91806	-6.52560	3.48888
20.92225	-6.52560	3.48888
20.92643	-6.50363	3.48888
20.93061	-6.50363	3.48888
20.93492	-6.50363	3.48888
20.93912	-6.50363	3.48888
20.94330	-6.48166	3.48888
20.94749	-6.48166	3.48888
20.95168	-6.48166	3.48888
20.95587	-6.48166	3.48888
20.96005	-6.45968	3.48888
20.96430	-6.45968	3.48888
20.96868	-6.45968	3.48888
20.97287	-6.45968	3.48888
20.97706	-6.43771	3.48888
20.98124	-6.43771	3.48888
20.98543	-6.43771	3.48888
20.98961	-6.43771	3.48888
20.99379	-6.41574	3.48888
20.99809	-6.39377	3.48888
21.00229	-6.39377	3.48888
21.00647	-6.39377	3.48888
21.01066	-6.39377	3.48888
21.01484	-6.39377	3.48888
21.01905	-6.39377	3.48888
21.02324	-6.37179	3.48888
21.02771	-6.37179	3.48888
21.03193	-6.37179	3.48888
21.03612	-6.34982	3.48888
21.04030	-6.34982	3.48888
21.04449	-6.34982	3.48888
21.04867	-6.32785	3.48888
21.05294	-6.32785	3.48888
21.05729	-6.32785	3.48888
21.06164	-6.32785	3.48888
21.06586	-6.30588	3.48888
21.07016	-6.30588	3.48888
21.07435	-6.30588	3.48888
21.07856	-6.28390	3.48888
21.08275	-6.28390	3.48888
21.08697	-6.28390	3.48888
21.09127	-6.28390	3.48888
21.09549	-6.26193	3.48888
21.09968	-6.26193	3.48888
21.10386	-6.26193	3.48888
21.10805	-6.26193	3.48888
21.11223	-6.23996	3.48888
21.11643	-6.23996	3.48888
21.12084	-6.23996	3.48888
21.12508	-6.21798	3.48888
21.12927	-6.21798	3.48888
21.13346	-6.21798	3.48888
21.13764	-6.19601	3.48888
21.14183	-6.19601	3.48888
21.14601	-6.19601	3.48888
21.15027	-6.19601	3.48888
21.15456	-6.17404	3.48888
21.15876	-6.17404	3.48888
21.16295	-6.17404	3.48888
21.16713	-6.15207	3.48888
21.17142	-6.15207	3.48888
21.17560	-6.15207	3.48888
21.17981	-6.13009	3.48888
21.18412	-6.13009	3.48888
21.18833	-6.13009	3.48888
21.19252	-6.13009	3.48888
21.19671	-6.10812	3.48888
21.20087	-6.10812	3.48888
21.20506	-6.10812	3.48888
21.20924	-6.08615	3.48888
21.21350	-6.08615	3.48888
21.21777	-6.08615	3.48888
21.22196	-6.08615	3.48888
21.22615	-6.06418	3.48888
21.23034	-6.06418	3.48888
21.23453	-6.04220	3.48888
21.23871	-6.04220	3.48888
21.24290	-6.04220	3.48888
21.24721	-6.04220	3.48888
21.25141	-6.02023	3.48888
21.25561	-6.02023	3.48888
21.25979	-6.02023	3.48888
21.26398	-6.02023	3.48888
21.26816	-5.99826	3.48888
21.27245	-5.99826	3.48888
21.27684	-5.99826	3.48888
21.28108	-5.97629	3.48888
21.28528	-5.97629	3.48888
21.28946	-5.97629	3.48888
21.29365	-5.97629	3.48888
21.29783	-5.95431	3.48888
21.30202	-5.95431	3.48888
21.30627	-5.93234	3.48888
21.31056	-5.93234	3.48888
21.31477	-5.93234	3.48888
21.31896	-5.91037	3.48888
21.32314	-5.91037	3.48888
21.32733	-5.93234	3.48888
21.33151	-5.91037	3.48888
21.33569	-5.91037	3.48888
21.34000	-5.88839	3.48888
21.34421	-5.88839	3.48888
21.34840	-5.88839	3.48888
21.35259	-5.86642	3.48888
21.35680	-5.86642	3.48888
21.36098	-5.86642	3.48888
21.36517	-5.86642	3.48888
21.36943	-5.86642	3.48888
21.37381	-5.84445	3.48888
21.37802	-5.84445	3.48888
21.38222	-5.84445	3.48888
21.38642	-5.84445	3.48888
21.39060	-5.82248	3.48888
21.39479	-5.82248	3.48888
21.39897	-5.82248	3.48888
21.40327	-5.80050	3.48888
21.40747	-5.80050	3.48888
21.41168	-5.80050	3.48888
21.41587	-5.80050	3.48888
21.42006	-5.77853	3.48888
21.42424	-5.77853	3.48888
21.42842	-5.77853	3.48888
21.43268	-5.77853	3.48888
21.43695	-5.75656	3.48888
21.44115	-5.75656	3.48888
21.44534	-5.75656	3.48888
21.44952	-5.73459	3.48888
21.45371	-5.73459	3.48888
21.45789	-5.73459	3.48888
21.46207	-5.73459	3.48888
21.46637	-5.73459	3.48888
21.47057	-5.73459	3.48888
21.47486	-5.73459	3.48888
21.47907	-5.73459	3.48888
21.48326	-5.71261	3.48888
21.48745	-5.71261	3.48888
21.49163	-5.69064	3.48888
21.49599	-5.69064	3.48888
21.50023	-5.69064	3.48888
21.50442	-5.69064	3.48888
21.50861	-5.69064	3.48888
21.51280	-5.66867	3.48888
21.51699	-5.66867	3.48888
21.52118	-5.66867	3.48888
21.52543	-5.66867	3.48888
21.52971	-5.64670	3.48888
21.53391	-5.64670	3.48888
21.53810	-5.64670	3.48888
21.54228	-5.64670	3.48888
21.54646	-5.64670	3.48888
21.55065	-5.64670	3.48888
21.55483	-5.64670	3.48888
21.55913	-5.62472	3.48888
21.56334	-5.62472	3.48888
21.56753	-5.62472	3.48888
21.57171	-5.62472	3.48888
21.57600	-5.62472	3.48888
21.58020	-5.60275	3.48888
21.58440	-5.60275	3.48888
21.58866	-5.60275	3.48888
21.59295	-5.60275	3.48888
21.59716	-5.60275	3.48888
21.60135	-5.60275	3.48888
21.60554	-5.60275	3.48888
21.60972	-5.60275	3.48888
21.61391	-5.58078	3.48888
21.61809	-5.58078	3.48888
21.62239	-5.58078	3.48888
21.62659	-5.58078	3.48888
21.63078	-5.58078	3.48888
21.63497	-5.58078	3.48888
21.63915	-5.58078	3.48888
21.64334	-5.55881	3.48888
21.64752	-5.55881	3.48888
21.65177	-5.55881	3.48888
21.65604	-5.55881	3.48888
21.66024	-5.55881	3.48888
21.66442	-5.55881	3.48888
21.66861	-5.55881	3.48888
21.67281	-5.55881	3.48888
21.67709	-5.55881	3.48888
21.68130	-5.55881	3.48888
21.68561	-5.55881	3.48888
21.68982	-5.53683	3.48888
21.69401	-5.55881	3.48888
21.69819	-5.53683	3.48888
21.70237	-5.53683	3.48888
21.70656	-5.53683	3.48888
21.71074	-5.53683	3.48888
21.71500	-5.53683	3.48888
21.71928	-5.53683	3.48888
21.72347	-5.53683	3.48888
21.72766	-5.53683	3.48888
21.73184	-5.53683	3.48888
21.73602	-5.53683	3.48888
21.74021	-5.53683	3.48888
21.74439	-5.53683	3.48888
21.74869	-5.53683	3.48888
21.75289	-5.53683	3.48888
21.75708	-5.51486	3.48888
21.76126	-5.53683	3.48888
21.76545	-5.53683	3.48888
21.76963	-5.53683	3.48888
21.77381	-5.53683	3.48888
21.77817	-5.53683	3.48888
21.78247	-5.51486	3.48888
21.78668	-5.53683	3.48888
21.79087	-5.53683	3.48888
21.79506	-5.53683	3.48888
21.79925	-5.53683	3.48888
21.80343	-5.53683	3.48888
21.80762	-5.53683	3.48888
21.81192	-5.53683	3.48888
21.81612	-5.53683	3.48888
21.82031	-5.53683	3.48888
21.82449	-5.53683	3.48888
21.82868	-5.53683	3.48888
21.83287	-5.53683	3.48888
21.83705	-5.53683	3.48888
21.84131	-5.53683	3.48888
21.84558	-5.53683	3.48888
21.84977	-5.53683	3.48888
21.85396	-5.53683	3.48888
21.85816	-5.53683	3.48888
21.86234	-5.55881	3.48888
21.86653	-5.55881	3.48888
21.87071	-5.55881	3.48888
21.87501	-5.55881	3.48888
21.87933	-5.55881	3.48888
21.88352	-5.55881	3.48888
21.88770	-5.55881	3.48888
21.89189	-5.55881	3.48888
21.89607	-5.55881	3.48888
21.90025	-5.55881	3.48888
21.90470	-5.55881	3.48888
21.90889	-5.58078	3.48888
21.91308	-5.58078	3.48888
21.91726	-5.58078	3.48888
21.92145	-5.58078	3.48888
21.92563	-5.58078	3.48888
21.92982	-5.58078	3.48888
21.93407	-5.58078	3.48888
21.93835	-5.60275	3.48888
21.94255	-5.58078	3.48888
21.94674	-5.58078	3.48888
21.95093	-5.60275	3.48888
21.95511	-5.60275	3.48888
21.95930	-5.60275	3.48888
21.96349	-5.62472	3.48888
21.96778	-5.60275	3.48888
21.97198	-5.62472	3.48888
21.97617	-5.62472	3.48888
21.98046	-5.62472	3.48888
21.98465	-5.62472	3.48888
21.98884	-5.64670	3.48888
21.99302	-5.62472	3.48888
21.99728	-5.64670	3.48888
22.00155	-5.64670	3.48888
22.00575	-5.64670	3.48888
22.00994	-5.64670	3.48888
22.01412	-5.64670	3.48888
22.01837	-5.64670	3.48888
22.02256	-5.66867	3.48888
22.02676	-5.66867	3.48888
22.03106	-5.66867	3.48888
22.03526	-5.66867	3.48888
22.03945	-5.66867	3.48888
22.04364	-5.66867	3.48888
22.04782	-5.66867	3.48888
22.05201	-5.69064	3.48888
22.05619	-5.69064	3.48888
22.06045	-5.69064	3.48888
22.06472	-5.69064	3.48888
22.06888	-5.69064	3.48888
22.07307	-5.71261	3.48888
22.07726	-5.71261	3.48888
22.08155	-5.71261	3.48888
22.08573	-5.71261	3.48888
22.08992	-5.71261	3.48888
22.09422	-5.71261	3.48888
22.09842	-5.73459	3.48888
22.10261	-5.73459	3.48888
22.10680	-5.73459	3.48888
22.11098	-5.73459	3.48888
22.11517	-5.75656	3.48888
22.11935	-5.75656	3.48888
22.12360	-5.75656	3.48888
22.12787	-5.75656	3.48888
22.13206	-5.75656	3.48888
22.13625	-5.75656	3.48888
22.14043	-5.77853	3.48888
22.14462	-5.77853	3.48888
22.14881	-5.77853	3.48888
22.15299	-5.77853	3.48888
22.15729	-5.77853	3.48888
22.16150	-5.80050	3.48888
22.16569	-5.80050	3.48888
22.16988	-5.80050	3.48888
22.17406	-5.82248	3.48888
22.17824	-5.82248	3.48888
22.18253	-5.82248	3.48888
22.18698	-5.82248	3.48888
22.19119	-5.82248	3.48888
22.19538	-5.82248	3.48888
22.19957	-5.84445	3.48888
22.20375	-5.84445	3.48888
22.20793	-5.84445	3.48888
22.21212	-5.84445	3.48888
22.21636	-5.84445	3.48888
22.22065	-5.86642	3.48888
22.22486	-5.86642	3.48888
22.22904	-5.86642	3.48888
22.23323	-5.86642	3.48888
22.23741	-5.86642	3.48888
22.24160	-5.88839	3.48888
22.24579	-5.88839	3.48888
22.25009	-5.88839	3.48888
22.25430	-5.91037	3.48888
22.25849	-5.91037	3.48888
22.26268	-5.91037	3.48888
22.26686	-5.91037	3.48888
22.27105	-5.91037	3.48888
22.27523	-5.93234	3.48888
22.27949	-5.93234	3.48888
22.28388	-5.93234	3.48888
22.28808	-5.93234	3.48888
22.29227	-5.93234	3.48888
22.29645	-5.95431	3.48888
22.30064	-5.93234	3.48888
22.30483	-5.95431	3.48888
22.30901	-5.95431	3.48888
22.31331	-5.95431	3.48888
22.31751	-5.95431	3.48888
22.32170	-5.97629	3.48888
22.32589	-5.95431	3.48888
22.33007	-5.97629	3.48888
22.33426	-5.99826	3.48888
22.33844	-5.97629	3.48888
22.34269	-5.99826	3.48888
22.34697	-5.99826	3.48888
22.35116	-5.99826	3.48888
22.35536	-5.99826	3.48888
22.35955	-5.99826	3.48888
22.36375	-5.99826	3.48888
22.36794	-5.99826	3.48888
22.37212	-6.02023	3.48888
22.37642	-6.02023	3.48888
22.38064	-6.02023	3.48888
22.38494	-6.02023	3.48888
22.38913	-6.02023	3.48888
22.39331	-6.02023	3.48888
22.39750	-6.02023	3.48888
22.40168	-6.04220	3.48888
22.40613	-6.04220	3.48888
22.41034	-6.04220	3.48888
22.41453	-6.04220	3.48888
22.41872	-6.04220	3.48888
22.42290	-6.04220	3.48888
22.42709	-6.06418	3.48888
22.43127	-6.06418	3.48888
22.43552	-6.06418	3.48888
22.43981	-6.06418	3.48888
22.44401	-6.06418	3.48888
22.44820	-6.06418	3.48888
22.45238	-6.06418	3.48888
22.45656	-6.06418	3.48888
22.46076	-6.06418	3.48888
22.46495	-6.08615	3.48888
22.46925	-6.08615	3.48888
22.47345	-6.08615	3.48888
22.47764	-6.08615	3.48888
22.48183	-6.08615	3.48888
22.48611	-6.08615	3.48888
22.49029	-6.08615	3.48888
22.49448	-6.08615	3.48888
22.49873	-6.08615	3.48888
22.50300	-6.08615	3.48888
22.50719	-6.10812	3.48888
22.51138	-6.10812	3.48888
22.51557	-6.10812	3.48888
22.51977	-6.10812	3.48888
22.52397	-6.10812	3.48888
22.52816	-6.10812	3.48888
22.53247	-6.10812	3.48888
22.53667	-6.10812	3.48888
22.54086	-6.10812	3.48888
22.54505	-6.13009	3.48888
22.54924	-6.10812	3.48888
22.55342	-6.13009	3.48888
22.55761	-6.13009	3.48888
22.56207	-6.10812	3.48888
22.56628	-6.10812	3.48888
22.57047	-6.13009	3.48888
22.57466	-6.13009	3.48888
22.57884	-6.13009	3.48888
22.58303	-6.13009	3.48888
22.58732	-6.13009	3.48888
22.59157	-6.13009	3.48888
22.59584	-6.13009	3.48888
22.60004	-6.13009	3.48888
22.60423	-6.13009	3.48888
22.60841	-6.13009	3.48888
22.61260	-6.13009	3.48888
22.61679	-6.13009	3.48888
22.62098	-6.15207	3.48888
22.62528	-6.13009	3.48888
22.62948	-6.13009	3.48888
22.63367	-6.13009	3.48888
22.63786	-6.15207	3.48888
22.64204	-6.15207	3.48888
22.64622	-6.15207	3.48888
22.65041	-6.15207	3.48888
22.65466	-6.15207	3.48888
22.65893	-6.15207	3.48888
22.66312	-6.15207	3.48888
22.66732	-6.15207	3.48888
22.67151	-6.15207	3.48888
22.67569	-6.15207	3.48888
22.67988	-6.15207	3.48888
22.68406	-6.15207	3.48888
22.68846	-6.15207	3.48888
22.69266	-6.15207	3.48888
22.69686	-6.15207	3.48888
22.70104	-6.17404	3.48888
22.70522	-6.15207	3.48888
22.70941	-6.15207	3.48888
22.71359	-6.15207	3.48888
22.71804	-6.17404	3.48888
22.72225	-6.15207	3.48888
22.72643	-6.17404	3.48888
22.73062	-6.17404	3.48888
22.73480	-6.15207	3.48888
22.73899	-6.15207	3.48888
22.74317	-6.17404	3.48888
22.74743	-6.17404	3.48888
22.75171	-6.17404	3.48888
22.75591	-6.17404	3.48888
22.76009	-6.17404	3.48888
22.76428	-6.17404	3.48888
22.76847	-6.17404	3.48888
22.77265	-6.17404	3.48888
22.77684	-6.17404	3.48888
22.78115	-6.17404	3.48888
22.78535	-6.17404	3.48888
22.78964	-6.17404	3.48888
22.79383	-6.17404	3.48888
22.79801	-6.17404	3.48888
22.80219	-6.17404	3.48888
22.80638	-6.17404	3.48888
22.81063	-6.17404	3.48888
22.81491	-6.17404	3.48888
22.81910	-6.17404	3.48888
22.82329	-6.17404	3.48888
22.82748	-6.17404	3.48888
22.83166	-6.17404	3.48888
22.83585	-6.17404	3.48888
22.84003	-6.17404	3.48888
22.84433	-6.17404	3.48888
22.84854	-6.15207	3.48888
22.85273	-6.17404	3.48888
22.85687	-6.17404	3.48888
22.86106	-6.15207	3.48888
22.86524	-6.17404	3.48888
22.86943	-6.17404	3.48888
22.87368	-6.17404	3.48888
22.87797	-6.17404	3.48888
22.88217	-6.17404	3.48888
22.88636	-6.15207	3.48888
22.89064	-6.17404	3.48888
22.89483	-6.17404	3.48888
22.89901	-6.15207	3.48888
22.90320	-6.15207	3.48888
22.90750	-6.15207	3.48888
22.91170	-6.15207	3.48888
22.91589	-6.15207	3.48888
22.92008	-6.15207	3.48888
22.92426	-6.15207	3.48888
22.92844	-6.15207	3.48888
22.93263	-6.15207	3.48888
22.93689	-6.15207	3.48888
22.94116	-6.15207	3.48888
22.94536	-6.15207	3.48888
22.94957	-6.15207	3.48888
22.95376	-6.15207	3.48888
22.95794	-6.15207	3.48888
22.96213	-6.13009	3.48888
22.96632	-6.15207	3.48888
22.97062	-6.15207	3.48888
22.97482	-6.15207	3.48888
22.97901	-6.13009	3.48888
22.98320	-6.13009	3.48888
22.98738	-6.13009	3.48888
22.99167	-6.13009	3.48888
22.99585	-6.13009	3.48888
23.00030	-6.13009	3.48888
23.00451	-6.10812	3.48888
23.00870	-6.13009	3.48888
23.01288	-6.10812	3.48888
23.01706	-6.10812	3.48888
23.02127	-6.10812	3.48888
23.02546	-6.10812	3.48888
23.02973	-6.10812	3.48888
23.03403	-6.10812	3.48888
23.03824	-6.10812	3.48888
23.04242	-6.10812	3.48888
23.04660	-6.08615	3.48888
23.05079	-6.08615	3.48888
23.05497	-6.08615	3.48888
23.05915	-6.08615	3.48888
23.06346	-6.08615	3.48888
23.06766	-6.08615	3.48888
23.07185	-6.08615	3.48888
23.07604	-6.08615	3.48888
23.08022	-6.08615	3.48888
23.08440	-6.06418	3.48888
23.08859	-6.06418	3.48888
23.09297	-6.06418	3.48888
23.09724	-6.06418	3.48888
23.10143	-6.04220	3.48888
23.10562	-6.04220	3.48888
23.10980	-6.04220	3.48888
23.11399	-6.04220	3.48888
23.11817	-6.04220	3.48888
23.12235	-6.04220	3.48888
23.12666	-6.04220	3.48888
23.13086	-6.04220	3.48888
23.13504	-6.02023	3.48888
23.13923	-6.02023	3.48888
23.14341	-6.02023	3.48888
23.14760	-5.99826	3.48888
23.15178	-5.99826	3.48888
23.15603	-5.99826	3.48888
23.16031	-5.99826	3.48888
23.16450	-5.99826	3.48888
23.16869	-5.97629	3.48888
23.17287	-5.97629	3.48888
23.17705	-5.97629	3.48888
23.18124	-5.97629	3.48888
23.18542	-5.97629	3.48888
23.18972	-5.95431	3.48888
23.19401	-5.97629	3.48888
23.19820	-5.95431	3.48888
23.20238	-5.95431	3.48888
23.20656	-5.95431	3.48888
23.21075	-5.95431	3.48888
23.21493	-5.95431	3.48888
23.21937	-5.93234	3.48888
23.22358	-5.93234	3.48888
23.22776	-5.93234	3.48888
23.23195	-5.93234	3.48888
23.23613	-5.93234	3.48888
23.24032	-5.93234	3.48888
23.24451	-5.93234	3.48888
23.24882	-5.91037	3.48888
23.25312	-5.91037	3.48888
23.25731	-5.91037	3.48888
23.26150	-5.91037	3.48888
23.26568	-5.91037	3.48888
23.26987	-5.91037	3.48888
23.27405	-5.88839	3.48888
23.27824	-5.88839	3.48888
23.28254	-5.88839	3.48888
23.28673	-5.88839	3.48888
23.29092	-5.88839	3.48888
23.29521	-5.88839	3.48888
23.29941	-5.86642	3.48888
23.30361	-5.88839	3.48888
23.30780	-5.86642	3.48888
23.31207	-5.86642	3.48888
23.31635	-5.86642	3.48888
23.32055	-5.86642	3.48888
23.32474	-5.86642	3.48888
23.32893	-5.86642	3.48888
23.33311	-5.86642	3.48888
23.33729	-5.84445	3.48888
23.34148	-5.84445	3.48888
23.34579	-5.84445	3.48888
23.34999	-5.84445	3.48888
23.35419	-5.82248	3.48888
23.35838	-5.82248	3.48888
23.36257	-5.84445	3.48888
23.36676	-5.82248	3.48888
23.37094	-5.82248	3.48888
23.37537	-5.82248	3.48888
23.37959	-5.82248	3.48888
23.38378	-5.82248	3.48888
23.38796	-5.80050	3.48888
23.39215	-5.82248	3.48888
23.39643	-5.82248	3.48888
23.40062	-5.82248	3.48888
23.40488	-5.80050	3.48888
23.40916	-5.80050	3.48888
23.41335	-5.80050	3.48888
23.41754	-5.80050	3.48888
23.42172	-5.80050	3.48888
23.42591	-5.80050	3.48888
23.43009	-5.80050	3.48888
23.43427	-5.80050	3.48888
23.43857	-5.80050	3.48888
23.44276	-5.80050	3.48888
23.44695	-5.80050	3.48888
23.45113	-5.80050	3.48888
23.45532	-5.80050	3.48888
23.45950	-5.77853	3.48888
23.46368	-5.80050	3.48888
23.46793	-5.77853	3.48888
23.47220	-5.77853	3.48888
23.47641	-5.77853	3.48888
23.48059	-5.77853	3.48888
23.48479	-5.77853	3.48888
23.48897	-5.77853	3.48888
23.49316	-5.77853	3.48888
23.49744	-5.77853	3.48888
23.50174	-5.77853	3.48888
23.50594	-5.77853	3.48888
23.51013	-5.77853	3.48888
23.51431	-5.77853	3.48888
23.51849	-5.75656	3.48888
23.52269	-5.75656	3.48888
23.52690	-5.77853	3.48888
23.53133	-5.77853	3.48888
23.53555	-5.77853	3.48888
23.53974	-5.77853	3.48888
23.54392	-5.77853	3.48888
23.54811	-5.77853	3.48888
23.55229	-5.77853	3.48888
23.55648	-5.77853	3.48888
23.56072	-5.77853	3.48888
23.56498	-5.77853	3.48888
23.56917	-5.77853	3.48888
23.57336	-5.77853	3.48888
23.57754	-5.77853	3.48888
23.58173	-5.77853	3.48888
23.58591	-5.77853	3.48888
23.59009	-5.77853	3.48888
23.59450	-5.77853	3.48888
23.59882	-5.77853	3.48888
23.60300	-5.77853	3.48888
23.60718	-5.77853	3.48888
23.61137	-5.77853	3.48888
23.61555	-5.77853	3.48888
23.61973	-5.77853	3.48888
23.62400	-5.77853	3.48888
23.62827	-5.77853	3.48888
23.63246	-5.77853	3.48888
23.63665	-5.77853	3.48888
23.64084	-5.77853	3.48888
23.64502	-5.77853	3.48888
23.64920	-5.77853	3.48888
23.65339	-5.77853	3.48888
23.65769	-5.77853	3.48888
23.66189	-5.77853	3.48888
23.66607	-5.77853	3.48888
23.67026	-5.77853	3.48888
23.67444	-5.77853	3.48888
23.67862	-5.77853	3.48888
23.68281	-5.77853	3.48888
23.68706	-5.77853	3.48888
23.69133	-5.77853	3.48888
23.69552	-5.80050	3.48888
23.69981	-5.80050	3.48888
23.70399	-5.80050	3.48888
23.70819	-5.80050	3.48888
23.71237	-5.80050	3.48888
23.71656	-5.80050	3.48888
23.72087	-5.80050	3.48888
23.72507	-5.80050	3.48888
23.72926	-5.80050	3.48888
23.73344	-5.80050	3.48888
23.73763	-5.80050	3.48888
23.74181	-5.80050	3.48888
23.74599	-5.80050	3.48888
23.75024	-5.80050	3.48888
23.75451	-5.82248	3.48888
23.75871	-5.82248	3.48888
23.76289	-5.82248	3.48888
23.76708	-5.82248	3.48888
23.77126	-5.82248	3.48888
23.77544	-5.82248	3.48888
23.77963	-5.84445	3.48888
23.78392	-5.84445	3.48888
23.78812	-5.84445	3.48888
23.79231	-5.84445	3.48888
23.79649	-5.84445	3.48888
23.80079	-5.84445	3.48888
23.80497	-5.84445	3.48888
23.80916	-5.84445	3.48888
23.81360	-5.84445	3.48888
23.81781	-5.84445	3.48888
23.82200	-5.84445	3.48888
23.82618	-5.86642	3.48888
23.83036	-5.86642	3.48888
23.83455	-5.86642	3.48888
23.83873	-5.86642	3.48888
23.84297	-5.86642	3.48888
23.84725	-5.86642	3.48888
23.85145	-5.86642	3.48888
23.85563	-5.86642	3.48888
23.85982	-5.88839	3.48888
23.86400	-5.88839	3.48888
23.86818	-5.86642	3.48888
23.87236	-5.88839	3.48888
23.87683	-5.88839	3.48888
23.88103	-5.88839	3.48888
23.88522	-5.88839	3.48888
23.88940	-5.91037	3.48888
23.89358	-5.91037	3.48888
23.89777	-5.91037	3.48888
23.90205	-5.91037	3.48888
23.90631	-5.91037	3.48888
23.91058	-5.91037	3.48888
23.91477	-5.93234	3.48888
23.91896	-5.93234	3.48888
23.92314	-5.91037	3.48888
23.92732	-5.93234	3.48888
23.93151	-5.93234	3.48888
23.93569	-5.93234	3.48888
23.93999	-5.93234	3.48888
23.94419	-5.93234	3.48888
23.94838	-5.93234	3.48888
23.95256	-5.93234	3.48888
23.95676	-5.93234	3.48888
23.96094	-5.93234	3.48888
23.96512	-5.95431	3.48888
23.96937	-5.95431	3.48888
23.97364	-5.95431	3.48888
23.97784	-5.95431	3.48888
23.98203	-5.95431	3.48888
23.98622	-5.95431	3.48888
23.99041	-5.95431	3.48888
23.99460	-5.95431	3.48888
23.99878	-5.97629	3.48888
24.00319	-5.95431	3.48888
24.00738	-5.97629	3.48888
24.01157	-5.97629	3.48888
24.01575	-5.97629	3.48888
24.01994	-5.97629	3.48888
24.02414	-5.97629	3.48888
24.02832	-5.97629	3.48888
24.03280	-5.97629	3.48888
24.03701	-5.97629	3.48888
24.04120	-5.97629	3.48888
24.04538	-5.97629	3.48888
24.04957	-5.97629	3.48888
24.05375	-5.97629	3.48888
24.05794	-5.99826	3.48888
24.06220	-5.99826	3.48888
24.06649	-5.99826	3.48888
24.07069	-5.97629	3.48888
24.07487	-5.97629	3.48888
24.07906	-5.99826	3.48888
24.08325	-5.99826	3.48888
24.08743	-5.99826	3.48888
24.09162	-5.99826	3.48888
24.09592	-5.99826	3.48888
24.10012	-5.99826	3.48888
24.10441	-5.99826	3.48888
24.10859	-5.99826	3.48888
24.11279	-5.99826	3.48888
24.11697	-5.99826	3.48888
24.12115	-5.99826	3.48888
24.12541	-5.99826	3.48888
24.12968	-5.99826	3.48888
24.13387	-5.99826	3.48888
24.13805	-5.99826	3.48888
24.14224	-5.99826	3.48888
24.14642	-5.99826	3.48888
24.15061	-5.99826	3.48888
24.15479	-5.99826	3.48888
24.15909	-5.99826	3.48888
24.16329	-5.99826	3.48888
24.16747	-5.99826	3.48888
24.17165	-5.99826	3.48888
24.17584	-5.99826	3.48888
24.18002	-5.99826	3.48888
24.18421	-5.99826	3.48888
24.18846	-5.99826	3.48888
24.19273	-5.99826	3.48888
24.19688	-5.99826	3.48888
24.20106	-5.99826	3.48888
24.20535	-5.99826	3.48888
24.20953	-5.99826	3.48888
24.21372	-5.99826	3.48888
24.21790	-5.99826	3.48888
24.22219	-5.99826	3.48888
24.22639	-5.99826	3.48888
24.23057	-5.99826	3.48888
24.23476	-5.99826	3.48888
24.23894	-5.99826	3.48888
24.24313	-5.97629	3.48888
24.24732	-5.99826	3.48888
24.25158	-5.97629	3.48888
24.25587	-5.97629	3.48888
24.26007	-5.97629	3.48888
24.26427	-5.99826	3.48888
24.26846	-5.97629	3.48888
24.27264	-5.97629	3.48888
24.27684	-5.97629	3.48888
24.28102	-5.97629	3.48888
24.28532	-5.97629	3.48888
24.28955	-5.97629	3.48888
24.29374	-5.97629	3.48888
24.29793	-5.97629	3.48888
24.30211	-5.99826	3.48888
24.30640	-5.95431	3.48888
24.31058	-5.95431	3.48888
24.31500	-5.95431	3.48888
24.31921	-5.95431	3.48888
24.32343	-5.97629	3.48888
24.32762	-5.95431	3.48888
24.33181	-5.95431	3.48888
24.33599	-5.95431	3.48888
24.34018	-5.95431	3.48888
24.34442	-5.95431	3.48888
24.34871	-5.95431	3.48888
24.35289	-5.95431	3.48888
24.35708	-5.95431	3.48888
24.36127	-5.93234	3.48888
24.36546	-5.93234	3.48888
24.36964	-5.93234	3.48888
24.37383	-5.93234	3.48888
24.37814	-5.93234	3.48888
24.38234	-5.93234	3.48888
24.38653	-5.93234	3.48888
24.39071	-5.93234	3.48888
24.39490	-5.93234	3.48888
24.39908	-5.93234	3.48888
24.40327	-5.93234	3.48888
24.40763	-5.93234	3.48888
24.41190	-5.91037	3.48888
24.41609	-5.91037	3.48888
24.42027	-5.91037	3.48888
24.42446	-5.91037	3.48888
24.42864	-5.91037	3.48888
24.43283	-5.91037	3.48888
24.43702	-5.91037	3.48888
24.44132	-5.91037	3.48888
24.44553	-5.91037	3.48888
24.44971	-5.91037	3.48888
24.45390	-5.88839	3.48888
24.45808	-5.88839	3.48888
24.46226	-5.88839	3.48888
24.46645	-5.88839	3.48888
24.47070	-5.88839	3.48888
24.47499	-5.88839	3.48888
24.47919	-5.88839	3.48888
24.48338	-5.86642	3.48888
24.48757	-5.88839	3.48888
24.49175	-5.88839	3.48888
24.49593	-5.86642	3.48888
24.50012	-5.86642	3.48888
24.50442	-5.86642	3.48888
24.50871	-5.84445	3.48888
24.51287	-5.84445	3.48888
24.51706	-5.84445	3.48888
24.52126	-5.84445	3.48888
24.52545	-5.84445	3.48888
24.52964	-5.84445	3.48888
24.53408	-5.84445	3.48888
24.53829	-5.84445	3.48888
24.54248	-5.82248	3.48888
24.54666	-5.82248	3.48888
24.55085	-5.82248	3.48888
24.55503	-5.82248	3.48888
24.55922	-5.82248	3.48888
24.56350	-5.82248	3.48888
24.56779	-5.80050	3.48888
24.57199	-5.80050	3.48888
24.57618	-5.80050	3.48888
24.58037	-5.80050	3.48888
24.58456	-5.80050	3.48888
24.58875	-5.77853	3.48888
24.59294	-5.77853	3.48888
24.59725	-5.77853	3.48888
24.60145	-5.77853	3.48888
24.60564	-5.77853	3.48888
24.60993	-5.77853	3.48888
24.61411	-5.77853	3.48888
24.61830	-5.77853	3.48888
24.62248	-5.77853	3.48888
24.62674	-5.77853	3.48888
24.63102	-5.77853	3.48888
24.63522	-5.75656	3.48888
24.63940	-5.75656	3.48888
24.64359	-5.75656	3.48888
24.64778	-5.75656	3.48888
24.65196	-5.75656	3.48888
24.65615	-5.75656	3.48888
24.66045	-5.75656	3.48888
24.66465	-5.73459	3.48888
24.66885	-5.73459	3.48888
24.67303	-5.73459	3.48888
24.67722	-5.73459	3.48888
24.68140	-5.73459	3.48888
24.68559	-5.73459	3.48888
24.69003	-5.73459	3.48888
24.69424	-5.71261	3.48888
24.69843	-5.71261	3.48888
24.70261	-5.71261	3.48888
24.70680	-5.71261	3.48888
24.71108	-5.71261	3.48888
24.71527	-5.71261	3.48888
24.71952	-5.71261	3.48888
24.72378	-5.71261	3.48888
24.72798	-5.71261	3.48888
24.73217	-5.71261	3.48888
24.73635	-5.69064	3.48888
24.74054	-5.69064	3.48888
24.74472	-5.69064	3.48888
24.74887	-5.69064	3.48888
24.75316	-5.69064	3.48888
24.75736	-5.69064	3.48888
24.76155	-5.69064	3.48888
24.76573	-5.69064	3.48888
24.76992	-5.69064	3.48888
24.77410	-5.66867	3.48888
24.77828	-5.66867	3.48888
24.78270	-5.66867	3.48888
24.78691	-5.66867	3.48888
24.79110	-5.66867	3.48888
24.79528	-5.66867	3.48888
24.79946	-5.66867	3.48888
24.80365	-5.64670	3.48888
24.80783	-5.64670	3.48888
24.81222	-5.64670	3.48888
24.81650	-5.64670	3.48888
24.82072	-5.64670	3.48888
24.82488	-5.64670	3.48888
24.82908	-5.64670	3.48888
24.83326	-5.64670	3.48888
24.83746	-5.64670	3.48888
24.84164	-5.64670	3.48888
24.84593	-5.62472	3.48888
24.85014	-5.64670	3.48888
24.85433	-5.62472	3.48888
24.85851	-5.62472	3.48888
24.86271	-5.62472	3.48888
24.86689	-5.62472	3.48888
24.87108	-5.62472	3.48888
24.87536	-5.62472	3.48888
24.87962	-5.62472	3.48888
24.88381	-5.62472	3.48888
24.88800	-5.62472	3.48888
24.89218	-5.62472	3.48888
24.89637	-5.62472	3.48888
24.90055	-5.62472	3.48888
24.90484	-5.62472	3.48888
24.90914	-5.60275	3.48888
24.91344	-5.60275	3.48888
24.91763	-5.60275	3.48888
24.92182	-5.60275	3.48888
24.92600	-5.62472	3.48888
24.93018	-5.60275	3.48888
24.93437	-5.60275	3.48888
24.93866	-5.60275	3.48888
24.94287	-5.60275	3.48888
24.94705	-5.60275	3.48888
24.95124	-5.60275	3.48888
24.95542	-5.60275	3.48888
24.95961	-5.60275	3.48888
24.96379	-5.60275	3.48888
24.96804	-5.60275	3.48888
24.97230	-5.60275	3.48888
24.97649	-5.60275	3.48888
24.98068	-5.60275	3.48888
24.98487	-5.60275	3.48888
24.98906	-5.60275	3.48888
24.99324	-5.60275	3.48888
24.99742	-5.60275	3.48888
25.00172	-5.60275	3.48888
25.00592	-5.60275	3.48888
25.01011	-5.60275	3.48888
25.01440	-5.60275	3.48888
25.01858	-5.60275	3.48888
25.02278	-5.60275	3.48888
25.02698	-5.60275	3.48888
25.03143	-5.60275	3.48888
25.03564	-5.60275	3.48888
25.03983	-5.60275	3.48888
25.04401	-5.60275	3.48888
25.04820	-5.60275	3.48888
25.05238	-5.60275	3.48888
25.05657	-5.60275	3.48888
25.06083	-5.60275	3.48888
25.06512	-5.60275	3.48888
25.06932	-5.60275	3.48888
25.07350	-5.60275	3.48888
25.07769	-5.60275	3.48888
25.08187	-5.60275	3.48888
25.08607	-5.60275	3.48888
25.09028	-5.60275	3.48888
25.09459	-5.60275	3.48888
25.09880	-5.60275	3.48888
25.10298	-5.60275	3.48888
25.10717	-5.60275	3.48888
25.11136	-5.60275	3.48888
25.11565	-5.60275	3.48888
25.11983	-5.60275	3.48888
25.12409	-5.62472	3.48888
25.12838	-5.62472	3.48888
25.13258	-5.62472	3.48888
25.13677	-5.60275	3.48888
25.14096	-5.62472	3.48888
25.14515	-5.60275	3.48888
25.14933	-5.62472	3.48888
25.15352	-5.62472	3.48888
25.15782	-5.60275	3.48888
25.16203	-5.60275	3.48888
25.16622	-5.62472	3.48888
25.17041	-5.62472	3.48888
25.17459	-5.62472	3.48888
25.17878	-5.62472	3.48888
25.18296	-5.62472	3.48888
25.18739	-5.62472	3.48888
25.19160	-5.62472	3.48888
25.19579	-5.62472	3.48888
25.19997	-5.62472	3.48888
25.20416	-5.62472	3.48888
25.20834	-5.62472	3.48888
25.21253	-5.62472	3.48888
25.21693	-5.62472	3.48888
25.22122	-5.62472	3.48888
25.22542	-5.64670	3.48888
25.22961	-5.64670	3.48888
25.23379	-5.62472	3.48888
25.23798	-5.62472	3.48888
25.24217	-5.62472	3.48888
25.24636	-5.64670	3.48888
25.25067	-5.64670	3.48888
25.25489	-5.64670	3.48888
25.25908	-5.64670	3.48888
25.26327	-5.64670	3.48888
25.26746	-5.64670	3.48888
25.27164	-5.64670	3.48888
25.27583	-5.64670	3.48888
25.28028	-5.64670	3.48888
25.28448	-5.64670	3.48888
25.28868	-5.64670	3.48888
25.29287	-5.64670	3.48888
25.29706	-5.64670	3.48888
25.30124	-5.66867	3.48888
25.30543	-5.64670	3.48888
25.30968	-5.64670	3.48888
25.31396	-5.64670	3.48888
25.31825	-5.64670	3.48888
25.32244	-5.66867	3.48888
25.32663	-5.66867	3.48888
25.33083	-5.66867	3.48888
25.33504	-5.66867	3.48888
25.33936	-5.66867	3.48888
25.34362	-5.66867	3.48888
25.34788	-5.66867	3.48888
25.35208	-5.69064	3.48888
25.35628	-5.66867	3.48888
25.36050	-5.66867	3.48888
25.36472	-5.66867	3.48888
25.36888	-5.69064	3.48888
25.37317	-5.69064	3.48888
25.37752	-5.69064	3.48888
25.38173	-5.69064	3.48888
25.38592	-5.69064	3.48888
25.39011	-5.69064	3.48888
25.39431	-5.69064	3.48888
25.39849	-5.71261	3.48888
25.40278	-5.71261	3.48888
25.40699	-5.71261	3.48888
25.41120	-5.71261	3.48888
25.41539	-5.71261	3.48888
25.41968	-5.71261	3.48888
25.42386	-5.71261	3.48888
25.42804	-5.71261	3.48888
25.43232	-5.73459	3.48888
25.43661	-5.73459	3.48888
25.44082	-5.73459	3.48888
25.44501	-5.73459	3.48888
25.44919	-5.73459	3.48888
25.45338	-5.73459	3.48888
25.45756	-5.73459	3.48888
25.46175	-5.75656	3.48888
25.46605	-5.75656	3.48888
25.47026	-5.75656	3.48888
25.47444	-5.75656	3.48888
25.47864	-5.75656	3.48888
25.48283	-5.75656	3.48888
25.48701	-5.75656	3.48888
25.49120	-5.75656	3.48888
25.49547	-5.77853	3.48888
25.49972	-5.77853	3.48888
25.50392	-5.77853	3.48888
25.50810	-5.77853	3.48888
25.51230	-5.80050	3.48888
25.51649	-5.80050	3.48888
25.52079	-5.80050	3.48888
25.52499	-5.80050	3.48888
25.52930	-5.80050	3.48888
25.53351	-5.80050	3.48888
25.53770	-5.80050	3.48888
25.54188	-5.82248	3.48888
25.54607	-5.82248	3.48888
25.55026	-5.82248	3.48888
25.55444	-5.82248	3.48888
25.55888	-5.82248	3.48888
25.56309	-5.84445	3.48888
25.56728	-5.84445	3.48888
25.57149	-5.84445	3.48888
25.57568	-5.84445	3.48888
25.57986	-5.84445	3.48888
25.58405	-5.86642	3.48888
25.58837	-5.86642	3.48888
25.59263	-5.88839	3.48888
25.59689	-5.86642	3.48888
25.60109	-5.88839	3.48888
25.60528	-5.88839	3.48888
25.60948	-5.88839	3.48888
25.61368	-5.88839	3.48888
25.61787	-5.91037	3.48888
25.62228	-5.91037	3.48888
25.62649	-5.91037	3.48888
25.63072	-5.91037	3.48888
25.63491	-5.91037	3.48888
25.63911	-5.93234	3.48888
25.64330	-5.93234	3.48888
25.64749	-5.95431	3.48888
25.65192	-5.95431	3.48888
25.65613	-5.95431	3.48888
25.66032	-5.95431	3.48888
25.66451	-5.95431	3.48888
25.66869	-5.97629	3.48888
25.67288	-5.97629	3.48888
25.67706	-5.97629	3.48888
25.68132	-5.99826	3.48888
25.68559	-5.99826	3.48888
25.68979	-5.99826	3.48888
25.69398	-5.99826	3.48888
25.69816	-6.02023	3.48888
25.70235	-6.02023	3.48888
25.70653	-6.04220	3.48888
25.71072	-6.04220	3.48888
25.71501	-6.04220	3.48888
25.71922	-6.04220	3.48888
25.72351	-6.06418	3.48888
25.72769	-6.06418	3.48888
25.73188	-6.06418	3.48888
25.73606	-6.08615	3.48888
25.74025	-6.08615	3.48888
25.74471	-6.10812	3.48888
25.74890	-6.10812	3.48888
25.75309	-6.10812	3.48888
25.75727	-6.13009	3.48888
25.76146	-6.13009	3.48888
25.76570	-6.13009	3.48888
25.76990	-6.13009	3.48888
25.77417	-6.15207	3.48888
25.77843	-6.15207	3.48888
25.78263	-6.15207	3.48888
25.78682	-6.15207	3.48888
25.79100	-6.17404	3.48888
25.79519	-6.17404	3.48888
25.79937	-6.19601	3.48888
25.80356	-6.21798	3.48888
25.80786	-6.21798	3.48888
25.81207	-6.21798	3.48888
25.81625	-6.21798	3.48888
25.82044	-6.23996	3.48888
25.82475	-6.23996	3.48888
25.82893	-6.23996	3.48888
25.83312	-6.26193	3.48888
25.83756	-6.28390	3.48888
25.84176	-6.28390	3.48888
25.84595	-6.28390	3.48888
25.85013	-6.28390	3.48888
25.85432	-6.30588	3.48888
25.85850	-6.30588	3.48888
25.86269	-6.30588	3.48888
25.86695	-6.30588	3.48888
25.87124	-6.32785	3.48888
25.87543	-6.32785	3.48888
25.87962	-6.34982	3.48888
25.88380	-6.34982	3.48888
25.88799	-6.37179	3.48888
25.89217	-6.37179	3.48888
25.89637	-6.37179	3.48888
25.90067	-6.39377	3.48888
25.90488	-6.39377	3.48888
25.90907	-6.39377	3.48888
25.91325	-6.41574	3.48888
25.91744	-6.41574	3.48888
25.92162	-6.41574	3.48888
25.92591	-6.43771	3.48888
25.93017	-6.43771	3.48888
25.93443	-6.45968	3.48888
25.93862	-6.45968	3.48888
25.94281	-6.48166	3.48888
25.94700	-6.48166	3.48888
25.95118	-6.48166	3.48888
25.95537	-6.48166	3.48888
25.95955	-6.50363	3.48888
25.96384	-6.50363	3.48888
25.96806	-6.52560	3.48888
25.97225	-6.52560	3.48888
25.97643	-6.52560	3.48888
25.98064	-6.54757	3.48888
25.98484	-6.54757	3.48888
25.98902	-6.56955	3.48888
25.99388	-6.59152	3.48888
25.99810	-6.59152	3.48888
26.00229	-6.59152	3.48888
26.00648	-6.59152	3.48888
26.01069	-6.61349	3.48888
26.01489	-6.61349	3.48888
26.01907	-6.63547	3.48888
26.02336	-6.63547	3.48888
26.02783	-6.63547	3.48888
26.03205	-6.65744	3.48888
26.03627	-6.65744	3.48888
26.04049	-6.67941	3.48888
26.04471	-6.67941	3.48888
26.04888	-6.70138	3.48888
26.05317	-6.70138	3.48888
26.05747	-6.70138	3.48888
26.06169	-6.70138	3.48888
26.06589	-6.70138	3.48888
26.07009	-6.72336	3.48888
26.07428	-6.72336	3.48888
26.07847	-6.74533	3.48888
26.08266	-6.74533	3.48888
26.08699	-6.74533	3.48888
26.09121	-6.76730	3.48888
26.09541	-6.76730	3.48888
26.09961	-6.76730	3.48888
26.10380	-6.78927	3.48888
26.10799	-6.78927	3.48888
26.11218	-6.78927	3.48888
26.11644	-6.81125	3.48888
26.12073	-6.81125	3.48888
26.12490	-6.81125	3.48888
26.12921	-6.83322	3.48888
26.13340	-6.83322	3.48888
26.13759	-6.83322	3.48888
26.14178	-6.83322	3.48888
26.14597	-6.85519	3.48888
26.15028	-6.85519	3.48888
26.15450	-6.87716	3.48888
26.15869	-6.87716	3.48888
26.16289	-6.87716	3.48888
26.16708	-6.89914	3.48888
26.17127	-6.87716	3.48888
26.17546	-6.89914	3.48888
26.17990	-6.89914	3.48888
26.18411	-6.92111	3.48888
26.18832	-6.92111	3.48888
26.19252	-6.92111	3.48888
26.19672	-6.92111	3.48888
26.20089	-6.94308	3.48888
26.20508	-6.94308	3.48888
26.20936	-6.94308	3.48888
26.21366	-6.96506	3.48888
26.21787	-6.96506	3.48888
26.22206	-6.96506	3.48888
26.22625	-6.96506	3.48888
26.23056	-6.96506	3.48888
26.23475	-6.98703	3.48888
26.23896	-6.98703	3.48888
26.24330	-6.98703	3.48888
26.24752	-6.98703	3.48888
26.25172	-7.00900	3.48888
26.25591	-7.00900	3.48888
26.26012	-7.00900	3.48888
26.26431	-7.00900	3.48888
26.26850	-7.00900	3.48888
26.27294	-7.03097	3.48888
26.27717	-7.03097	3.48888
26.28136	-7.03097	3.48888
26.28555	-7.03097	3.48888
26.28975	-7.03097	3.48888
26.29394	-7.03097	3.48888
26.29814	-7.05295	3.48888
26.30242	-7.05295	3.48888
26.30672	-7.05295	3.48888
26.31093	-7.05295	3.48888
26.31512	-7.05295	3.48888
26.31930	-7.07492	3.48888
26.32349	-7.07492	3.48888
26.32767	-7.05295	3.48888
26.33196	-7.07492	3.48888
26.33626	-7.07492	3.48888
26.34046	-7.09689	3.48888
26.34465	-7.09689	3.48888
26.34885	-7.09689	3.48888
26.35304	-7.09689	3.48888
26.35724	-7.09689	3.48888
26.36142	-7.09689	3.48888
26.36569	-7.09689	3.48888
26.36997	-7.09689	3.48888
26.37417	-7.09689	3.48888
26.37835	-7.09689	3.48888
26.38254	-7.09689	3.48888
26.38674	-7.09689	3.48888
26.39094	-7.11886	3.48888
26.39514	-7.11886	3.48888
26.39944	-7.11886	3.48888
26.40363	-7.11886	3.48888
26.40779	-7.11886	3.48888
26.41196	-7.11886	3.48888
26.41612	-7.11886	3.48888
26.42028	-7.11886	3.48888
26.42445	-7.14084	3.48888
26.42869	-7.14084	3.48888
26.43302	-7.14084	3.48888
26.43720	-7.11886	3.48888
26.44136	-7.11886	3.48888
26.44553	-7.14084	3.48888
26.44969	-7.14084	3.48888
26.45385	-7.14084	3.48888
26.45802	-7.14084	3.48888
26.46229	-7.14084	3.48888
26.46647	-7.14084	3.48888
26.47063	-7.14084	3.48888
26.47480	-7.14084	3.48888
26.47896	-7.14084	3.48888
26.48312	-7.14084	3.48888
26.48730	-7.11886	3.48888
26.49156	-7.14084	3.48888
26.49581	-7.14084	3.48888
26.49998	-7.14084	3.48888
26.50417	-7.11886	3.48888
26.50836	-7.14084	3.48888
26.51255	-7.14084	3.48888
26.51674	-7.14084	3.48888
26.52093	-7.14084	3.48888
26.52523	-7.11886	3.48888
26.52943	-7.11886	3.48888
26.53372	-7.14084	3.48888
26.53791	-7.14084	3.48888
26.54209	-7.14084	3.48888
26.54627	-7.14084	3.48888
26.55046	-7.11886	3.48888
26.55485	-7.11886	3.48888
26.55907	-7.14084	3.48888
26.56326	-7.14084	3.48888
26.56744	-7.11886	3.48888
26.57163	-7.11886	3.48888
26.57581	-7.11886	3.48888
26.57999	-7.11886	3.48888
26.58423	-7.11886	3.48888
26.58854	-7.11886	3.48888
26.59276	-7.11886	3.48888
26.59696	-7.11886	3.48888
26.60115	-7.11886	3.48888
26.60533	-7.11886	3.48888
26.60951	-7.11886	3.48888
26.61370	-7.11886	3.48888
26.61800	-7.09689	3.48888
26.62220	-7.09689	3.48888
26.62639	-7.09689	3.48888
26.63057	-7.09689	3.48888
26.63486	-7.09689	3.48888
26.63905	-7.09689	3.48888
26.64323	-7.09689	3.48888
26.64748	-7.09689	3.48888
26.65176	-7.09689	3.48888
26.65596	-7.09689	3.48888
26.66015	-7.07492	3.48888
26.66433	-7.07492	3.48888
26.66851	-7.09689	3.48888
26.67270	-7.07492	3.48888
26.67687	-7.07492	3.48888
26.68117	-7.07492	3.48888
26.68537	-7.07492	3.48888
26.68957	-7.07492	3.48888
26.69377	-7.07492	3.48888
26.69796	-7.05295	3.48888
26.70215	-7.07492	3.48888
26.70634	-7.05295	3.48888
26.71073	-7.05295	3.48888
26.71496	-7.05295	3.48888
26.71916	-7.05295	3.48888
26.72334	-7.05295	3.48888
26.72753	-7.03097	3.48888
26.73172	-7.03097	3.48888
26.73601	-7.03097	3.48888
26.74027	-7.03097	3.48888
26.74455	-7.03097	3.48888
26.74875	-7.03097	3.48888
26.75294	-7.00900	3.48888
26.75712	-7.00900	3.48888
26.76131	-7.00900	3.48888
26.76549	-7.00900	3.48888
26.76967	-7.00900	3.48888
26.77397	-7.00900	3.48888
26.77818	-6.98703	3.48888
26.78237	-6.98703	3.48888
26.78655	-6.98703	3.48888
26.79075	-6.98703	3.48888
26.79495	-6.96506	3.48888
26.79913	-6.96506	3.48888
26.80340	-6.96506	3.48888
26.80770	-6.94308	3.48888
26.81190	-6.94308	3.48888
26.81608	-6.94308	3.48888
26.82027	-6.94308	3.48888
26.82445	-6.94308	3.48888
26.82864	-6.92111	3.48888
26.83283	-6.92111	3.48888
26.83723	-6.92111	3.48888
26.84143	-6.89914	3.48888
26.84562	-6.89914	3.48888
26.84980	-6.89914	3.48888
26.85398	-6.89914	3.48888
26.85817	-6.87716	3.48888
26.86235	-6.87716	3.48888
26.86675	-6.87716	3.48888
26.87098	-6.85519	3.48888
26.87517	-6.85519	3.48888
26.87935	-6.85519	3.48888
26.88354	-6.85519	3.48888
26.88774	-6.83322	3.48888
26.89193	-6.83322	3.48888
26.89617	-6.83322	3.48888
26.90047	-6.83322	3.48888
26.90467	-6.81125	3.48888
26.90894	-6.81125	3.48888
26.91315	-6.81125	3.48888
26.91736	-6.78927	3.48888
26.92157	-6.78927	3.48888
26.92640	-6.76730	3.48888
26.93083	-6.76730	3.48888
26.93509	-6.76730	3.48888
26.93949	-6.74533	3.48888
26.94370	-6.74533	3.48888
26.94790	-6.74533	3.48888
26.95211	-6.72336	3.48888
26.95631	-6.72336	3.48888
26.96069	-6.72336	3.48888
26.96491	-6.72336	3.48888
26.96912	-6.70138	3.48888
26.97332	-6.70138	3.48888
26.97752	-6.70138	3.48888
26.98172	-6.67941	3.48888
26.98590	-6.67941	3.48888
26.99016	-6.65744	3.48888
26.99450	-6.65744	3.48888
26.99872	-6.65744	3.48888
27.00292	-6.65744	3.48888
27.00711	-6.63547	3.48888
27.01130	-6.63547	3.48888
27.01549	-6.63547	3.48888
27.01967	-6.61349	3.48888
27.02403	-6.61349	3.48888
27.02825	-6.59152	3.48888
27.03244	-6.59152	3.48888
27.03662	-6.59152	3.48888
27.04091	-6.59152	3.48888
27.04509	-6.56955	3.48888
27.04927	-6.56955	3.48888
27.05396	-6.54757	3.48888
27.05816	-6.54757	3.48888
27.06236	-6.54757	3.48888
27.06655	-6.54757	3.48888
27.07073	-6.52560	3.48888
27.07491	-6.52560	3.48888
27.07908	-6.50363	3.48888
27.08333	-6.50363	3.48888
27.08760	-6.48166	3.48888
27.09179	-6.48166	3.48888
27.09597	-6.48166	3.48888
27.10014	-6.45968	3.48888
27.10432	-6.45968	3.48888
27.10850	-6.45968	3.48888
27.11270	-6.43771	3.48888
27.11699	-6.43771	3.48888
27.12119	-6.43771	3.48888
27.12538	-6.41574	3.48888
27.12957	-6.41574	3.48888
27.13375	-6.41574	3.48888
27.13793	-6.39377	3.48888
27.14222	-6.39377	3.48888
27.14663	-6.39377	3.48888
27.15085	-6.39377	3.48888
27.15503	-6.37179	3.48888
27.15922	-6.37179	3.48888
27.16340	-6.34982	3.48888
27.16758	-6.34982	3.48888
27.17177	-6.34982	3.48888
27.17602	-6.34982	3.48888
27.18030	-6.32785	3.48888
27.18450	-6.32785	3.48888
27.18869	-6.30588	3.48888
27.19287	-6.30588	3.48888
27.19706	-6.30588	3.48888
27.20124	-6.30588	3.48888
27.20543	-6.28390	3.48888
27.20974	-6.28390	3.48888
27.21394	-6.28390	3.48888
27.21813	-6.26193	3.48888
27.22231	-6.26193	3.48888
27.22650	-6.26193	3.48888
27.23068	-6.23996	3.48888
27.23486	-6.23996	3.48888
27.23912	-6.23996	3.48888
27.24350	-6.23996	3.48888
27.24770	-6.21798	3.48888
27.25188	-6.21798	3.48888
27.25607	-6.21798	3.48888
27.26026	-6.19601	3.48888
27.26444	-6.19601	3.48888
27.26862	-6.17404	3.48888
27.27294	-6.17404	3.48888
27.27715	-6.17404	3.48888
27.28133	-6.17404	3.48888
27.28552	-6.17404	3.48888
27.28970	-6.15207	3.48888
27.29389	-6.13009	3.48888
27.29809	-6.13009	3.48888
27.30236	-6.13009	3.48888
27.30664	-6.13009	3.48888
27.31084	-6.10812	3.48888
27.31503	-6.10812	3.48888
27.31922	-6.08615	3.48888
27.32341	-6.08615	3.48888
27.32760	-6.08615	3.48888
27.33179	-6.08615	3.48888
27.33609	-6.08615	3.48888
27.34029	-6.06418	3.48888
27.34458	-6.06418	3.48888
27.34878	-6.04220	3.48888
27.35297	-6.04220	3.48888
27.35715	-6.04220	3.48888
27.36134	-6.02023	3.48888
27.36575	-6.02023	3.48888
27.36997	-6.02023	3.48888
27.37416	-5.99826	3.48888
27.37834	-5.99826	3.48888
27.38253	-5.99826	3.48888
27.38671	-5.99826	3.48888
27.39090	-5.97629	3.48888
27.39516	-5.97629	3.48888
27.39945	-5.97629	3.48888
27.40365	-5.95431	3.48888
27.40783	-5.95431	3.48888
27.41202	-5.95431	3.48888
27.41620	-5.95431	3.48888
27.42039	-5.93234	3.48888
27.42458	-5.93234	3.48888
27.42891	-5.93234	3.48888
27.43311	-5.93234	3.48888
27.43729	-5.93234	3.48888
27.44148	-5.91037	3.48888
27.44577	-5.91037	3.48888
27.44995	-5.91037	3.48888
27.45414	-5.88839	3.48888
27.45839	-5.88839	3.48888
27.46266	-5.88839	3.48888
27.46685	-5.88839	3.48888
27.47104	-5.86642	3.48888
27.47522	-5.86642	3.48888
27.47941	-5.86642	3.48888
27.48359	-5.86642	3.48888
27.48778	-5.86642	3.48888
27.49208	-5.86642	3.48888
27.49628	-5.84445	3.48888
27.50047	-5.84445	3.48888
27.50465	-5.84445	3.48888
27.50884	-5.84445	3.48888
27.51303	-5.84445	3.48888
27.51721	-5.84445	3.48888
27.52147	-5.82248	3.48888
27.52577	-5.82248	3.48888
27.52997	-5.82248	3.48888
27.53416	-5.82248	3.48888
27.53835	-5.82248	3.48888
27.54253	-5.82248	3.48888
27.54682	-5.80050	3.48888
27.55100	-5.82248	3.48888
27.55530	-5.80050	3.48888
27.55950	-5.80050	3.48888
27.56369	-5.80050	3.48888
27.56788	-5.80050	3.48888
27.57206	-5.80050	3.48888
27.57625	-5.80050	3.48888
27.58043	-5.80050	3.48888
27.58468	-5.77853	3.48888
27.58896	-5.80050	3.48888
27.59316	-5.80050	3.48888
27.59734	-5.77853	3.48888
27.60153	-5.77853	3.48888
27.60571	-5.77853	3.48888
27.60989	-5.77853	3.48888
27.61408	-5.77853	3.48888
27.61837	-5.77853	3.48888
27.62257	-5.77853	3.48888
27.62675	-5.77853	3.48888
27.63094	-5.77853	3.48888
27.63512	-5.77853	3.48888
27.63930	-5.77853	3.48888
27.64349	-5.77853	3.48888
27.64784	-5.77853	3.48888
27.65211	-5.77853	3.48888
27.65631	-5.75656	3.48888
27.66050	-5.77853	3.48888
27.66468	-5.75656	3.48888
27.66887	-5.75656	3.48888
27.67305	-5.75656	3.48888
27.67724	-5.75656	3.48888
27.68154	-5.75656	3.48888
27.68573	-5.75656	3.48888
27.68992	-5.75656	3.48888
27.69411	-5.75656	3.48888
27.69829	-5.75656	3.48888
27.70247	-5.75656	3.48888
27.70666	-5.75656	3.48888
27.71091	-5.75656	3.48888
27.71518	-5.75656	3.48888
27.71937	-5.75656	3.48888
27.72356	-5.75656	3.48888
27.72774	-5.75656	3.48888
27.73193	-5.75656	3.48888
27.73611	-5.75656	3.48888
27.74029	-5.75656	3.48888
27.74459	-5.75656	3.48888
27.74892	-5.75656	3.48888
27.75311	-5.75656	3.48888
27.75729	-5.75656	3.48888
27.76148	-5.75656	3.48888
27.76566	-5.75656	3.48888
27.76985	-5.75656	3.48888
27.77427	-5.75656	3.48888
27.77848	-5.75656	3.48888
27.78267	-5.75656	3.48888
27.78685	-5.73459	3.48888
27.79104	-5.75656	3.48888
27.79522	-5.75656	3.48888
27.79940	-5.75656	3.48888
27.80365	-5.75656	3.48888
27.80794	-5.75656	3.48888
27.81214	-5.75656	3.48888
27.81633	-5.75656	3.48888
27.82051	-5.75656	3.48888
27.82470	-5.75656	3.48888
27.82887	-5.75656	3.48888
27.83306	-5.75656	3.48888
27.83743	-5.75656	3.48888
27.84168	-5.75656	3.48888
27.84589	-5.75656	3.48888
27.85024	-5.75656	3.48888
27.85448	-5.75656	3.48888
27.85871	-5.75656	3.48888
27.86294	-5.75656	3.48888
27.86769	-5.75656	3.48888
27.87199	-5.77853	3.48888
27.87621	-5.75656	3.48888
27.88042	-5.75656	3.48888
27.88462	-5.77853	3.48888
27.88885	-5.77853	3.48888
27.89306	-5.75656	3.48888
27.89890	-5.77853	3.48888
27.90321	-5.77853	3.48888
27.90742	-5.77853	3.48888
27.91163	-5.77853	3.48888
27.91585	-5.77853	3.48888
27.92007	-5.77853	3.48888
27.92428	-5.77853	3.48888
27.92905	-5.77853	3.48888
27.93336	-5.77853	3.48888
27.93756	-5.77853	3.48888
27.94175	-5.77853	3.48888
27.94594	-5.77853	3.48888
27.95013	-5.77853	3.48888
27.95443	-5.77853	3.48888
27.95862	-5.77853	3.48888
27.96293	-5.77853	3.48888
27.96713	-5.77853	3.48888
27.97132	-5.77853	3.48888
27.97551	-5.80050	3.48888
27.97969	-5.80050	3.48888
27.98388	-5.77853	3.48888
27.98806	-5.77853	3.48888
27.99233	-5.80050	3.48888
27.99659	-5.80050	3.48888
28.00080	-5.77853	3.48888
28.00499	-5.77853	3.48888
28.00917	-5.80050	3.48888
28.01336	-5.80050	3.48888
28.01755	-5.80050	3.48888
28.02173	-5.80050	3.48888
28.02603	-5.80050	3.48888
28.03024	-5.80050	3.48888
28.03442	-5.80050	3.48888
28.03861	-5.80050	3.48888
28.04279	-5.80050	3.48888
28.04698	-5.80050	3.48888
28.05116	-5.80050	3.48888
28.05553	-5.82248	3.48888
28.05979	-5.82248	3.48888
28.06399	-5.80050	3.48888
28.06818	-5.82248	3.48888
28.07236	-5.82248	3.48888
28.07655	-5.82248	3.48888
28.08073	-5.82248	3.48888
28.08491	-5.82248	3.48888
28.08921	-5.82248	3.48888
28.09342	-5.82248	3.48888
28.09761	-5.82248	3.48888
28.10179	-5.82248	3.48888
28.10597	-5.82248	3.48888
28.11016	-5.82248	3.48888
28.11434	-5.84445	3.48888
28.11876	-5.82248	3.48888
28.12297	-5.84445	3.48888
28.12716	-5.84445	3.48888
28.13134	-5.84445	3.48888
28.13553	-5.84445	3.48888
28.13971	-5.84445	3.48888
28.14389	-5.84445	3.48888
28.14816	-5.84445	3.48888
28.15244	-5.84445	3.48888
28.15675	-5.86642	3.48888
28.16094	-5.86642	3.48888
28.16513	-5.86642	3.48888
28.16931	-5.86642	3.48888
28.17350	-5.86642	3.48888
28.17768	-5.88839	3.48888
28.18197	-5.88839	3.48888
28.18617	-5.88839	3.48888
28.19036	-5.88839	3.48888
28.19455	-5.88839	3.48888
28.19873	-5.88839	3.48888
28.20292	-5.88839	3.48888
28.20710	-5.88839	3.48888
28.21135	-5.91037	3.48888
28.21562	-5.91037	3.48888
28.21981	-5.91037	3.48888
28.22400	-5.91037	3.48888
28.22819	-5.91037	3.48888
28.23237	-5.91037	3.48888
28.23656	-5.91037	3.48888
28.24076	-5.91037	3.48888
28.24507	-5.93234	3.48888
28.24932	-5.93234	3.48888
28.25352	-5.93234	3.48888
28.25782	-5.93234	3.48888
28.26202	-5.95431	3.48888
28.26621	-5.95431	3.48888
28.27040	-5.95431	3.48888
28.27485	-5.95431	3.48888
28.27907	-5.97629	3.48888
28.28326	-5.97629	3.48888
28.28745	-5.97629	3.48888
28.29164	-5.97629	3.48888
28.29583	-5.97629	3.48888
28.30002	-5.99826	3.48888
28.30431	-5.99826	3.48888
28.30859	-5.99826	3.48888
28.31281	-5.99826	3.48888
28.31701	-5.99826	3.48888
28.32120	-5.99826	3.48888
28.32539	-6.02023	3.48888
28.32958	-6.02023	3.48888
28.33377	-6.02023	3.48888
28.33808	-6.02023	3.48888
28.34229	-6.02023	3.48888
28.34648	-6.04220	3.48888
28.35067	-6.04220	3.48888
28.35490	-6.04220	3.48888
28.35920	-6.04220	3.48888
28.36339	-6.06418	3.48888
28.36779	-6.06418	3.48888
28.37200	-6.06418	3.48888
28.37619	-6.06418	3.48888
28.38037	-6.06418	3.48888
28.38456	-6.08615	3.48888
28.38875	-6.08615	3.48888
28.39294	-6.08615	3.48888
28.39720	-6.08615	3.48888
28.40146	-6.08615	3.48888
28.40565	-6.08615	3.48888
28.40984	-6.10812	3.48888
28.41402	-6.10812	3.48888
28.41821	-6.10812	3.48888
28.42240	-6.10812	3.48888
28.42658	-6.10812	3.48888
28.43088	-6.10812	3.48888
28.43508	-6.10812	3.48888
28.43926	-6.13009	3.48888
28.44345	-6.13009	3.48888
28.44763	-6.13009	3.48888
28.45182	-6.13009	3.48888
28.45600	-6.13009	3.48888
28.46036	-6.15207	3.48888
28.46460	-6.15207	3.48888
28.46883	-6.15207	3.48888
28.47302	-6.15207	3.48888
28.47722	-6.15207	3.48888
28.48141	-6.15207	3.48888
28.48560	-6.17404	3.48888
28.48979	-6.15207	3.48888
28.49409	-6.17404	3.48888
28.49829	-6.17404	3.48888
28.50247	-6.17404	3.48888
28.50666	-6.17404	3.48888
28.51084	-6.17404	3.48888
28.51503	-6.17404	3.48888
28.51921	-6.17404	3.48888
28.52347	-6.19601	3.48888
28.52773	-6.17404	3.48888
28.53192	-6.17404	3.48888
28.53611	-6.17404	3.48888
28.54029	-6.17404	3.48888
28.54448	-6.19601	3.48888
28.54866	-6.19601	3.48888
28.55285	-6.19601	3.48888
28.55719	-6.19601	3.48888
28.56151	-6.19601	3.48888
28.56570	-6.19601	3.48888
28.56988	-6.19601	3.48888
28.57407	-6.19601	3.48888
28.57825	-6.19601	3.48888
28.58244	-6.19601	3.48888
28.58687	-6.19601	3.48888
28.59108	-6.19601	3.48888
28.59527	-6.19601	3.48888
28.59945	-6.19601	3.48888
28.60364	-6.17404	3.48888
28.60782	-6.17404	3.48888
28.61200	-6.19601	3.48888
28.61626	-6.17404	3.48888
28.62054	-6.19601	3.48888
28.62477	-6.19601	3.48888
28.62896	-6.17404	3.48888
28.63314	-6.17404	3.48888
28.63733	-6.17404	3.48888
28.64151	-6.17404	3.48888
28.64569	-6.19601	3.48888
28.64999	-6.17404	3.48888
28.65419	-6.17404	3.48888
28.65837	-6.17404	3.48888
28.66266	-6.17404	3.48888
28.66685	-6.17404	3.48888
28.67103	-6.17404	3.48888
28.67522	-6.17404	3.48888
28.67947	-6.17404	3.48888
28.68373	-6.17404	3.48888
28.68792	-6.17404	3.48888
28.69211	-6.17404	3.48888
28.69630	-6.17404	3.48888
28.70048	-6.15207	3.48888
28.70467	-6.17404	3.48888
28.70886	-6.17404	3.48888
28.71316	-6.15207	3.48888
28.71736	-6.15207	3.48888
28.72155	-6.15207	3.48888
28.72573	-6.15207	3.48888
28.72992	-6.15207	3.48888
28.73410	-6.15207	3.48888
28.73828	-6.15207	3.48888
28.74270	-6.15207	3.48888
28.74691	-6.15207	3.48888
28.75109	-6.13009	3.48888
28.75528	-6.13009	3.48888
28.75946	-6.13009	3.48888
28.76375	-6.13009	3.48888
28.76793	-6.13009	3.48888
28.77219	-6.13009	3.48888
28.77645	-6.13009	3.48888
28.78064	-6.13009	3.48888
28.78484	-6.13009	3.48888
28.78902	-6.10812	3.48888
28.79321	-6.10812	3.48888
28.79739	-6.10812	3.48888
28.80157	-6.10812	3.48888
28.80587	-6.10812	3.48888
28.81007	-6.08615	3.48888
28.81426	-6.08615	3.48888
28.81844	-6.10812	3.48888
28.82263	-6.08615	3.48888
28.82681	-6.08615	3.48888
28.83099	-6.08615	3.48888
28.83524	-6.08615	3.48888
28.83951	-6.08615	3.48888
28.84370	-6.08615	3.48888
28.84789	-6.06418	3.48888
28.85208	-6.08615	3.48888
28.85626	-6.06418	3.48888
28.86044	-6.06418	3.48888
28.86474	-6.06418	3.48888
28.86905	-6.06418	3.48888
28.87325	-6.06418	3.48888
28.87743	-6.04220	3.48888
28.88162	-6.04220	3.48888
28.88580	-6.04220	3.48888
28.88999	-6.04220	3.48888
28.89417	-6.04220	3.48888
28.89861	-6.04220	3.48888
28.90282	-6.04220	3.48888
28.90701	-6.02023	3.48888
28.91120	-6.02023	3.48888
28.91538	-6.02023	3.48888
28.91957	-6.02023	3.48888
28.92375	-6.02023	3.48888
28.92802	-6.02023	3.48888
28.93230	-6.02023	3.48888
28.93649	-5.99826	3.48888
28.94068	-6.02023	3.48888
28.94487	-5.99826	3.48888
28.94906	-5.99826	3.48888
28.95324	-5.99826	3.48888
28.95742	-5.99826	3.48888
28.96172	-5.99826	3.48888
28.96602	-5.99826	3.48888
28.97021	-5.99826	3.48888
28.97439	-5.97629	3.48888
28.97858	-5.97629	3.48888
28.98276	-5.97629	3.48888
28.98695	-5.97629	3.48888
28.99120	-5.97629	3.48888
28.99547	-5.97629	3.48888
28.99966	-5.97629	3.48888
29.00384	-5.97629	3.48888
29.00803	-5.97629	3.48888
29.01222	-5.95431	3.48888
29.01640	-5.95431	3.48888
29.02059	-5.95431	3.48888
29.02491	-5.95431	3.48888
29.02911	-5.95431	3.48888
29.03330	-5.95431	3.48888
29.03749	-5.95431	3.48888
29.04167	-5.95431	3.48888
29.04586	-5.95431	3.48888
29.05004	-5.93234	3.48888
29.05447	-5.93234	3.48888
29.05868	-5.93234	3.48888
29.06287	-5.93234	3.48888
29.06716	-5.93234	3.48888
29.07134	-5.93234	3.48888
29.07553	-5.93234	3.48888
29.07971	-5.93234	3.48888
29.08397	-5.91037	3.48888
29.08823	-5.93234	3.48888
29.09252	-5.93234	3.48888
29.09675	-5.91037	3.48888
29.10095	-5.91037	3.48888
29.10514	-5.91037	3.48888
29.10934	-5.91037	3.48888
29.11367	-5.91037	3.48888
29.11797	-5.91037	3.48888
29.12218	-5.91037	3.48888
29.12637	-5.91037	3.48888
29.13056	-5.88839	3.48888
29.13475	-5.88839	3.48888
29.13894	-5.88839	3.48888
29.14312	-5.88839	3.48888
29.14743	-5.88839	3.48888
29.15164	-5.88839	3.48888
29.15582	-5.88839	3.48888
29.16001	-5.88839	3.48888
29.16420	-5.88839	3.48888
29.16849	-5.88839	3.48888
29.17268	-5.88839	3.48888
29.17694	-5.88839	3.48888
29.18121	-5.88839	3.48888
29.18540	-5.88839	3.48888
29.18959	-5.88839	3.48888
29.19379	-5.88839	3.48888
29.19799	-5.86642	3.48888
29.20218	-5.86642	3.48888
29.20637	-5.86642	3.48888
29.21067	-5.86642	3.48888
29.21488	-5.86642	3.48888
29.21906	-5.86642	3.48888
29.22325	-5.86642	3.48888
29.22743	-5.88839	3.48888
29.23162	-5.86642	3.48888
29.23581	-5.86642	3.48888
29.24006	-5.86642	3.48888
29.24433	-5.86642	3.48888
29.24854	-5.86642	3.48888
29.25275	-5.86642	3.48888
29.25694	-5.86642	3.48888
29.26113	-5.86642	3.48888
29.26531	-5.88839	3.48888
29.26960	-5.88839	3.48888
29.27390	-5.86642	3.48888
29.27811	-5.88839	3.48888
29.28230	-5.86642	3.48888
29.28649	-5.88839	3.48888
29.29069	-5.86642	3.48888
29.29489	-5.86642	3.48888
29.29908	-5.88839	3.48888
29.30356	-5.88839	3.48888
29.30779	-5.86642	3.48888
29.31198	-5.88839	3.48888
29.31617	-5.88839	3.48888
29.32036	-5.88839	3.48888
29.32454	-5.88839	3.48888
29.32873	-5.88839	3.48888
29.33295	-5.88839	3.48888
29.33724	-5.88839	3.48888
29.34143	-5.88839	3.48888
29.34562	-5.88839	3.48888
29.34981	-5.88839	3.48888
29.35400	-5.88839	3.48888
29.35819	-5.91037	3.48888
29.36238	-5.91037	3.48888
29.36669	-5.91037	3.48888
29.37099	-5.91037	3.48888
29.37518	-5.91037	3.48888
29.37937	-5.91037	3.48888
29.38355	-5.91037	3.48888
29.38774	-5.91037	3.48888
29.39194	-5.91037	3.48888
29.39621	-5.93234	3.48888
29.40049	-5.93234	3.48888
29.40469	-5.93234	3.48888
29.40887	-5.93234	3.48888
29.41306	-5.93234	3.48888
29.41725	-5.93234	3.48888
29.42143	-5.93234	3.48888
29.42562	-5.95431	3.48888
29.42992	-5.93234	3.48888
29.43412	-5.95431	3.48888
29.43832	-5.95431	3.48888
29.44250	-5.95431	3.48888
29.44669	-5.95431	3.48888
29.45088	-5.95431	3.48888
29.45506	-5.97629	3.48888
29.45931	-5.97629	3.48888
29.46358	-5.97629	3.48888
29.46779	-5.97629	3.48888
29.47208	-5.99826	3.48888
29.47627	-5.99826	3.48888
29.48045	-5.99826	3.48888
29.48464	-5.99826	3.48888
29.48883	-5.99826	3.48888
29.49316	-5.99826	3.48888
29.49737	-5.99826	3.48888
29.50156	-6.02023	3.48888
29.50574	-6.02023	3.48888
29.50993	-6.02023	3.48888
29.51412	-6.02023	3.48888
29.51830	-6.04220	3.48888
29.52274	-6.02023	3.48888
29.52697	-6.04220	3.48888
29.53116	-6.04220	3.48888
29.53536	-6.04220	3.48888
29.53955	-6.04220	3.48888
29.54374	-6.06418	3.48888
29.54792	-6.06418	3.48888
29.55220	-6.06418	3.48888
29.55650	-6.06418	3.48888
29.56071	-6.06418	3.48888
29.56488	-6.06418	3.48888
29.56907	-6.08615	3.48888
29.57337	-6.08615	3.48888
29.57756	-6.08615	3.48888
29.58175	-6.08615	3.48888
29.58605	-6.08615	3.48888
29.59026	-6.10812	3.48888
29.59448	-6.10812	3.48888
29.59868	-6.10812	3.48888
29.60287	-6.10812	3.48888
29.60707	-6.13009	3.48888
29.61127	-6.13009	3.48888
29.61554	-6.13009	3.48888
29.61983	-6.13009	3.48888
29.62403	-6.13009	3.48888
29.62822	-6.13009	3.48888
29.63241	-6.13009	3.48888
29.63659	-6.15207	3.48888
29.64079	-6.15207	3.48888
29.64497	-6.15207	3.48888
29.64927	-6.15207	3.48888
29.65347	-6.17404	3.48888
29.65766	-6.17404	3.48888
29.66184	-6.17404	3.48888
29.66603	-6.17404	3.48888
29.67021	-6.17404	3.48888
29.67450	-6.19601	3.48888
29.67892	-6.19601	3.48888
29.68313	-6.19601	3.48888
29.68733	-6.19601	3.48888
29.69154	-6.19601	3.48888
29.69574	-6.19601	3.48888
29.69993	-6.19601	3.48888
29.70412	-6.19601	3.48888
29.70839	-6.21798	3.48888
29.71269	-6.21798	3.48888
29.71689	-6.21798	3.48888
29.72109	-6.21798	3.48888
29.72529	-6.21798	3.48888
29.72949	-6.21798	3.48888
29.73369	-6.23996	3.48888
29.73788	-6.21798	3.48888
29.74220	-6.23996	3.48888
29.74641	-6.23996	3.48888
29.75060	-6.23996	3.48888
29.75479	-6.23996	3.48888
29.75898	-6.23996	3.48888
29.76317	-6.23996	3.48888
29.76736	-6.23996	3.48888
29.77164	-6.23996	3.48888
29.77601	-6.23996	3.48888
29.78021	-6.26193	3.48888
29.78440	-6.26193	3.48888
29.78859	-6.26193	3.48888
29.79281	-6.26193	3.48888
29.79701	-6.26193	3.48888
29.80125	-6.26193	3.48888
29.80554	-6.26193	3.48888
29.80974	-6.26193	3.48888
29.81393	-6.26193	3.48888
29.81812	-6.26193	3.48888
29.82231	-6.26193	3.48888
29.82650	-6.26193	3.48888
29.83069	-6.26193	3.48888
29.83500	-6.28390	3.48888
29.83921	-6.26193	3.48888
29.84340	-6.26193	3.48888
29.84758	-6.26193	3.48888
29.85177	-6.26193	3.48888
29.85595	-6.26193	3.48888
29.86014	-6.26193	3.48888
29.86440	-6.26193	3.48888
29.86868	-6.26193	3.48888
29.87288	-6.26193	3.48888
29.87718	-6.26193	3.48888
29.88136	-6.26193	3.48888
29.88554	-6.26193	3.48888
29.88973	-6.26193	3.48888
29.89393	-6.26193	3.48888
29.89824	-6.26193	3.48888
29.90244	-6.26193	3.48888
29.90663	-6.26193	3.48888
29.91083	-6.26193	3.48888
29.91501	-6.26193	3.48888
29.91920	-6.26193	3.48888
29.92338	-6.26193	3.48888
29.92783	-6.26193	3.48888
29.93205	-6.26193	3.48888
29.93625	-6.23996	3.48888
29.94044	-6.23996	3.48888
29.94463	-6.23996	3.48888
29.94883	-6.23996	3.48888
29.95302	-6.23996	3.48888
29.95729	-6.23996	3.48888
29.96159	-6.23996	3.48888
29.96579	-6.23996	3.48888
29.96998	-6.23996	3.48888
29.97417	-6.23996	3.48888
29.97847	-6.21798	3.48888
29.98266	-6.21798	3.48888
29.98685	-6.21798	3.48888
29.99118	-6.21798	3.48888
29.99540	-6.21798	3.48888
29.99960	-6.21798	3.48888
