Time (s)   roll (deg)   Delta
0.00030	-0.59298	11.27051
0.00462	-0.59298	11.27051
0.00888	-0.59298	11.27051
0.01307	-0.59298	11.27051
0.01725	-0.59298	11.27051
0.02142	-0.59298	11.27051
0.02560	-0.59298	11.27051
0.02978	-0.59298	11.27051
0.03404	-0.61496	11.27051
0.03832	-0.61496	11.27051
0.04252	-0.61496	11.27051
0.04670	-0.61496	11.27051
0.05090	-0.61496	11.27051
0.05509	-0.63693	11.27051
0.05927	-0.63693	11.27051
0.06345	-0.63693	11.27051
0.06774	-0.63693	11.27051
0.07194	-0.63693	11.27051
0.07612	-0.63693	11.27051
0.08030	-0.65890	11.27051
0.08451	-0.65890	11.27051
0.08870	-0.68088	11.27051
0.09290	-0.68088	11.27051
0.09717	-0.68088	11.27051
0.10157	-0.70285	11.27051
0.10576	-0.70285	11.27051
0.10996	-0.72482	11.27051
0.11415	-0.74679	11.27051
0.11834	-0.74679	11.27051
0.12253	-0.76877	11.27051
0.12678	-0.76877	11.27051
0.13106	-0.79074	11.27051
0.13525	-0.81271	11.27051
0.13944	-0.83468	11.27051
0.14362	-0.85666	11.27051
0.14781	-0.85666	11.27051
0.15202	-0.87863	11.27051
0.15620	-0.90060	11.27051
0.16050	-0.92257	11.27051
0.16472	-0.96652	11.27051
0.16890	-0.98849	11.27051
0.17309	-1.03244	11.27051
0.17727	-1.03244	11.27051
0.18146	-1.05441	11.27051
0.18564	-1.09836	11.27051
0.18989	-1.12033	11.27051
0.19419	-1.16427	11.27051
0.19839	-1.20822	11.27051
0.20268	-1.20822	11.27051
0.20687	-1.25216	11.27051
0.21105	-1.29611	11.27051
0.21524	-1.34006	11.27051
0.21942	-1.38400	11.27051
0.22373	-1.38400	11.27051
0.22794	-1.42795	11.27051
0.23222	-1.49386	11.27051
0.23643	-1.53781	11.27051
0.24063	-1.58175	11.27051
0.24482	-1.62570	11.27051
0.24902	-1.69162	11.27051
0.25344	-1.75754	11.27051
0.25767	-1.75754	11.27051
0.26186	-1.80148	11.27051
0.26606	-1.86740	11.27051
0.27024	-1.93332	11.27051
0.27443	-1.99923	11.27051
0.27861	-2.04318	11.27051
0.28287	-2.04318	11.27051
0.28715	-2.13107	11.27051
0.29134	-2.19699	11.27051
0.29553	-2.26291	11.27051
0.29971	-2.32882	11.27051
0.30400	-2.39474	11.27051
0.30818	-2.39474	11.27051
0.31236	-2.50461	11.27051
0.31666	-2.57052	11.27051
0.32086	-2.65841	11.27051
0.32505	-2.70236	11.27051
0.32923	-2.79025	11.27051
0.33342	-2.87814	11.27051
0.33760	-2.87814	11.27051
0.34179	-2.96603	11.27051
0.34605	-3.05392	11.27051
0.35033	-3.14181	11.27051
0.35453	-3.22970	11.27051
0.35872	-3.22970	11.27051
0.36290	-3.31759	11.27051
0.36709	-3.38351	11.27051
0.37127	-3.47140	11.27051
0.37545	-3.58127	11.27051
0.37975	-3.66916	11.27051
0.38395	-3.77902	11.27051
0.38813	-3.77902	11.27051
0.39232	-3.86691	11.27051
0.39650	-3.97677	11.27051
0.40068	-4.06466	11.27051
0.40497	-4.17453	11.27051
0.40939	-4.26242	11.27051
0.41360	-4.35031	11.27051
0.41779	-4.35031	11.27051
0.42203	-4.48214	11.27051
0.42622	-4.59201	11.27051
0.43041	-4.70187	11.27051
0.43459	-4.81173	11.27051
0.43883	-4.92160	11.27051
0.44312	-4.92160	11.27051
0.44731	-5.03146	11.27051
0.45151	-5.14132	11.27051
0.45571	-5.25119	11.27051
0.45990	-5.38302	11.27051
0.46408	-5.38302	11.27051
0.46827	-5.49289	11.27051
0.47257	-5.60275	11.27051
0.47678	-5.73459	11.27051
0.48096	-5.84445	11.27051
0.48515	-5.97629	11.27051
0.48933	-5.97629	11.27051
0.49352	-6.10812	11.27051
0.49770	-6.19601	11.27051
0.50195	-6.32785	11.27051
0.50633	-6.43771	11.27051
0.51053	-6.56955	11.27051
0.51471	-6.70138	11.27051
0.51890	-6.70138	11.27051
0.52308	-6.81125	11.27051
0.52726	-6.94308	11.27051
0.53145	-7.07492	11.27051
0.53574	-7.18478	11.27051
0.53994	-7.31662	11.27051
0.54413	-7.31662	11.27051
0.54831	-7.44845	11.27051
0.55251	-7.58029	11.27051
0.55670	-7.71213	11.27051
0.56089	-7.84396	11.27051
0.56514	-7.97580	11.27051
0.56941	-7.97580	11.27051
0.57361	-8.10763	11.27051
0.57780	-8.26144	11.27051
0.58199	-8.37131	11.27051
0.58614	-8.50314	11.27051
0.59033	-8.63498	11.27051
0.59451	-8.63498	11.27051
0.59881	-8.78879	11.27051
0.60301	-8.92062	11.27051
0.60730	-9.05246	11.27051
0.61148	-9.20627	11.27051
0.61567	-9.33810	11.27051
0.61985	-9.44797	11.27051
0.62403	-9.44797	11.27051
0.62846	-9.57980	11.27051
0.63267	-9.73361	11.27051
0.63686	-9.86545	11.27051
0.64105	-10.01925	11.27051
0.64524	-10.15109	11.27051
0.64944	-10.15109	11.27051
0.65364	-10.30490	11.27051
0.65792	-10.43673	11.27051
0.66222	-10.59054	11.27051
0.66642	-10.70041	11.27051
0.67060	-10.83224	11.27051
0.67479	-10.98605	11.27051
0.67897	-10.98605	11.27051
0.68316	-11.11789	11.27051
0.68734	-11.24972	11.27051
0.69164	-11.40353	11.27051
0.69585	-11.53537	11.27051
0.70004	-11.68918	11.27051
0.70422	-11.68918	11.27051
0.70851	-11.84298	11.27051
0.71269	-11.97482	11.27051
0.71687	-12.10666	11.27051
0.72112	-12.26047	11.27051
0.72539	-12.26047	11.27051
0.72959	-12.39230	11.27051
0.73378	-12.54611	11.27051
0.73797	-12.67795	11.27051
0.74214	-12.83175	11.27051
0.74632	-12.96359	11.27051
0.75052	-13.09543	11.27051
0.75483	-13.09543	11.27051
0.75904	-13.22726	11.27051
0.76322	-13.38107	11.27051
0.76740	-13.53488	11.27051
0.77159	-13.66672	11.27051
0.77577	-13.66672	11.27051
0.77995	-13.82052	11.27051
0.78437	-13.95236	11.27051
0.78859	-14.08420	11.27051
0.79278	-14.21603	11.27051
0.79698	-14.34787	11.27051
0.80117	-14.50168	11.27051
0.80535	-14.50168	11.27051
0.80966	-14.63351	11.27051
0.81391	-14.78732	11.27051
0.81821	-14.94113	11.27051
0.82241	-15.07297	11.27051
0.82660	-15.22677	11.27051
0.83079	-15.22677	11.27051
0.83498	-15.35861	11.27051
0.83917	-15.46847	11.27051
0.84336	-15.60031	11.27051
0.84767	-15.75412	11.27051
0.85189	-15.88595	11.27051
0.85609	-16.01779	11.27051
0.86028	-16.01779	11.27051
0.86447	-16.17160	11.27051
0.86866	-16.30343	11.27051
0.87284	-16.43527	11.27051
0.87711	-16.56711	11.27051
0.88137	-16.69894	11.27051
0.88557	-16.83078	11.27051
0.88976	-16.83078	11.27051
0.89395	-16.96261	11.27051
0.89814	-17.09445	11.27051
0.90233	-17.24826	11.27051
0.90651	-17.35812	11.27051
0.91091	-17.51193	11.27051
0.91510	-17.51193	11.27051
0.91929	-17.64377	11.27051
0.92347	-17.75363	11.27051
0.92765	-17.88547	11.27051
0.93184	-18.01730	11.27051
0.93602	-18.14914	11.27051
0.94046	-18.14914	11.27051
0.94467	-18.28097	11.27051
0.94886	-18.39084	11.27051
0.95307	-18.52267	11.27051
0.95727	-18.65451	11.27051
0.96146	-18.78634	11.27051
0.96565	-18.78634	11.27051
0.96991	-18.91818	11.27051
0.97421	-19.05002	11.27051
0.97842	-19.15988	11.27051
0.98261	-19.29172	11.27051
0.98679	-19.40158	11.27051
0.99098	-19.40158	11.27051
0.99517	-19.53341	11.27051
0.99937	-19.66525	11.27051
1.00368	-19.77511	11.27051
1.00790	-19.88498	11.27051
1.01220	-19.97287	11.27051
1.01639	-19.97287	11.27051
1.02058	-20.10470	11.27051
1.02477	-20.21457	11.27051
1.02896	-20.32443	11.27051
1.03338	-20.45627	11.27051
1.03759	-20.56613	11.27051
1.04178	-20.56613	11.27051
1.04598	-20.67599	11.27051
1.05018	-20.76388	11.27051
1.05439	-20.87375	11.27051
1.05859	-20.96164	11.27051
1.06354	-21.04953	11.27051
1.06784	-21.13742	11.27051
1.07205	-21.22531	11.27051
1.07626	-21.22531	11.27051
1.08047	-21.31320	11.27051
1.08468	-21.35714	11.27051
1.08889	-21.42306	11.27051
1.09430	-21.48898	11.27051
1.09859	-21.51095	11.27051
1.10279	-21.57687	11.27051
1.10698	-21.59884	11.27051
1.11117	-21.59884	11.27051
1.11546	-21.62082	11.27051
1.11964	-21.62082	11.27051
1.12391	-21.62082	11.27051
1.12819	-21.62082	11.27051
1.13238	-21.62082	11.27051
1.13657	-21.59884	11.27051
1.14075	-21.59884	11.27051
1.14494	-21.55490	11.27051
1.14912	-21.53293	11.27051
1.15331	-21.48898	11.27051
1.15760	-21.42306	11.27051
1.16181	-21.42306	11.27051
1.16601	-21.37912	11.27051
1.17019	-21.31320	11.27051
1.17438	-21.24728	11.27051
1.17856	-21.18136	11.27051
1.18274	-21.11545	11.27051
1.18699	-21.04953	11.27051
1.19125	-21.04953	11.27051
1.19544	-20.96164	11.27051
1.19963	-20.89572	11.27051
1.20382	-20.80783	11.27051
1.20800	-20.71994	11.27051
1.21218	-20.63205	11.27051
1.21647	-20.63205	11.27051
1.22076	-20.56613	11.27051
1.22497	-20.45627	11.27051
1.22916	-20.36838	11.27051
1.23334	-20.30246	11.27051
1.23753	-20.30246	11.27051
1.24171	-20.19259	11.27051
1.24590	-20.10470	11.27051
1.25035	-20.03879	11.27051
1.25456	-19.95089	11.27051
1.25875	-19.86300	11.27051
1.26293	-19.79709	11.27051
1.26712	-19.79709	11.27051
1.27130	-19.70920	11.27051
1.27548	-19.62131	11.27051
1.27976	-19.51144	11.27051
1.28404	-19.44552	11.27051
1.28823	-19.33566	11.27051
1.29242	-19.33566	11.27051
1.29660	-19.26974	11.27051
1.30080	-19.18185	11.27051
1.30498	-19.09396	11.27051
1.30916	-19.00607	11.27051
1.31345	-18.91818	11.27051
1.31776	-18.83029	11.27051
1.32194	-18.83029	11.27051
1.32614	-18.74240	11.27051
1.33033	-18.65451	11.27051
1.33451	-18.56662	11.27051
1.33870	-18.47873	11.27051
1.34295	-18.47873	11.27051
1.34721	-18.32492	11.27051
1.35140	-18.32492	11.27051
1.35559	-18.23703	11.27051
1.35977	-18.14914	11.27051
1.36396	-18.06125	11.27051
1.36814	-17.97336	11.27051
1.37232	-17.97336	11.27051
1.37662	-17.88547	11.27051
1.38081	-17.79757	11.27051
1.38500	-17.70968	11.27051
1.38918	-17.64377	11.27051
1.39337	-17.55588	11.27051
1.39756	-17.48996	11.27051
1.40175	-17.48996	11.27051
1.40601	-17.38009	11.27051
1.41027	-17.31418	11.27051
1.41446	-17.22629	11.27051
1.41875	-17.13839	11.27051
1.42294	-17.13839	11.27051
1.42712	-17.05050	11.27051
1.43130	-16.96261	11.27051
1.43548	-16.89670	11.27051
1.43977	-16.83078	11.27051
1.44397	-16.74289	11.27051
1.44816	-16.65500	11.27051
1.45237	-16.65500	11.27051
1.45656	-16.56711	11.27051
1.46075	-16.47922	11.27051
1.46495	-16.41330	11.27051
1.46938	-16.32541	11.27051
1.47359	-16.23752	11.27051
1.47778	-16.23752	11.27051
1.48197	-16.17160	11.27051
1.48614	-16.08371	11.27051
1.49032	-15.99582	11.27051
1.49450	-15.92990	11.27051
1.49875	-15.84201	11.27051
1.50303	-15.84201	11.27051
1.50723	-15.75412	11.27051
1.51141	-15.68820	11.27051
1.51560	-15.60031	11.27051
1.51988	-15.55636	11.27051
1.52407	-15.46847	11.27051
1.52825	-15.46847	11.27051
1.53255	-15.38058	11.27051
1.53676	-15.31466	11.27051
1.54094	-15.24875	11.27051
1.54513	-15.16086	11.27051
1.54931	-15.09494	11.27051
1.55352	-15.09494	11.27051
1.55771	-15.00705	11.27051
1.56198	-14.96310	11.27051
1.56622	-14.89718	11.27051
1.57042	-14.80929	11.27051
1.57461	-14.74338	11.27051
1.57880	-14.67746	11.27051
1.58298	-14.67746	11.27051
1.58717	-14.58957	11.27051
1.59135	-14.52365	11.27051
1.59564	-14.45773	11.27051
1.59984	-14.39181	11.27051
1.60404	-14.32589	11.27051
1.60822	-14.32589	11.27051
1.61241	-14.25998	11.27051
1.61659	-14.19406	11.27051
1.62087	-14.12814	11.27051
1.62530	-14.06222	11.27051
1.62950	-13.99631	11.27051
1.63368	-13.99631	11.27051
1.63787	-13.93039	11.27051
1.64206	-13.86447	11.27051
1.64625	-13.82052	11.27051
1.65044	-13.75461	11.27051
1.65473	-13.68869	11.27051
1.65902	-13.62277	11.27051
1.66322	-13.62277	11.27051
1.66740	-13.57882	11.27051
1.67159	-13.51291	11.27051
1.67577	-13.44699	11.27051
1.67995	-13.40304	11.27051
1.68413	-13.33713	11.27051
1.68843	-13.29318	11.27051
1.69264	-13.29318	11.27051
1.69682	-13.22726	11.27051
1.70100	-13.18332	11.27051
1.70520	-13.11740	11.27051
1.70938	-13.07345	11.27051
1.71356	-13.07345	11.27051
1.71781	-13.00754	11.27051
1.72218	-12.94162	11.27051
1.72637	-12.89767	11.27051
1.73056	-12.85373	11.27051
1.73475	-12.78781	11.27051
1.73894	-12.78781	11.27051
1.74312	-12.74386	11.27051
1.74730	-12.69992	11.27051
1.75162	-12.65597	11.27051
1.75583	-12.59006	11.27051
1.76001	-12.54611	11.27051
1.76420	-12.54611	11.27051
1.76838	-12.50216	11.27051
1.77256	-12.45822	11.27051
1.77675	-12.41427	11.27051
1.78099	-12.37033	11.27051
1.78526	-12.32638	11.27051
1.78946	-12.32638	11.27051
1.79364	-12.28244	11.27051
1.79783	-12.23849	11.27051
1.80202	-12.19455	11.27051
1.80621	-12.17257	11.27051
1.81039	-12.12863	11.27051
1.81468	-12.08468	11.27051
1.81888	-12.08468	11.27051
1.82316	-12.06271	11.27051
1.82735	-12.01877	11.27051
1.83153	-11.97482	11.27051
1.83571	-11.95285	11.27051
1.83989	-11.90890	11.27051
1.84430	-11.90890	11.27051
1.84851	-11.86496	11.27051
1.85271	-11.84298	11.27051
1.85690	-11.82101	11.27051
1.86110	-11.77707	11.27051
1.86528	-11.75509	11.27051
1.86946	-11.75509	11.27051
1.87372	-11.73312	11.27051
1.87802	-11.68918	11.27051
1.88223	-11.66720	11.27051
1.88641	-11.62326	11.27051
1.89060	-11.60129	11.27051
1.89478	-11.60129	11.27051
1.89896	-11.57931	11.27051
1.90314	-11.55734	11.27051
1.90744	-11.53537	11.27051
1.91164	-11.51339	11.27051
1.91582	-11.49142	11.27051
1.92000	-11.46945	11.27051
1.92428	-11.46945	11.27051
1.92847	-11.44748	11.27051
1.93265	-11.42550	11.27051
1.93689	-11.40353	11.27051
1.94117	-11.38156	11.27051
1.94537	-11.38156	11.27051
1.94955	-11.35959	11.27051
1.95375	-11.35959	11.27051
1.95794	-11.33761	11.27051
1.96214	-11.31564	11.27051
1.96632	-11.31564	11.27051
1.97062	-11.29367	11.27051
1.97482	-11.29367	11.27051
1.97901	-11.29367	11.27051
1.98319	-11.27170	11.27051
1.98738	-11.24972	11.27051
1.99156	-11.24972	11.27051
1.99575	-11.24972	11.27051
1.99999	-11.24972	11.27051
2.00425	-11.24972	11.27051
2.00845	-11.22775	11.27051
2.01263	-11.22775	11.27051
2.01681	-11.20578	11.27051
2.02100	-11.20578	11.27051
2.02528	-11.20578	11.27051
2.02947	-11.22775	11.27051
2.03376	-11.20578	11.27051
2.03796	-11.20578	11.27051
2.04214	-11.20578	11.27051
2.04632	-11.20578	11.27051
2.05050	-11.20578	11.27051
2.05470	-11.20578	11.27051
2.05889	-11.20578	11.27051
2.06315	-11.20578	11.27051
2.06741	-11.20578	11.27051
2.07161	-11.22775	11.27051
2.07579	-11.22775	11.27051
2.07998	-11.22775	11.27051
2.08416	-11.22775	11.27051
2.08834	-11.22775	11.27051
2.09252	-11.22775	11.27051
2.09682	-11.24972	11.27051
2.10102	-11.24972	11.27051
2.10520	-11.24972	11.27051
2.10939	-11.27170	11.27051
2.11357	-11.27170	11.27051
2.11775	-11.27170	11.27051
2.12194	-11.31564	11.27051
2.12631	-11.31564	11.27051
2.13056	-11.31564	11.27051
2.13475	-11.31564	11.27051
2.13893	-11.33761	11.27051
2.14311	-11.35959	11.27051
2.14729	-11.38156	11.27051
2.15150	-11.38156	11.27051
2.15569	-11.40353	11.27051
2.16000	-11.40353	11.27051
2.16421	-11.42550	11.27051
2.16840	-11.44748	11.27051
2.17259	-11.46945	11.27051
2.17679	-11.49142	11.27051
2.18099	-11.51339	11.27051
2.18518	-11.51339	11.27051
2.18961	-11.53537	11.27051
2.19383	-11.55734	11.27051
2.19803	-11.57931	11.27051
2.20221	-11.60129	11.27051
2.20640	-11.62326	11.27051
2.21058	-11.64523	11.27051
2.21476	-11.64523	11.27051
2.21902	-11.68918	11.27051
2.22330	-11.68918	11.27051
2.22760	-11.73312	11.27051
2.23179	-11.75509	11.27051
2.23598	-11.75509	11.27051
2.24016	-11.77707	11.27051
2.24435	-11.82101	11.27051
2.24854	-11.84298	11.27051
2.25286	-11.88693	11.27051
2.25708	-11.90890	11.27051
2.26128	-11.90890	11.27051
2.26546	-11.95285	11.27051
2.26965	-11.97482	11.27051
2.27383	-12.01877	11.27051
2.27803	-12.04074	11.27051
2.28228	-12.08468	11.27051
2.28655	-12.10666	11.27051
2.29074	-12.10666	11.27051
2.29493	-12.15060	11.27051
2.29911	-12.17257	11.27051
2.30330	-12.21652	11.27051
2.30748	-12.26047	11.27051
2.31167	-12.26047	11.27051
2.31596	-12.30441	11.27051
2.32016	-12.32638	11.27051
2.32435	-12.39230	11.27051
2.32865	-12.41427	11.27051
2.33283	-12.43625	11.27051
2.33702	-12.50216	11.27051
2.34120	-12.50216	11.27051
2.34562	-12.52414	11.27051
2.34983	-12.56808	11.27051
2.35404	-12.61203	11.27051
2.35823	-12.65597	11.27051
2.36242	-12.72189	11.27051
2.36661	-12.72189	11.27051
2.37079	-12.74386	11.27051
2.37506	-12.78781	11.27051
2.37933	-12.83175	11.27051
2.38353	-12.87570	11.27051
2.38771	-12.91964	11.27051
2.39190	-12.96359	11.27051
2.39608	-12.96359	11.27051
2.40027	-13.00754	11.27051
2.40445	-13.07345	11.27051
2.40874	-13.09543	11.27051
2.41294	-13.13937	11.27051
2.41713	-13.20529	11.27051
2.42131	-13.20529	11.27051
2.42550	-13.24923	11.27051
2.42979	-13.29318	11.27051
2.43397	-13.33713	11.27051
2.43821	-13.38107	11.27051
2.44249	-13.44699	11.27051
2.44668	-13.44699	11.27051
2.45087	-13.49093	11.27051
2.45507	-13.53488	11.27051
2.45926	-13.60080	11.27051
2.46348	-13.62277	11.27051
2.46767	-13.68869	11.27051
2.47197	-13.73263	11.27051
2.47617	-13.73263	11.27051
2.48036	-13.77658	11.27051
2.48455	-13.84250	11.27051
2.48873	-13.88644	11.27051
2.49291	-13.95236	11.27051
2.49710	-13.95236	11.27051
2.50135	-13.99631	11.27051
2.50561	-14.06222	11.27051
2.50981	-14.10617	11.27051
2.51399	-14.15011	11.27051
2.51814	-14.21603	11.27051
2.52232	-14.21603	11.27051
2.52651	-14.25998	11.27051
2.53079	-14.32589	11.27051
2.53509	-14.36984	11.27051
2.53928	-14.43576	11.27051
2.54347	-14.47970	11.27051
2.54765	-14.52365	11.27051
2.55186	-14.52365	11.27051
2.55605	-14.58957	11.27051
2.56024	-14.63351	11.27051
2.56468	-14.69943	11.27051
2.56888	-14.76535	11.27051
2.57308	-14.80929	11.27051
2.57727	-14.80929	11.27051
2.58146	-14.87521	11.27051
2.58565	-14.89718	11.27051
2.58983	-14.96310	11.27051
2.59413	-15.02902	11.27051
2.59841	-15.07297	11.27051
2.60261	-15.07297	11.27051
2.60679	-15.13888	11.27051
2.61099	-15.18283	11.27051
2.61517	-15.24875	11.27051
2.61936	-15.29269	11.27051
2.62354	-15.35861	11.27051
2.62784	-15.40256	11.27051
2.63214	-15.40256	11.27051
2.63633	-15.44650	11.27051
2.64051	-15.53439	11.27051
2.64470	-15.57834	11.27051
2.64888	-15.62228	11.27051
2.65309	-15.68820	11.27051
2.65736	-15.68820	11.27051
2.66163	-15.75412	11.27051
2.66583	-15.79806	11.27051
2.67002	-15.84201	11.27051
2.67421	-15.90793	11.27051
2.67840	-15.95187	11.27051
2.68259	-16.01779	11.27051
2.68677	-16.01779	11.27051
2.69107	-16.06173	11.27051
2.69527	-16.12765	11.27051
2.69946	-16.19357	11.27051
2.70364	-16.23752	11.27051
2.70783	-16.23752	11.27051
2.71202	-16.30343	11.27051
2.71620	-16.34738	11.27051
2.72045	-16.39132	11.27051
2.72471	-16.45724	11.27051
2.72890	-16.50119	11.27051
2.73319	-16.56711	11.27051
2.73738	-16.56711	11.27051
2.74156	-16.61105	11.27051
2.74576	-16.67697	11.27051
2.74994	-16.72091	11.27051
2.75428	-16.78683	11.27051
2.75850	-16.83078	11.27051
2.76269	-16.83078	11.27051
2.76687	-16.87472	11.27051
2.77106	-16.94064	11.27051
2.77524	-16.98459	11.27051
2.77942	-17.05050	11.27051
2.78385	-17.05050	11.27051
2.78805	-17.09445	11.27051
2.79224	-17.16037	11.27051
2.79643	-17.20431	11.27051
2.80063	-17.24826	11.27051
2.80482	-17.31418	11.27051
2.80902	-17.35812	11.27051
2.81328	-17.35812	11.27051
2.81756	-17.40207	11.27051
2.82176	-17.46798	11.27051
2.82595	-17.51193	11.27051
2.83014	-17.55588	11.27051
2.83443	-17.62179	11.27051
2.83861	-17.64377	11.27051
2.84279	-17.64377	11.27051
2.84710	-17.68771	11.27051
2.85130	-17.75363	11.27051
2.85550	-17.81955	11.27051
2.85969	-17.84152	11.27051
2.86388	-17.90744	11.27051
2.86806	-17.90744	11.27051
2.87225	-17.95138	11.27051
2.87650	-17.99533	11.27051
2.88076	-18.03927	11.27051
2.88495	-18.08322	11.27051
2.88914	-18.12716	11.27051
2.89332	-18.12716	11.27051
2.89751	-18.17111	11.27051
2.90170	-18.21506	11.27051
2.90589	-18.25900	11.27051
2.91020	-18.30295	11.27051
2.91440	-18.34689	11.27051
2.91858	-18.34689	11.27051
2.92276	-18.39084	11.27051
2.92695	-18.41281	11.27051
2.93114	-18.45675	11.27051
2.93542	-18.50070	11.27051
2.93985	-18.56662	11.27051
2.94406	-18.58859	11.27051
2.94825	-18.58859	11.27051
2.95246	-18.63254	11.27051
2.95665	-18.67648	11.27051
2.96084	-18.69845	11.27051
2.96503	-18.74240	11.27051
2.96931	-18.78634	11.27051
2.97359	-18.83029	11.27051
2.97779	-18.83029	11.27051
2.98197	-18.87423	11.27051
2.98613	-18.89621	11.27051
2.99032	-18.94015	11.27051
2.99450	-18.96213	11.27051
2.99869	-18.96213	11.27051
3.00298	-19.00607	11.27051
3.00718	-19.02804	11.27051
3.01137	-19.07199	11.27051
3.01555	-19.09396	11.27051
3.01974	-19.13791	11.27051
3.02392	-19.13791	11.27051
3.02810	-19.15988	11.27051
3.03235	-19.20382	11.27051
3.03672	-19.22580	11.27051
3.04090	-19.24777	11.27051
3.04509	-19.24777	11.27051
3.04928	-19.29172	11.27051
3.05348	-19.31369	11.27051
3.05767	-19.33566	11.27051
3.06186	-19.35763	11.27051
3.06618	-19.37961	11.27051
3.07038	-19.42355	11.27051
3.07457	-19.42355	11.27051
3.07876	-19.42355	11.27051
3.08294	-19.44552	11.27051
3.08713	-19.48947	11.27051
3.09131	-19.51144	11.27051
3.09557	-19.51144	11.27051
3.09984	-19.53341	11.27051
3.10403	-19.53341	11.27051
3.10821	-19.55539	11.27051
3.11240	-19.57736	11.27051
3.11659	-19.59933	11.27051
3.12077	-19.62131	11.27051
3.12495	-19.62131	11.27051
3.12924	-19.62131	11.27051
3.13344	-19.66525	11.27051
3.13773	-19.66525	11.27051
3.14191	-19.66525	11.27051
3.14612	-19.68722	11.27051
3.15031	-19.68722	11.27051
3.15451	-19.68722	11.27051
3.15896	-19.70920	11.27051
3.16316	-19.73117	11.27051
3.16735	-19.73117	11.27051
3.17154	-19.73117	11.27051
3.17572	-19.75314	11.27051
3.17991	-19.77511	11.27051
3.18409	-19.77511	11.27051
3.18835	-19.75314	11.27051
3.19263	-19.77511	11.27051
3.19682	-19.77511	11.27051
3.20101	-19.77511	11.27051
3.20519	-19.79709	11.27051
3.20938	-19.79709	11.27051
3.21356	-19.77511	11.27051
3.21775	-19.79709	11.27051
3.22207	-19.77511	11.27051
3.22627	-19.79709	11.27051
3.23046	-19.79709	11.27051
3.23465	-19.77511	11.27051
3.23893	-19.77511	11.27051
3.24312	-19.77511	11.27051
3.24730	-19.77511	11.27051
3.25155	-19.79709	11.27051
3.25582	-19.77511	11.27051
3.26001	-19.77511	11.27051
3.26420	-19.77511	11.27051
3.26838	-19.75314	11.27051
3.27256	-19.75314	11.27051
3.27675	-19.75314	11.27051
3.28093	-19.73117	11.27051
3.28522	-19.73117	11.27051
3.28942	-19.73117	11.27051
3.29360	-19.70920	11.27051
3.29779	-19.70920	11.27051
3.30198	-19.68722	11.27051
3.30613	-19.68722	11.27051
3.31032	-19.68722	11.27051
3.31457	-19.68722	11.27051
3.31882	-19.66525	11.27051
3.32301	-19.64328	11.27051
3.32720	-19.62131	11.27051
3.33139	-19.62131	11.27051
3.33557	-19.62131	11.27051
3.33986	-19.59933	11.27051
3.34404	-19.57736	11.27051
3.34833	-19.55539	11.27051
3.35253	-19.53341	11.27051
3.35672	-19.53341	11.27051
3.36091	-19.51144	11.27051
3.36509	-19.51144	11.27051
3.36927	-19.48947	11.27051
3.37346	-19.46750	11.27051
3.37771	-19.44552	11.27051
3.38198	-19.42355	11.27051
3.38614	-19.40158	11.27051
3.39033	-19.40158	11.27051
3.39451	-19.37961	11.27051
3.39870	-19.35763	11.27051
3.40288	-19.33566	11.27051
3.40706	-19.31369	11.27051
3.41136	-19.29172	11.27051
3.41556	-19.29172	11.27051
3.41976	-19.26974	11.27051
3.42394	-19.22580	11.27051
3.42813	-19.20382	11.27051
3.43231	-19.18185	11.27051
3.43649	-19.15988	11.27051
3.44085	-19.13791	11.27051
3.44510	-19.13791	11.27051
3.44929	-19.09396	11.27051
3.45348	-19.07199	11.27051
3.45766	-19.05002	11.27051
3.46185	-19.00607	11.27051
3.46606	-18.98410	11.27051
3.47026	-18.98410	11.27051
3.47456	-18.96213	11.27051
3.47876	-18.91818	11.27051
3.48295	-18.89621	11.27051
3.48714	-18.85226	11.27051
3.49132	-18.85226	11.27051
3.49550	-18.85226	11.27051
3.49969	-18.80832	11.27051
3.50394	-18.76437	11.27051
3.50820	-18.74240	11.27051
3.51239	-18.69845	11.27051
3.51658	-18.67648	11.27051
3.52077	-18.67648	11.27051
3.52495	-18.63254	11.27051
3.52914	-18.61056	11.27051
3.53332	-18.56662	11.27051
3.53762	-18.54464	11.27051
3.54193	-18.50070	11.27051
3.54612	-18.50070	11.27051
3.55031	-18.45675	11.27051
3.55449	-18.43478	11.27051
3.55867	-18.41281	11.27051
3.56286	-18.36886	11.27051
3.56728	-18.34689	11.27051
3.57149	-18.30295	11.27051
3.57567	-18.30295	11.27051
3.57986	-18.25900	11.27051
3.58404	-18.21506	11.27051
3.58822	-18.19308	11.27051
3.59241	-18.14914	11.27051
3.59667	-18.14914	11.27051
3.60095	-18.10519	11.27051
3.60515	-18.08322	11.27051
3.60933	-18.03927	11.27051
3.61352	-18.01730	11.27051
3.61770	-17.97336	11.27051
3.62190	-17.95138	11.27051
3.62609	-17.95138	11.27051
3.63039	-17.90744	11.27051
3.63459	-17.86349	11.27051
3.63877	-17.81955	11.27051
3.64306	-17.77560	11.27051
3.64725	-17.75363	11.27051
3.65143	-17.70968	11.27051
3.65561	-17.70968	11.27051
3.65987	-17.68771	11.27051
3.66413	-17.64377	11.27051
3.66832	-17.59982	11.27051
3.67250	-17.55588	11.27051
3.67669	-17.55588	11.27051
3.68087	-17.53390	11.27051
3.68505	-17.48996	11.27051
3.68924	-17.44601	11.27051
3.69353	-17.40207	11.27051
3.69773	-17.38009	11.27051
3.70192	-17.33615	11.27051
3.70611	-17.33615	11.27051
3.71030	-17.31418	11.27051
3.71448	-17.27023	11.27051
3.71866	-17.22629	11.27051
3.72292	-17.18234	11.27051
3.72718	-17.13839	11.27051
3.73137	-17.13839	11.27051
3.73556	-17.11642	11.27051
3.73974	-17.07248	11.27051
3.74403	-17.05050	11.27051
3.74821	-16.98459	11.27051
3.75239	-16.96261	11.27051
3.75672	-16.96261	11.27051
3.76093	-16.91867	11.27051
3.76512	-16.87472	11.27051
3.76931	-16.85275	11.27051
3.77350	-16.80881	11.27051
3.77768	-16.76486	11.27051
3.78186	-16.76486	11.27051
3.78630	-16.72091	11.27051
3.79051	-16.67697	11.27051
3.79470	-16.65500	11.27051
3.79888	-16.61105	11.27051
3.80306	-16.56711	11.27051
3.80725	-16.56711	11.27051
3.81143	-16.54513	11.27051
3.81568	-16.50119	11.27051
3.81996	-16.45724	11.27051
3.82416	-16.43527	11.27051
3.82835	-16.39132	11.27051
3.83253	-16.39132	11.27051
3.83672	-16.36935	11.27051
3.84090	-16.32541	11.27051
3.84519	-16.28146	11.27051
3.84948	-16.25949	11.27051
3.85371	-16.21554	11.27051
3.85790	-16.21554	11.27051
3.86209	-16.17160	11.27051
3.86628	-16.14963	11.27051
3.87046	-16.12765	11.27051
3.87465	-16.06173	11.27051
3.87890	-16.03976	11.27051
3.88316	-15.99582	11.27051
3.88735	-15.99582	11.27051
3.89154	-15.97384	11.27051
3.89573	-15.92990	11.27051
3.89991	-15.90793	11.27051
3.90410	-15.86398	11.27051
3.90828	-15.84201	11.27051
3.91257	-15.79806	11.27051
3.91678	-15.79806	11.27051
3.92096	-15.77609	11.27051
3.92515	-15.73214	11.27051
3.92933	-15.71017	11.27051
3.93351	-15.66623	11.27051
3.93770	-15.66623	11.27051
3.94195	-15.62228	11.27051
3.94632	-15.60031	11.27051
3.95051	-15.57834	11.27051
3.95472	-15.53439	11.27051
3.95891	-15.51242	11.27051
3.96310	-15.46847	11.27051
3.96728	-15.46847	11.27051
3.97147	-15.44650	11.27051
3.97576	-15.42453	11.27051
3.97997	-15.38058	11.27051
3.98415	-15.35861	11.27051
3.98834	-15.31466	11.27051
3.99252	-15.29269	11.27051
3.99671	-15.29269	11.27051
4.00090	-15.24875	11.27051
4.00516	-15.22677	11.27051
4.00942	-15.20480	11.27051
4.01362	-15.18283	11.27051
4.01780	-15.18283	11.27051
4.02199	-15.13888	11.27051
4.02613	-15.11691	11.27051
4.03032	-15.09494	11.27051
4.03450	-15.05099	11.27051
4.03880	-15.02902	11.27051
4.04301	-15.02902	11.27051
4.04730	-15.00705	11.27051
4.05149	-14.96310	11.27051
4.05569	-14.94113	11.27051
4.05988	-14.91916	11.27051
4.06407	-14.89718	11.27051
4.06850	-14.89718	11.27051
4.07271	-14.87521	11.27051
4.07690	-14.85324	11.27051
4.08109	-14.83127	11.27051
4.08527	-14.80929	11.27051
4.08946	-14.76535	11.27051
4.09364	-14.76535	11.27051
4.09791	-14.74338	11.27051
4.10220	-14.72140	11.27051
4.10640	-14.69943	11.27051
4.11059	-14.67746	11.27051
4.11477	-14.65548	11.27051
4.11896	-14.63351	11.27051
4.12314	-14.63351	11.27051
4.12733	-14.61154	11.27051
4.13162	-14.58957	11.27051
4.13582	-14.56759	11.27051
4.14001	-14.54562	11.27051
4.14429	-14.52365	11.27051
4.14869	-14.52365	11.27051
4.15292	-14.50168	11.27051
4.15713	-14.47970	11.27051
4.16163	-14.45773	11.27051
4.16587	-14.43576	11.27051
4.17008	-14.43576	11.27051
4.17428	-14.41379	11.27051
4.17847	-14.41379	11.27051
4.18266	-14.39181	11.27051
4.18685	-14.36984	11.27051
4.19115	-14.34787	11.27051
4.19549	-14.34787	11.27051
4.19970	-14.32589	11.27051
4.20390	-14.30392	11.27051
4.20811	-14.30392	11.27051
4.21230	-14.28195	11.27051
4.21649	-14.25998	11.27051
4.22067	-14.25998	11.27051
4.22502	-14.23800	11.27051
4.22925	-14.21603	11.27051
4.23344	-14.21603	11.27051
4.23762	-14.21603	11.27051
4.24183	-14.19406	11.27051
4.24607	-14.17209	11.27051
4.25038	-14.17209	11.27051
4.25477	-14.15011	11.27051
4.25903	-14.15011	11.27051
4.26323	-14.15011	11.27051
4.26742	-14.12814	11.27051
4.27161	-14.10617	11.27051
4.27579	-14.10617	11.27051
4.27998	-14.10617	11.27051
4.28426	-14.08420	11.27051
4.28855	-14.08420	11.27051
4.29275	-14.08420	11.27051
4.29693	-14.06222	11.27051
4.30112	-14.04025	11.27051
4.30530	-14.04025	11.27051
4.30948	-14.04025	11.27051
4.31366	-14.01828	11.27051
4.31796	-14.01828	11.27051
4.32215	-14.01828	11.27051
4.32633	-13.99631	11.27051
4.33052	-13.99631	11.27051
4.33470	-13.97433	11.27051
4.33888	-13.97433	11.27051
4.34306	-13.97433	11.27051
4.34731	-13.97433	11.27051
4.35168	-13.97433	11.27051
4.35590	-13.95236	11.27051
4.36009	-13.95236	11.27051
4.36428	-13.95236	11.27051
4.36847	-13.95236	11.27051
4.37265	-13.93039	11.27051
4.37684	-13.93039	11.27051
4.38113	-13.93039	11.27051
4.38533	-13.93039	11.27051
4.38951	-13.93039	11.27051
4.39369	-13.93039	11.27051
4.39788	-13.90841	11.27051
4.40207	-13.90841	11.27051
4.40625	-13.90841	11.27051
4.41051	-13.90841	11.27051
4.41477	-13.90841	11.27051
4.41896	-13.90841	11.27051
4.42315	-13.90841	11.27051
4.42733	-13.88644	11.27051
4.43151	-13.88644	11.27051
4.43569	-13.88644	11.27051
4.43988	-13.88644	11.27051
4.44417	-13.88644	11.27051
4.44836	-13.88644	11.27051
4.45265	-13.88644	11.27051
4.45686	-13.88644	11.27051
4.46105	-13.88644	11.27051
4.46527	-13.86447	11.27051
4.46945	-13.86447	11.27051
4.47384	-13.88644	11.27051
4.47807	-13.86447	11.27051
4.48226	-13.88644	11.27051
4.48644	-13.88644	11.27051
4.49063	-13.86447	11.27051
4.49481	-13.86447	11.27051
4.49899	-13.86447	11.27051
4.50324	-13.86447	11.27051
4.50751	-13.88644	11.27051
4.51170	-13.86447	11.27051
4.51588	-13.86447	11.27051
4.52007	-13.88644	11.27051
4.52426	-13.88644	11.27051
4.52844	-13.88644	11.27051
4.53263	-13.88644	11.27051
4.53701	-13.88644	11.27051
4.54123	-13.88644	11.27051
4.54541	-13.88644	11.27051
4.54960	-13.88644	11.27051
4.55388	-13.88644	11.27051
4.55809	-13.88644	11.27051
4.56228	-13.88644	11.27051
4.56654	-13.90841	11.27051
4.57083	-13.90841	11.27051
4.57503	-13.90841	11.27051
4.57921	-13.90841	11.27051
4.58339	-13.90841	11.27051
4.58758	-13.90841	11.27051
4.59176	-13.90841	11.27051
4.59594	-13.90841	11.27051
4.60031	-13.90841	11.27051
4.60452	-13.90841	11.27051
4.60871	-13.93039	11.27051
4.61289	-13.93039	11.27051
4.61707	-13.93039	11.27051
4.62126	-13.93039	11.27051
4.62545	-13.93039	11.27051
4.62971	-13.95236	11.27051
4.63399	-13.95236	11.27051
4.63815	-13.95236	11.27051
4.64233	-13.95236	11.27051
4.64652	-13.95236	11.27051
4.65070	-13.95236	11.27051
4.65502	-13.95236	11.27051
4.65921	-13.97433	11.27051
4.66352	-13.97433	11.27051
4.66772	-13.97433	11.27051
4.67191	-13.97433	11.27051
4.67609	-13.99631	11.27051
4.68027	-13.99631	11.27051
4.68446	-13.99631	11.27051
4.68864	-13.99631	11.27051
4.69289	-13.99631	11.27051
4.69716	-14.01828	11.27051
4.70135	-14.01828	11.27051
4.70554	-14.01828	11.27051
4.70972	-14.01828	11.27051
4.71391	-14.04025	11.27051
4.71810	-14.04025	11.27051
4.72228	-14.04025	11.27051
4.72658	-14.04025	11.27051
4.73078	-14.06222	11.27051
4.73496	-14.06222	11.27051
4.73915	-14.06222	11.27051
4.74333	-14.06222	11.27051
4.74751	-14.06222	11.27051
4.75172	-14.08420	11.27051
4.75610	-14.08420	11.27051
4.76037	-14.10617	11.27051
4.76456	-14.10617	11.27051
4.76875	-14.08420	11.27051
4.77293	-14.10617	11.27051
4.77712	-14.10617	11.27051
4.78130	-14.12814	11.27051
4.78549	-14.12814	11.27051
4.78978	-14.12814	11.27051
4.79399	-14.12814	11.27051
4.79815	-14.12814	11.27051
4.80233	-14.15011	11.27051
4.80652	-14.15011	11.27051
4.81070	-14.15011	11.27051
4.81488	-14.15011	11.27051
4.81913	-14.17209	11.27051
4.82340	-14.17209	11.27051
4.82761	-14.17209	11.27051
4.83179	-14.17209	11.27051
4.83598	-14.17209	11.27051
4.84016	-14.19406	11.27051
4.84435	-14.19406	11.27051
4.84853	-14.19406	11.27051
4.85282	-14.21603	11.27051
4.85718	-14.21603	11.27051
4.86138	-14.21603	11.27051
4.86557	-14.21603	11.27051
4.86976	-14.23800	11.27051
4.87394	-14.23800	11.27051
4.87814	-14.23800	11.27051
4.88255	-14.25998	11.27051
4.88675	-14.25998	11.27051
4.89094	-14.25998	11.27051
4.89512	-14.25998	11.27051
4.89931	-14.25998	11.27051
4.90349	-14.25998	11.27051
4.90767	-14.28195	11.27051
4.91192	-14.28195	11.27051
4.91620	-14.28195	11.27051
4.92039	-14.30392	11.27051
4.92458	-14.30392	11.27051
4.92877	-14.30392	11.27051
4.93295	-14.30392	11.27051
4.93714	-14.32589	11.27051
4.94132	-14.32589	11.27051
4.94562	-14.32589	11.27051
4.94982	-14.34787	11.27051
4.95402	-14.34787	11.27051
4.95833	-14.34787	11.27051
4.96252	-14.34787	11.27051
4.96671	-14.34787	11.27051
4.97089	-14.34787	11.27051
4.97515	-14.36984	11.27051
4.97941	-14.36984	11.27051
4.98362	-14.39181	11.27051
4.98780	-14.39181	11.27051
4.99199	-14.39181	11.27051
4.99618	-14.39181	11.27051
5.00036	-14.39181	11.27051
5.00454	-14.41379	11.27051
5.00884	-14.41379	11.27051
5.01304	-14.41379	11.27051
5.01723	-14.43576	11.27051
5.02141	-14.43576	11.27051
5.02560	-14.43576	11.27051
5.02979	-14.43576	11.27051
5.03397	-14.45773	11.27051
5.03822	-14.45773	11.27051
5.04248	-14.45773	11.27051
5.04667	-14.45773	11.27051
5.05086	-14.47970	11.27051
5.05511	-14.47970	11.27051
5.05942	-14.50168	11.27051
5.06361	-14.50168	11.27051
5.06789	-14.50168	11.27051
5.07218	-14.50168	11.27051
5.07638	-14.52365	11.27051
5.08057	-14.52365	11.27051
5.08476	-14.52365	11.27051
5.08895	-14.52365	11.27051
5.09313	-14.52365	11.27051
5.09731	-14.54562	11.27051
5.10161	-14.54562	11.27051
5.10582	-14.56759	11.27051
5.11003	-14.56759	11.27051
5.11422	-14.56759	11.27051
5.11841	-14.56759	11.27051
5.12260	-14.56759	11.27051
5.12678	-14.58957	11.27051
5.13104	-14.58957	11.27051
5.13530	-14.58957	11.27051
5.13950	-14.61154	11.27051
5.14368	-14.61154	11.27051
5.14787	-14.61154	11.27051
5.15206	-14.61154	11.27051
5.15626	-14.63351	11.27051
5.16056	-14.63351	11.27051
5.16487	-14.63351	11.27051
5.16909	-14.65548	11.27051
5.17328	-14.65548	11.27051
5.17746	-14.65548	11.27051
5.18166	-14.65548	11.27051
5.18585	-14.65548	11.27051
5.19004	-14.67746	11.27051
5.19430	-14.69943	11.27051
5.19857	-14.67746	11.27051
5.20277	-14.69943	11.27051
5.20697	-14.69943	11.27051
5.21116	-14.69943	11.27051
5.21534	-14.69943	11.27051
5.21953	-14.69943	11.27051
5.22371	-14.69943	11.27051
5.22801	-14.72140	11.27051
5.23223	-14.72140	11.27051
5.23642	-14.72140	11.27051
5.24061	-14.72140	11.27051
5.24480	-14.74338	11.27051
5.24899	-14.74338	11.27051
5.25317	-14.74338	11.27051
5.25746	-14.74338	11.27051
5.26186	-14.74338	11.27051
5.26606	-14.76535	11.27051
5.27025	-14.74338	11.27051
5.27444	-14.76535	11.27051
5.27862	-14.76535	11.27051
5.28281	-14.76535	11.27051
5.28699	-14.76535	11.27051
5.29129	-14.76535	11.27051
5.29549	-14.78732	11.27051
5.29968	-14.78732	11.27051
5.30387	-14.78732	11.27051
5.30807	-14.78732	11.27051
5.31226	-14.80929	11.27051
5.31644	-14.80929	11.27051
5.32069	-14.80929	11.27051
5.32496	-14.80929	11.27051
5.32915	-14.80929	11.27051
5.33335	-14.80929	11.27051
5.33753	-14.83127	11.27051
5.34172	-14.80929	11.27051
5.34590	-14.83127	11.27051
5.35009	-14.83127	11.27051
5.35438	-14.85324	11.27051
5.35861	-14.83127	11.27051
5.36291	-14.83127	11.27051
5.36709	-14.85324	11.27051
5.37128	-14.85324	11.27051
5.37546	-14.85324	11.27051
5.37964	-14.85324	11.27051
5.38405	-14.85324	11.27051
5.38825	-14.85324	11.27051
5.39244	-14.87521	11.27051
5.39663	-14.87521	11.27051
5.40081	-14.87521	11.27051
5.40499	-14.87521	11.27051
5.40917	-14.87521	11.27051
5.41342	-14.87521	11.27051
5.41770	-14.89718	11.27051
5.42190	-14.89718	11.27051
5.42609	-14.89718	11.27051
5.43028	-14.89718	11.27051
5.43446	-14.89718	11.27051
5.43864	-14.89718	11.27051
5.44283	-14.89718	11.27051
5.44712	-14.89718	11.27051
5.45133	-14.89718	11.27051
5.45557	-14.91916	11.27051
5.45977	-14.89718	11.27051
5.46407	-14.91916	11.27051
5.46827	-14.91916	11.27051
5.47246	-14.91916	11.27051
5.47689	-14.91916	11.27051
5.48110	-14.91916	11.27051
5.48529	-14.91916	11.27051
5.48947	-14.91916	11.27051
5.49366	-14.91916	11.27051
5.49784	-14.91916	11.27051
5.50203	-14.94113	11.27051
5.50630	-14.94113	11.27051
5.51058	-14.94113	11.27051
5.51478	-14.94113	11.27051
5.51897	-14.94113	11.27051
5.52315	-14.94113	11.27051
5.52734	-14.94113	11.27051
5.53152	-14.94113	11.27051
5.53570	-14.94113	11.27051
5.54000	-14.94113	11.27051
5.54421	-14.94113	11.27051
5.54839	-14.94113	11.27051
5.55258	-14.96310	11.27051
5.55678	-14.94113	11.27051
5.56097	-14.96310	11.27051
5.56527	-14.96310	11.27051
5.56954	-14.96310	11.27051
5.57382	-14.96310	11.27051
5.57803	-14.96310	11.27051
5.58222	-14.96310	11.27051
5.58640	-14.96310	11.27051
5.59059	-14.96310	11.27051
5.59477	-14.96310	11.27051
5.59895	-14.96310	11.27051
5.60325	-14.96310	11.27051
5.60745	-14.96310	11.27051
5.61164	-14.96310	11.27051
5.61582	-14.96310	11.27051
5.62001	-14.98507	11.27051
5.62419	-14.98507	11.27051
5.62837	-14.98507	11.27051
5.63262	-14.98507	11.27051
5.63689	-14.96310	11.27051
5.64108	-14.98507	11.27051
5.64527	-14.98507	11.27051
5.64945	-14.98507	11.27051
5.65364	-14.98507	11.27051
5.65784	-14.98507	11.27051
5.66204	-14.98507	11.27051
5.66644	-14.98507	11.27051
5.67064	-15.00705	11.27051
5.67483	-15.00705	11.27051
5.67902	-15.00705	11.27051
5.68320	-15.00705	11.27051
5.68738	-15.00705	11.27051
5.69157	-15.00705	11.27051
5.69599	-15.00705	11.27051
5.70019	-15.00705	11.27051
5.70438	-15.00705	11.27051
5.70857	-15.00705	11.27051
5.71275	-15.02902	11.27051
5.71693	-15.02902	11.27051
5.72112	-15.02902	11.27051
5.72536	-15.02902	11.27051
5.72964	-15.02902	11.27051
5.73384	-15.05099	11.27051
5.73804	-15.02902	11.27051
5.74223	-15.02902	11.27051
5.74642	-15.05099	11.27051
5.75060	-15.05099	11.27051
5.75478	-15.05099	11.27051
5.75911	-15.05099	11.27051
5.76332	-15.05099	11.27051
5.76762	-15.05099	11.27051
5.77180	-15.05099	11.27051
5.77599	-15.05099	11.27051
5.78018	-15.05099	11.27051
5.78436	-15.07297	11.27051
5.78862	-15.07297	11.27051
5.79289	-15.07297	11.27051
5.79708	-15.07297	11.27051
5.80127	-15.07297	11.27051
5.80545	-15.09494	11.27051
5.80964	-15.09494	11.27051
5.81382	-15.07297	11.27051
5.81801	-15.09494	11.27051
5.82230	-15.09494	11.27051
5.82651	-15.09494	11.27051
5.83069	-15.09494	11.27051
5.83489	-15.09494	11.27051
5.83907	-15.11691	11.27051
5.84325	-15.11691	11.27051
5.84744	-15.11691	11.27051
5.85169	-15.11691	11.27051
5.85595	-15.11691	11.27051
5.86017	-15.11691	11.27051
5.86437	-15.13888	11.27051
5.86866	-15.13888	11.27051
5.87284	-15.13888	11.27051
5.87703	-15.13888	11.27051
5.88121	-15.13888	11.27051
5.88551	-15.13888	11.27051
5.88971	-15.13888	11.27051
5.89392	-15.16086	11.27051
5.89812	-15.16086	11.27051
5.90231	-15.16086	11.27051
5.90649	-15.16086	11.27051
5.91067	-15.16086	11.27051
5.91492	-15.16086	11.27051
5.91925	-15.18283	11.27051
5.92348	-15.18283	11.27051
5.92768	-15.18283	11.27051
5.93188	-15.20480	11.27051
5.93607	-15.20480	11.27051
5.94026	-15.20480	11.27051
5.94445	-15.20480	11.27051
5.94875	-15.22677	11.27051
5.95296	-15.22677	11.27051
5.95715	-15.22677	11.27051
5.96133	-15.22677	11.27051
5.96552	-15.22677	11.27051
5.96982	-15.22677	11.27051
5.97401	-15.24875	11.27051
5.97828	-15.24875	11.27051
5.98255	-15.24875	11.27051
5.98674	-15.24875	11.27051
5.99093	-15.24875	11.27051
5.99512	-15.24875	11.27051
5.99930	-15.27072	11.27051
6.00349	-15.27072	11.27051
6.00767	-15.27072	11.27051
6.01197	-15.27072	11.27051
6.01617	-15.29269	11.27051
6.02035	-15.29269	11.27051
6.02454	-15.29269	11.27051
6.02872	-15.29269	11.27051
6.03291	-15.29269	11.27051
6.03711	-15.29269	11.27051
6.04138	-15.31466	11.27051
6.04565	-15.31466	11.27051
6.04985	-15.31466	11.27051
6.05405	-15.31466	11.27051
6.05823	-15.33664	11.27051
6.06242	-15.33664	11.27051
6.06660	-15.33664	11.27051
6.07089	-15.33664	11.27051
6.07519	-15.33664	11.27051
6.07939	-15.33664	11.27051
6.08358	-15.33664	11.27051
6.08780	-15.35861	11.27051
6.09200	-15.35861	11.27051
6.09619	-15.35861	11.27051
6.10039	-15.35861	11.27051
6.10486	-15.35861	11.27051
6.10908	-15.35861	11.27051
6.11327	-15.38058	11.27051
6.11746	-15.38058	11.27051
6.12164	-15.38058	11.27051
6.12583	-15.38058	11.27051
6.13002	-15.40256	11.27051
6.13428	-15.38058	11.27051
6.13857	-15.40256	11.27051
6.14277	-15.40256	11.27051
6.14698	-15.40256	11.27051
6.15117	-15.40256	11.27051
6.15537	-15.40256	11.27051
6.15956	-15.42453	11.27051
6.16375	-15.42453	11.27051
6.16805	-15.42453	11.27051
6.17236	-15.42453	11.27051
6.17655	-15.42453	11.27051
6.18074	-15.42453	11.27051
6.18492	-15.44650	11.27051
6.18910	-15.44650	11.27051
6.19328	-15.44650	11.27051
6.19753	-15.44650	11.27051
6.20181	-15.44650	11.27051
6.20602	-15.44650	11.27051
6.21021	-15.46847	11.27051
6.21439	-15.46847	11.27051
6.21858	-15.46847	11.27051
6.22276	-15.49045	11.27051
6.22694	-15.49045	11.27051
6.23126	-15.49045	11.27051
6.23546	-15.49045	11.27051
6.23966	-15.49045	11.27051
6.24388	-15.49045	11.27051
6.24808	-15.51242	11.27051
6.25227	-15.51242	11.27051
6.25646	-15.51242	11.27051
6.26089	-15.51242	11.27051
6.26511	-15.51242	11.27051
6.26930	-15.53439	11.27051
6.27359	-15.53439	11.27051
6.27778	-15.53439	11.27051
6.28196	-15.53439	11.27051
6.28614	-15.53439	11.27051
6.29041	-15.53439	11.27051
6.29468	-15.55636	11.27051
6.29888	-15.55636	11.27051
6.30306	-15.55636	11.27051
6.30725	-15.55636	11.27051
6.31144	-15.55636	11.27051
6.31562	-15.57834	11.27051
6.31981	-15.57834	11.27051
6.32411	-15.57834	11.27051
6.32831	-15.57834	11.27051
6.33250	-15.60031	11.27051
6.33668	-15.60031	11.27051
6.34087	-15.60031	11.27051
6.34505	-15.62228	11.27051
6.34924	-15.60031	11.27051
6.35349	-15.62228	11.27051
6.35776	-15.62228	11.27051
6.36196	-15.62228	11.27051
6.36614	-15.62228	11.27051
6.37032	-15.62228	11.27051
6.37461	-15.64425	11.27051
6.37879	-15.64425	11.27051
6.38297	-15.64425	11.27051
6.38727	-15.64425	11.27051
6.39148	-15.66623	11.27051
6.39567	-15.66623	11.27051
6.39985	-15.68820	11.27051
6.40403	-15.68820	11.27051
6.40822	-15.68820	11.27051
6.41240	-15.68820	11.27051
6.41665	-15.68820	11.27051
6.42092	-15.71017	11.27051
6.42512	-15.71017	11.27051
6.42931	-15.71017	11.27051
6.43350	-15.73214	11.27051
6.43768	-15.73214	11.27051
6.44187	-15.73214	11.27051
6.44606	-15.73214	11.27051
6.45036	-15.73214	11.27051
6.45455	-15.75412	11.27051
6.45874	-15.75412	11.27051
6.46293	-15.75412	11.27051
6.46711	-15.75412	11.27051
6.47129	-15.77609	11.27051
6.47558	-15.77609	11.27051
6.48003	-15.77609	11.27051
6.48424	-15.79806	11.27051
6.48842	-15.79806	11.27051
6.49261	-15.79806	11.27051
6.49679	-15.79806	11.27051
6.50098	-15.82004	11.27051
6.50516	-15.82004	11.27051
6.50942	-15.82004	11.27051
6.51370	-15.84201	11.27051
6.51790	-15.84201	11.27051
6.52209	-15.84201	11.27051
6.52628	-15.84201	11.27051
6.53046	-15.86398	11.27051
6.53465	-15.86398	11.27051
6.53885	-15.88595	11.27051
6.54316	-15.88595	11.27051
6.54737	-15.88595	11.27051
6.55156	-15.88595	11.27051
6.55574	-15.88595	11.27051
6.55993	-15.90793	11.27051
6.56411	-15.90793	11.27051
6.56830	-15.90793	11.27051
6.57256	-15.90793	11.27051
6.57695	-15.92990	11.27051
6.58114	-15.92990	11.27051
6.58533	-15.92990	11.27051
6.58951	-15.92990	11.27051
6.59370	-15.95187	11.27051
6.59789	-15.95187	11.27051
6.60208	-15.95187	11.27051
6.60638	-15.97384	11.27051
6.61058	-15.99582	11.27051
6.61477	-15.99582	11.27051
6.61895	-15.99582	11.27051
6.62314	-15.99582	11.27051
6.62732	-15.99582	11.27051
6.63150	-15.99582	11.27051
6.63575	-16.01779	11.27051
6.64002	-16.01779	11.27051
6.64421	-16.03976	11.27051
6.64840	-16.03976	11.27051
6.65258	-16.03976	11.27051
6.65676	-16.03976	11.27051
6.66095	-16.06173	11.27051
6.66513	-16.06173	11.27051
6.66943	-16.08371	11.27051
6.67363	-16.08371	11.27051
6.67792	-16.06173	11.27051
6.68211	-16.08371	11.27051
6.68630	-16.08371	11.27051
6.69048	-16.08371	11.27051
6.69466	-16.10568	11.27051
6.69911	-16.10568	11.27051
6.70333	-16.10568	11.27051
6.70751	-16.10568	11.27051
6.71170	-16.12765	11.27051
6.71588	-16.12765	11.27051
6.72006	-16.14963	11.27051
6.72425	-16.12765	11.27051
6.72849	-16.12765	11.27051
6.73277	-16.14963	11.27051
6.73697	-16.14963	11.27051
6.74115	-16.14963	11.27051
6.74534	-16.17160	11.27051
6.74952	-16.17160	11.27051
6.75371	-16.17160	11.27051
6.75789	-16.17160	11.27051
6.76220	-16.17160	11.27051
6.76641	-16.19357	11.27051
6.77059	-16.19357	11.27051
6.77478	-16.19357	11.27051
6.77907	-16.21554	11.27051
6.78325	-16.21554	11.27051
6.78743	-16.21554	11.27051
6.79169	-16.21554	11.27051
6.79595	-16.21554	11.27051
6.80014	-16.21554	11.27051
6.80433	-16.21554	11.27051
6.80851	-16.23752	11.27051
6.81270	-16.23752	11.27051
6.81688	-16.23752	11.27051
6.82107	-16.23752	11.27051
6.82536	-16.25949	11.27051
6.82957	-16.25949	11.27051
6.83375	-16.25949	11.27051
6.83793	-16.25949	11.27051
6.84213	-16.25949	11.27051
6.84631	-16.28146	11.27051
6.85050	-16.28146	11.27051
6.85475	-16.28146	11.27051
6.85902	-16.28146	11.27051
6.86322	-16.28146	11.27051
6.86740	-16.28146	11.27051
6.87159	-16.28146	11.27051
6.87577	-16.30343	11.27051
6.88006	-16.30343	11.27051
6.88424	-16.30343	11.27051
6.88853	-16.30343	11.27051
6.89274	-16.30343	11.27051
6.89692	-16.32541	11.27051
6.90111	-16.32541	11.27051
6.90529	-16.32541	11.27051
6.90947	-16.32541	11.27051
6.91366	-16.32541	11.27051
6.91791	-16.32541	11.27051
6.92219	-16.32541	11.27051
6.92639	-16.32541	11.27051
6.93058	-16.34738	11.27051
6.93476	-16.36935	11.27051
6.93894	-16.36935	11.27051
6.94313	-16.34738	11.27051
6.94732	-16.34738	11.27051
6.95161	-16.34738	11.27051
6.95581	-16.36935	11.27051
6.96000	-16.36935	11.27051
6.96419	-16.36935	11.27051
6.96837	-16.36935	11.27051
6.97255	-16.36935	11.27051
6.97674	-16.36935	11.27051
6.98110	-16.39132	11.27051
6.98535	-16.36935	11.27051
6.98955	-16.36935	11.27051
6.99374	-16.39132	11.27051
6.99792	-16.39132	11.27051
7.00212	-16.39132	11.27051
7.00630	-16.39132	11.27051
7.01049	-16.39132	11.27051
7.01478	-16.39132	11.27051
7.01899	-16.41330	11.27051
7.02318	-16.39132	11.27051
7.02736	-16.39132	11.27051
7.03154	-16.41330	11.27051
7.03573	-16.39132	11.27051
7.03993	-16.41330	11.27051
7.04420	-16.41330	11.27051
7.04848	-16.41330	11.27051
7.05267	-16.41330	11.27051
7.05686	-16.41330	11.27051
7.06105	-16.43527	11.27051
7.06523	-16.43527	11.27051
7.06942	-16.43527	11.27051
7.07360	-16.41330	11.27051
7.07790	-16.43527	11.27051
7.08222	-16.43527	11.27051
7.08641	-16.43527	11.27051
7.09060	-16.43527	11.27051
7.09479	-16.43527	11.27051
7.09897	-16.43527	11.27051
7.10316	-16.45724	11.27051
7.10759	-16.43527	11.27051
7.11180	-16.45724	11.27051
7.11598	-16.45724	11.27051
7.12017	-16.45724	11.27051
7.12436	-16.45724	11.27051
7.12854	-16.45724	11.27051
7.13272	-16.45724	11.27051
7.13698	-16.47922	11.27051
7.14127	-16.45724	11.27051
7.14548	-16.45724	11.27051
7.14968	-16.47922	11.27051
7.15387	-16.47922	11.27051
7.15807	-16.47922	11.27051
7.16226	-16.50119	11.27051
7.16645	-16.47922	11.27051
7.17075	-16.47922	11.27051
7.17496	-16.50119	11.27051
7.17915	-16.50119	11.27051
7.18343	-16.50119	11.27051
7.18762	-16.50119	11.27051
7.19180	-16.50119	11.27051
7.19598	-16.50119	11.27051
7.20023	-16.50119	11.27051
7.20451	-16.50119	11.27051
7.20871	-16.52316	11.27051
7.21290	-16.50119	11.27051
7.21708	-16.52316	11.27051
7.22127	-16.52316	11.27051
7.22545	-16.52316	11.27051
7.22963	-16.52316	11.27051
7.23395	-16.54513	11.27051
7.23815	-16.54513	11.27051
7.24235	-16.54513	11.27051
7.24656	-16.54513	11.27051
7.25076	-16.54513	11.27051
7.25495	-16.54513	11.27051
7.25913	-16.54513	11.27051
7.26339	-16.54513	11.27051
7.26767	-16.54513	11.27051
7.27186	-16.54513	11.27051
7.27605	-16.54513	11.27051
7.28024	-16.54513	11.27051
7.28453	-16.56711	11.27051
7.28871	-16.56711	11.27051
7.29289	-16.56711	11.27051
7.29719	-16.56711	11.27051
7.30140	-16.56711	11.27051
7.30559	-16.56711	11.27051
7.30977	-16.56711	11.27051
7.31396	-16.56711	11.27051
7.31814	-16.58908	11.27051
7.32232	-16.56711	11.27051
7.32657	-16.58908	11.27051
7.33084	-16.58908	11.27051
7.33504	-16.58908	11.27051
7.33923	-16.58908	11.27051
7.34341	-16.58908	11.27051
7.34761	-16.58908	11.27051
7.35179	-16.61105	11.27051
7.35598	-16.61105	11.27051
7.36028	-16.58908	11.27051
7.36449	-16.61105	11.27051
7.36867	-16.58908	11.27051
7.37286	-16.58908	11.27051
7.37705	-16.61105	11.27051
7.38123	-16.61105	11.27051
7.38552	-16.58908	11.27051
7.38995	-16.61105	11.27051
7.39416	-16.58908	11.27051
7.39834	-16.61105	11.27051
7.40253	-16.61105	11.27051
7.40671	-16.61105	11.27051
7.41090	-16.61105	11.27051
7.41508	-16.61105	11.27051
7.41933	-16.61105	11.27051
7.42361	-16.61105	11.27051
7.42781	-16.61105	11.27051
7.43200	-16.61105	11.27051
7.43618	-16.61105	11.27051
7.44036	-16.61105	11.27051
7.44455	-16.61105	11.27051
7.44876	-16.61105	11.27051
7.45307	-16.61105	11.27051
7.45728	-16.61105	11.27051
7.46147	-16.61105	11.27051
7.46566	-16.61105	11.27051
7.46985	-16.61105	11.27051
7.47404	-16.61105	11.27051
7.47822	-16.61105	11.27051
7.48247	-16.63302	11.27051
7.48685	-16.63302	11.27051
7.49105	-16.61105	11.27051
7.49523	-16.61105	11.27051
7.49942	-16.61105	11.27051
7.50360	-16.61105	11.27051
7.50779	-16.61105	11.27051
7.51197	-16.61105	11.27051
7.51627	-16.61105	11.27051
7.52047	-16.61105	11.27051
7.52466	-16.61105	11.27051
7.52885	-16.61105	11.27051
7.53303	-16.61105	11.27051
7.53722	-16.61105	11.27051
7.54143	-16.61105	11.27051
7.54570	-16.61105	11.27051
7.54998	-16.61105	11.27051
7.55415	-16.61105	11.27051
7.55833	-16.61105	11.27051
7.56252	-16.58908	11.27051
7.56671	-16.58908	11.27051
7.57089	-16.61105	11.27051
7.57507	-16.58908	11.27051
7.57937	-16.61105	11.27051
7.58357	-16.58908	11.27051
7.58786	-16.58908	11.27051
7.59204	-16.58908	11.27051
7.59623	-16.58908	11.27051
7.60041	-16.58908	11.27051
7.60459	-16.58908	11.27051
7.60905	-16.58908	11.27051
7.61326	-16.58908	11.27051
7.61745	-16.58908	11.27051
7.62163	-16.58908	11.27051
7.62582	-16.56711	11.27051
7.63001	-16.58908	11.27051
7.63419	-16.56711	11.27051
7.63845	-16.56711	11.27051
7.64274	-16.56711	11.27051
7.64694	-16.56711	11.27051
7.65112	-16.56711	11.27051
7.65531	-16.56711	11.27051
7.65958	-16.56711	11.27051
7.66378	-16.56711	11.27051
7.66797	-16.54513	11.27051
7.67227	-16.54513	11.27051
7.67648	-16.54513	11.27051
7.68067	-16.54513	11.27051
7.68485	-16.54513	11.27051
7.68914	-16.54513	11.27051
7.69333	-16.54513	11.27051
7.69751	-16.54513	11.27051
7.70176	-16.54513	11.27051
7.70605	-16.52316	11.27051
7.71024	-16.52316	11.27051
7.71443	-16.52316	11.27051
7.71861	-16.52316	11.27051
7.72280	-16.52316	11.27051
7.72698	-16.52316	11.27051
7.73117	-16.50119	11.27051
7.73547	-16.52316	11.27051
7.73968	-16.50119	11.27051
7.74386	-16.50119	11.27051
7.74805	-16.50119	11.27051
7.75223	-16.50119	11.27051
7.75642	-16.50119	11.27051
7.76060	-16.50119	11.27051
7.76485	-16.47922	11.27051
7.76911	-16.47922	11.27051
7.77331	-16.47922	11.27051
7.77750	-16.47922	11.27051
7.78168	-16.45724	11.27051
7.78587	-16.47922	11.27051
7.79017	-16.45724	11.27051
7.79435	-16.45724	11.27051
7.79865	-16.45724	11.27051
7.80286	-16.45724	11.27051
7.80704	-16.45724	11.27051
7.81123	-16.45724	11.27051
7.81541	-16.43527	11.27051
7.81960	-16.45724	11.27051
7.82378	-16.43527	11.27051
7.82803	-16.43527	11.27051
7.83231	-16.43527	11.27051
7.83650	-16.43527	11.27051
7.84069	-16.41330	11.27051
7.84487	-16.41330	11.27051
7.84906	-16.41330	11.27051
7.85325	-16.41330	11.27051
7.85743	-16.41330	11.27051
7.86173	-16.41330	11.27051
7.86593	-16.41330	11.27051
7.87013	-16.39132	11.27051
7.87431	-16.39132	11.27051
7.87849	-16.39132	11.27051
7.88268	-16.39132	11.27051
7.88686	-16.36935	11.27051
7.89122	-16.39132	11.27051
7.89549	-16.36935	11.27051
7.89968	-16.36935	11.27051
7.90387	-16.36935	11.27051
7.90807	-16.36935	11.27051
7.91226	-16.34738	11.27051
7.91645	-16.36935	11.27051
7.92064	-16.34738	11.27051
7.92494	-16.34738	11.27051
7.92915	-16.34738	11.27051
7.93334	-16.34738	11.27051
7.93753	-16.32541	11.27051
7.94172	-16.34738	11.27051
7.94591	-16.32541	11.27051
7.95011	-16.32541	11.27051
7.95454	-16.32541	11.27051
7.95875	-16.30343	11.27051
7.96295	-16.30343	11.27051
7.96713	-16.30343	11.27051
7.97132	-16.30343	11.27051
7.97551	-16.30343	11.27051
7.97970	-16.28146	11.27051
7.98397	-16.28146	11.27051
7.98826	-16.28146	11.27051
7.99258	-16.28146	11.27051
7.99677	-16.28146	11.27051
8.00096	-16.25949	11.27051
8.00515	-16.25949	11.27051
8.00934	-16.25949	11.27051
8.01353	-16.25949	11.27051
8.01784	-16.23752	11.27051
8.02206	-16.23752	11.27051
8.02625	-16.23752	11.27051
8.03044	-16.21554	11.27051
8.03463	-16.23752	11.27051
8.03884	-16.23752	11.27051
8.04304	-16.21554	11.27051
8.04731	-16.21554	11.27051
8.05158	-16.21554	11.27051
8.05579	-16.19357	11.27051
8.06000	-16.19357	11.27051
8.06419	-16.17160	11.27051
8.06838	-16.17160	11.27051
8.07257	-16.19357	11.27051
8.07676	-16.17160	11.27051
8.08107	-16.17160	11.27051
8.08529	-16.17160	11.27051
8.08949	-16.14963	11.27051
8.09380	-16.17160	11.27051
8.09799	-16.17160	11.27051
8.10214	-16.14963	11.27051
8.10633	-16.14963	11.27051
8.11080	-16.14963	11.27051
8.11502	-16.12765	11.27051
8.11921	-16.12765	11.27051
8.12340	-16.12765	11.27051
8.12760	-16.10568	11.27051
8.13179	-16.10568	11.27051
8.13598	-16.10568	11.27051
8.14025	-16.10568	11.27051
8.14455	-16.10568	11.27051
8.14874	-16.10568	11.27051
8.15294	-16.08371	11.27051
8.15713	-16.08371	11.27051
8.16132	-16.08371	11.27051
8.16551	-16.08371	11.27051
8.16970	-16.08371	11.27051
8.17402	-16.06173	11.27051
8.17823	-16.06173	11.27051
8.18242	-16.06173	11.27051
8.18661	-16.03976	11.27051
8.19080	-16.06173	11.27051
8.19510	-16.03976	11.27051
8.19929	-16.03976	11.27051
8.20356	-16.03976	11.27051
8.20784	-16.03976	11.27051
8.21204	-16.01779	11.27051
8.21623	-16.03976	11.27051
8.22042	-16.01779	11.27051
8.22461	-16.01779	11.27051
8.22880	-16.01779	11.27051
8.23300	-16.01779	11.27051
8.23732	-15.99582	11.27051
8.24154	-16.01779	11.27051
8.24587	-15.99582	11.27051
8.25009	-15.99582	11.27051
8.25429	-15.99582	11.27051
8.25848	-15.97384	11.27051
8.26268	-15.99582	11.27051
8.26714	-15.99582	11.27051
8.27135	-15.97384	11.27051
8.27555	-15.97384	11.27051
8.27974	-15.97384	11.27051
8.28393	-15.97384	11.27051
8.28813	-15.97384	11.27051
8.29232	-15.97384	11.27051
8.29670	-15.97384	11.27051
8.30096	-15.97384	11.27051
8.30515	-15.95187	11.27051
8.30934	-15.95187	11.27051
8.31353	-15.95187	11.27051
8.31772	-15.95187	11.27051
8.32191	-15.95187	11.27051
8.32611	-15.95187	11.27051
8.33041	-15.92990	11.27051
8.33462	-15.92990	11.27051
8.33882	-15.92990	11.27051
8.34301	-15.92990	11.27051
8.34720	-15.92990	11.27051
8.35139	-15.92990	11.27051
8.35558	-15.92990	11.27051
8.36002	-15.92990	11.27051
8.36424	-15.92990	11.27051
8.36843	-15.90793	11.27051
8.37262	-15.92990	11.27051
8.37682	-15.90793	11.27051
8.38101	-15.90793	11.27051
8.38520	-15.90793	11.27051
8.38948	-15.90793	11.27051
8.39377	-15.90793	11.27051
8.39810	-15.90793	11.27051
8.40229	-15.88595	11.27051
8.40649	-15.90793	11.27051
8.41068	-15.90793	11.27051
8.41486	-15.88595	11.27051
8.41905	-15.88595	11.27051
8.42338	-15.88595	11.27051
8.42759	-15.86398	11.27051
8.43178	-15.88595	11.27051
8.43597	-15.86398	11.27051
8.44017	-15.86398	11.27051
8.44436	-15.86398	11.27051
8.44854	-15.86398	11.27051
8.45298	-15.86398	11.27051
8.45720	-15.86398	11.27051
8.46140	-15.84201	11.27051
8.46559	-15.84201	11.27051
8.46978	-15.86398	11.27051
8.47397	-15.84201	11.27051
8.47814	-15.86398	11.27051
8.48242	-15.84201	11.27051
8.48672	-15.84201	11.27051
8.49093	-15.84201	11.27051
8.49512	-15.84201	11.27051
8.49943	-15.84201	11.27051
8.50362	-15.84201	11.27051
8.50781	-15.82004	11.27051
8.51200	-15.82004	11.27051
8.51631	-15.82004	11.27051
8.52052	-15.82004	11.27051
8.52471	-15.82004	11.27051
8.52890	-15.82004	11.27051
8.53309	-15.79806	11.27051
8.53728	-15.82004	11.27051
8.54149	-15.82004	11.27051
8.54595	-15.82004	11.27051
8.55017	-15.82004	11.27051
8.55437	-15.79806	11.27051
8.55856	-15.79806	11.27051
8.56275	-15.79806	11.27051
8.56696	-15.79806	11.27051
8.57115	-15.79806	11.27051
8.57542	-15.79806	11.27051
8.57970	-15.79806	11.27051
8.58390	-15.79806	11.27051
8.58810	-15.79806	11.27051
8.59229	-15.77609	11.27051
8.59648	-15.77609	11.27051
8.60079	-15.77609	11.27051
8.60497	-15.77609	11.27051
8.60929	-15.77609	11.27051
8.61350	-15.77609	11.27051
8.61770	-15.79806	11.27051
8.62189	-15.77609	11.27051
8.62609	-15.77609	11.27051
8.63028	-15.75412	11.27051
8.63447	-15.77609	11.27051
8.63890	-15.77609	11.27051
8.64312	-15.77609	11.27051
8.64731	-15.77609	11.27051
8.65150	-15.77609	11.27051
8.65569	-15.77609	11.27051
8.65989	-15.77609	11.27051
8.66408	-15.75412	11.27051
8.66835	-15.77609	11.27051
8.67265	-15.77609	11.27051
8.67685	-15.77609	11.27051
8.68104	-15.75412	11.27051
8.68523	-15.77609	11.27051
8.68942	-15.77609	11.27051
8.69361	-15.77609	11.27051
8.69780	-15.77609	11.27051
8.70224	-15.77609	11.27051
8.70645	-15.77609	11.27051
8.71064	-15.77609	11.27051
8.71484	-15.75412	11.27051
8.71903	-15.77609	11.27051
8.72322	-15.77609	11.27051
8.72740	-15.77609	11.27051
8.73167	-15.77609	11.27051
8.73594	-15.77609	11.27051
8.74014	-15.75412	11.27051
8.74434	-15.77609	11.27051
8.74853	-15.77609	11.27051
8.75272	-15.77609	11.27051
8.75691	-15.77609	11.27051
8.76110	-15.75412	11.27051
8.76541	-15.77609	11.27051
8.76962	-15.77609	11.27051
8.77381	-15.77609	11.27051
8.77801	-15.77609	11.27051
8.78220	-15.77609	11.27051
8.78639	-15.77609	11.27051
8.79058	-15.77609	11.27051
8.79501	-15.77609	11.27051
8.79922	-15.77609	11.27051
8.80352	-15.77609	11.27051
8.80772	-15.77609	11.27051
8.81191	-15.77609	11.27051
8.81610	-15.77609	11.27051
8.82029	-15.77609	11.27051
8.82455	-15.77609	11.27051
8.82883	-15.77609	11.27051
8.83303	-15.77609	11.27051
8.83723	-15.77609	11.27051
8.84142	-15.77609	11.27051
8.84561	-15.77609	11.27051
8.84979	-15.77609	11.27051
8.85398	-15.77609	11.27051
8.85826	-15.77609	11.27051
8.86246	-15.77609	11.27051
8.86665	-15.77609	11.27051
8.87083	-15.77609	11.27051
8.87502	-15.79806	11.27051
8.87920	-15.77609	11.27051
8.88339	-15.79806	11.27051
8.88764	-15.77609	11.27051
8.89191	-15.77609	11.27051
8.89611	-15.77609	11.27051
8.90030	-15.77609	11.27051
8.90458	-15.77609	11.27051
8.90877	-15.79806	11.27051
8.91295	-15.77609	11.27051
8.91714	-15.77609	11.27051
8.92144	-15.79806	11.27051
8.92565	-15.77609	11.27051
8.92984	-15.77609	11.27051
8.93403	-15.79806	11.27051
8.93822	-15.79806	11.27051
8.94240	-15.77609	11.27051
8.94659	-15.79806	11.27051
8.95084	-15.77609	11.27051
8.95511	-15.79806	11.27051
8.95931	-15.79806	11.27051
8.96350	-15.79806	11.27051
8.96769	-15.79806	11.27051
8.97187	-15.79806	11.27051
8.97606	-15.77609	11.27051
8.98024	-15.79806	11.27051
8.98454	-15.79806	11.27051
8.98875	-15.79806	11.27051
8.99294	-15.79806	11.27051
8.99712	-15.79806	11.27051
9.00131	-15.79806	11.27051
9.00559	-15.79806	11.27051
9.00978	-15.79806	11.27051
9.01425	-15.79806	11.27051
9.01846	-15.79806	11.27051
9.02265	-15.79806	11.27051
9.02683	-15.79806	11.27051
9.03101	-15.79806	11.27051
9.03520	-15.77609	11.27051
9.03944	-15.79806	11.27051
9.04371	-15.79806	11.27051
9.04799	-15.79806	11.27051
9.05219	-15.79806	11.27051
9.05644	-15.79806	11.27051
9.06063	-15.79806	11.27051
9.06482	-15.79806	11.27051
9.06901	-15.79806	11.27051
9.07319	-15.79806	11.27051
9.07749	-15.79806	11.27051
9.08170	-15.79806	11.27051
9.08590	-15.79806	11.27051
9.09010	-15.77609	11.27051
9.09429	-15.77609	11.27051
9.09848	-15.79806	11.27051
9.10266	-15.79806	11.27051
9.10724	-15.77609	11.27051
9.11144	-15.77609	11.27051
9.11563	-15.77609	11.27051
9.11982	-15.77609	11.27051
9.12400	-15.77609	11.27051
9.12819	-15.75412	11.27051
9.13237	-15.75412	11.27051
9.13664	-15.77609	11.27051
9.14092	-15.75412	11.27051
9.14512	-15.77609	11.27051
9.14930	-15.77609	11.27051
9.15349	-15.77609	11.27051
9.15768	-15.75412	11.27051
9.16186	-15.77609	11.27051
9.16606	-15.75412	11.27051
9.17036	-15.75412	11.27051
9.17458	-15.75412	11.27051
9.17876	-15.75412	11.27051
9.18295	-15.75412	11.27051
9.18713	-15.75412	11.27051
9.19132	-15.75412	11.27051
9.19550	-15.75412	11.27051
9.19975	-15.75412	11.27051
9.20402	-15.75412	11.27051
9.20832	-15.75412	11.27051
9.21251	-15.73214	11.27051
9.21670	-15.73214	11.27051
9.22088	-15.73214	11.27051
9.22506	-15.73214	11.27051
9.22925	-15.73214	11.27051
9.23356	-15.73214	11.27051
9.23777	-15.73214	11.27051
9.24196	-15.73214	11.27051
9.24614	-15.73214	11.27051
9.25034	-15.73214	11.27051
9.25453	-15.73214	11.27051
9.25872	-15.73214	11.27051
9.26317	-15.71017	11.27051
9.26738	-15.73214	11.27051
9.27156	-15.71017	11.27051
9.27575	-15.71017	11.27051
9.27994	-15.71017	11.27051
9.28412	-15.71017	11.27051
9.28831	-15.71017	11.27051
9.29256	-15.73214	11.27051
9.29685	-15.71017	11.27051
9.30105	-15.71017	11.27051
9.30524	-15.71017	11.27051
9.30953	-15.71017	11.27051
9.31371	-15.71017	11.27051
9.31789	-15.71017	11.27051
9.32208	-15.68820	11.27051
9.32638	-15.71017	11.27051
9.33060	-15.68820	11.27051
9.33479	-15.68820	11.27051
9.33897	-15.68820	11.27051
9.34316	-15.68820	11.27051
9.34734	-15.66623	11.27051
9.35153	-15.68820	11.27051
9.35578	-15.66623	11.27051
9.36006	-15.66623	11.27051
9.36425	-15.66623	11.27051
9.36844	-15.66623	11.27051
9.37263	-15.66623	11.27051
9.37682	-15.68820	11.27051
9.38100	-15.66623	11.27051
9.38518	-15.66623	11.27051
9.38948	-15.66623	11.27051
9.39368	-15.66623	11.27051
9.39787	-15.66623	11.27051
9.40206	-15.64425	11.27051
9.40624	-15.66623	11.27051
9.41053	-15.64425	11.27051
9.41472	-15.64425	11.27051
9.41915	-15.64425	11.27051
9.42337	-15.64425	11.27051
9.42755	-15.64425	11.27051
9.43174	-15.64425	11.27051
9.43592	-15.64425	11.27051
9.44011	-15.64425	11.27051
9.44429	-15.64425	11.27051
9.44854	-15.64425	11.27051
9.45282	-15.62228	11.27051
9.45702	-15.64425	11.27051
9.46121	-15.62228	11.27051
9.46540	-15.62228	11.27051
9.46958	-15.62228	11.27051
9.47376	-15.62228	11.27051
9.47795	-15.62228	11.27051
9.48240	-15.62228	11.27051
9.48660	-15.62228	11.27051
9.49080	-15.62228	11.27051
9.49498	-15.62228	11.27051
9.49916	-15.62228	11.27051
9.50335	-15.62228	11.27051
9.50753	-15.62228	11.27051
9.51190	-15.60031	11.27051
9.51618	-15.62228	11.27051
9.52038	-15.60031	11.27051
9.52457	-15.60031	11.27051
9.52875	-15.60031	11.27051
9.53294	-15.60031	11.27051
9.53712	-15.60031	11.27051
9.54132	-15.60031	11.27051
9.54564	-15.60031	11.27051
9.54985	-15.60031	11.27051
9.55404	-15.60031	11.27051
9.55823	-15.60031	11.27051
9.56242	-15.60031	11.27051
9.56661	-15.60031	11.27051
9.57079	-15.57834	11.27051
9.57504	-15.57834	11.27051
9.57932	-15.60031	11.27051
9.58352	-15.57834	11.27051
9.58770	-15.60031	11.27051
9.59189	-15.57834	11.27051
9.59607	-15.57834	11.27051
9.60026	-15.57834	11.27051
9.60444	-15.57834	11.27051
9.60874	-15.57834	11.27051
9.61304	-15.57834	11.27051
9.61723	-15.57834	11.27051
9.62142	-15.57834	11.27051
9.62560	-15.57834	11.27051
9.62979	-15.57834	11.27051
9.63397	-15.57834	11.27051
9.63821	-15.57834	11.27051
9.64249	-15.57834	11.27051
9.64669	-15.57834	11.27051
9.65088	-15.57834	11.27051
9.65507	-15.57834	11.27051
9.65925	-15.57834	11.27051
9.66344	-15.57834	11.27051
9.66763	-15.57834	11.27051
9.67193	-15.57834	11.27051
9.67617	-15.55636	11.27051
9.68037	-15.55636	11.27051
9.68457	-15.57834	11.27051
9.68876	-15.57834	11.27051
9.69294	-15.57834	11.27051
9.69713	-15.57834	11.27051
9.70138	-15.57834	11.27051
9.70565	-15.55636	11.27051
9.70985	-15.57834	11.27051
9.71416	-15.57834	11.27051
9.71835	-15.57834	11.27051
9.72253	-15.57834	11.27051
9.72672	-15.57834	11.27051
9.73090	-15.57834	11.27051
9.73521	-15.57834	11.27051
9.73942	-15.55636	11.27051
9.74361	-15.57834	11.27051
9.74780	-15.55636	11.27051
9.75198	-15.57834	11.27051
9.75617	-15.57834	11.27051
9.76035	-15.57834	11.27051
9.76460	-15.55636	11.27051
9.76887	-15.57834	11.27051
9.77307	-15.55636	11.27051
9.77726	-15.57834	11.27051
9.78144	-15.55636	11.27051
9.78563	-15.55636	11.27051
9.78981	-15.57834	11.27051
9.79399	-15.57834	11.27051
9.79825	-15.55636	11.27051
9.80245	-15.57834	11.27051
9.80664	-15.55636	11.27051
9.81083	-15.55636	11.27051
9.81512	-15.57834	11.27051
9.81930	-15.57834	11.27051
9.82348	-15.55636	11.27051
9.82794	-15.57834	11.27051
9.83214	-15.57834	11.27051
9.83633	-15.57834	11.27051
9.84052	-15.57834	11.27051
9.84470	-15.57834	11.27051
9.84889	-15.57834	11.27051
9.85307	-15.57834	11.27051
9.85732	-15.55636	11.27051
9.86161	-15.57834	11.27051
9.86581	-15.57834	11.27051
9.86999	-15.57834	11.27051
9.87418	-15.57834	11.27051
9.87837	-15.55636	11.27051
9.88255	-15.57834	11.27051
9.88673	-15.57834	11.27051
9.89104	-15.57834	11.27051
9.89524	-15.57834	11.27051
9.89943	-15.57834	11.27051
9.90361	-15.57834	11.27051
9.90780	-15.57834	11.27051
9.91199	-15.57834	11.27051
9.91627	-15.57834	11.27051
9.92053	-15.57834	11.27051
9.92479	-15.57834	11.27051
9.92899	-15.57834	11.27051
9.93317	-15.57834	11.27051
9.93736	-15.57834	11.27051
9.94154	-15.57834	11.27051
9.94573	-15.57834	11.27051
9.94991	-15.57834	11.27051
9.95422	-15.57834	11.27051
9.95843	-15.57834	11.27051
9.96262	-15.57834	11.27051
9.96680	-15.57834	11.27051
9.97099	-15.57834	11.27051
9.97517	-15.57834	11.27051
9.97935	-15.57834	11.27051
9.98361	-15.57834	11.27051
9.98787	-15.57834	11.27051
9.99207	-15.57834	11.27051
9.99625	-15.57834	11.27051
10.00044	-15.57834	11.27051
10.00462	-15.57834	11.27051
10.00880	-15.57834	11.27051
10.01299	-15.57834	11.27051
10.01739	-15.57834	11.27051
10.02159	-15.57834	11.27051
10.02577	-15.57834	11.27051
10.02996	-15.57834	11.27051
10.03413	-15.57834	11.27051
10.03832	-15.57834	11.27051
10.04252	-15.57834	11.27051
10.04699	-15.57834	11.27051
10.05120	-15.57834	11.27051
10.05539	-15.60031	11.27051
10.05958	-15.57834	11.27051
10.06376	-15.57834	11.27051
10.06795	-15.57834	11.27051
10.07213	-15.57834	11.27051
10.07638	-15.57834	11.27051
10.08066	-15.57834	11.27051
10.08487	-15.57834	11.27051
10.08909	-15.57834	11.27051
10.09329	-15.57834	11.27051
10.09748	-15.57834	11.27051
10.10167	-15.57834	11.27051
10.10586	-15.57834	11.27051
10.11019	-15.57834	11.27051
10.11440	-15.57834	11.27051
10.11869	-15.57834	11.27051
10.12288	-15.57834	11.27051
10.12707	-15.57834	11.27051
10.13126	-15.57834	11.27051
10.13544	-15.57834	11.27051
10.13970	-15.57834	11.27051
10.14397	-15.57834	11.27051
10.14819	-15.57834	11.27051
10.15238	-15.57834	11.27051
10.15658	-15.57834	11.27051
10.16078	-15.57834	11.27051
10.16497	-15.57834	11.27051
10.16915	-15.57834	11.27051
10.17346	-15.57834	11.27051
10.17767	-15.57834	11.27051
10.18185	-15.57834	11.27051
10.18605	-15.57834	11.27051
10.19024	-15.57834	11.27051
10.19442	-15.57834	11.27051
10.19860	-15.57834	11.27051
10.20286	-15.57834	11.27051
10.20714	-15.57834	11.27051
10.21134	-15.57834	11.27051
10.21553	-15.57834	11.27051
10.21982	-15.57834	11.27051
10.22400	-15.57834	11.27051
10.22818	-15.57834	11.27051
10.23237	-15.57834	11.27051
10.23668	-15.57834	11.27051
10.24100	-15.57834	11.27051
10.24523	-15.57834	11.27051
10.24946	-15.57834	11.27051
10.25366	-15.57834	11.27051
10.25784	-15.57834	11.27051
10.26205	-15.57834	11.27051
10.26646	-15.57834	11.27051
10.27070	-15.57834	11.27051
10.27489	-15.57834	11.27051
10.27908	-15.57834	11.27051
10.28327	-15.57834	11.27051
10.28745	-15.57834	11.27051
10.29165	-15.57834	11.27051
10.29591	-15.57834	11.27051
10.30019	-15.57834	11.27051
10.30439	-15.57834	11.27051
10.30858	-15.57834	11.27051
10.31277	-15.57834	11.27051
10.31696	-15.57834	11.27051
10.32125	-15.57834	11.27051
10.32543	-15.57834	11.27051
10.32974	-15.55636	11.27051
10.33394	-15.57834	11.27051
10.33814	-15.57834	11.27051
10.34233	-15.57834	11.27051
10.34652	-15.57834	11.27051
10.35070	-15.57834	11.27051
10.35489	-15.55636	11.27051
10.35914	-15.55636	11.27051
10.36340	-15.57834	11.27051
10.36760	-15.57834	11.27051
10.37179	-15.55636	11.27051
10.37597	-15.55636	11.27051
10.38016	-15.55636	11.27051
10.38434	-15.55636	11.27051
10.38853	-15.55636	11.27051
10.39282	-15.55636	11.27051
10.39703	-15.55636	11.27051
10.40121	-15.55636	11.27051
10.40540	-15.55636	11.27051
10.40958	-15.55636	11.27051
10.41377	-15.55636	11.27051
10.41795	-15.55636	11.27051
10.42232	-15.55636	11.27051
10.42659	-15.55636	11.27051
10.43078	-15.55636	11.27051
10.43497	-15.55636	11.27051
10.43917	-15.55636	11.27051
10.44336	-15.55636	11.27051
10.44755	-15.55636	11.27051
10.45173	-15.55636	11.27051
10.45603	-15.55636	11.27051
10.46024	-15.55636	11.27051
10.46443	-15.55636	11.27051
10.46862	-15.55636	11.27051
10.47281	-15.55636	11.27051
10.47700	-15.55636	11.27051
10.48119	-15.55636	11.27051
10.48564	-15.53439	11.27051
10.48986	-15.55636	11.27051
10.49407	-15.55636	11.27051
10.49826	-15.53439	11.27051
10.50245	-15.53439	11.27051
10.50664	-15.55636	11.27051
10.51083	-15.53439	11.27051
10.51511	-15.53439	11.27051
10.51940	-15.53439	11.27051
10.52372	-15.53439	11.27051
10.52791	-15.53439	11.27051
10.53210	-15.53439	11.27051
10.53629	-15.53439	11.27051
10.54048	-15.53439	11.27051
10.54469	-15.53439	11.27051
10.54900	-15.53439	11.27051
10.55321	-15.53439	11.27051
10.55741	-15.51242	11.27051
10.56160	-15.53439	11.27051
10.56580	-15.51242	11.27051
10.56999	-15.53439	11.27051
10.57415	-15.53439	11.27051
10.57863	-15.53439	11.27051
10.58284	-15.51242	11.27051
10.58703	-15.51242	11.27051
10.59122	-15.51242	11.27051
10.59541	-15.51242	11.27051
10.59960	-15.51242	11.27051
10.60379	-15.51242	11.27051
10.60807	-15.51242	11.27051
10.61236	-15.51242	11.27051
10.61656	-15.51242	11.27051
10.62076	-15.51242	11.27051
10.62506	-15.51242	11.27051
10.62925	-15.51242	11.27051
10.63344	-15.51242	11.27051
10.63763	-15.51242	11.27051
10.64194	-15.49045	11.27051
10.64616	-15.51242	11.27051
10.65035	-15.49045	11.27051
10.65454	-15.51242	11.27051
10.65873	-15.51242	11.27051
10.66292	-15.51242	11.27051
10.66711	-15.51242	11.27051
10.67154	-15.49045	11.27051
10.67576	-15.49045	11.27051
10.67995	-15.49045	11.27051
10.68414	-15.49045	11.27051
10.68833	-15.49045	11.27051
10.69252	-15.49045	11.27051
10.69671	-15.49045	11.27051
10.70097	-15.49045	11.27051
10.70527	-15.49045	11.27051
10.70947	-15.49045	11.27051
10.71366	-15.49045	11.27051
10.71785	-15.49045	11.27051
10.72205	-15.49045	11.27051
10.72635	-15.49045	11.27051
10.73054	-15.49045	11.27051
10.73495	-15.49045	11.27051
10.73925	-15.49045	11.27051
10.74345	-15.49045	11.27051
10.74765	-15.49045	11.27051
10.75184	-15.49045	11.27051
10.75603	-15.49045	11.27051
10.76022	-15.49045	11.27051
10.76470	-15.49045	11.27051
10.76891	-15.49045	11.27051
10.77309	-15.49045	11.27051
10.77726	-15.49045	11.27051
10.78144	-15.46847	11.27051
10.78561	-15.49045	11.27051
10.78979	-15.49045	11.27051
10.79407	-15.46847	11.27051
10.79835	-15.46847	11.27051
10.80253	-15.49045	11.27051
10.80671	-15.46847	11.27051
10.81088	-15.46847	11.27051
10.81505	-15.46847	11.27051
10.81923	-15.46847	11.27051
10.82340	-15.46847	11.27051
10.82780	-15.46847	11.27051
10.83198	-15.46847	11.27051
10.83615	-15.46847	11.27051
10.84032	-15.44650	11.27051
10.84450	-15.44650	11.27051
10.84867	-15.44650	11.27051
10.85285	-15.44650	11.27051
10.85711	-15.44650	11.27051
10.86135	-15.44650	11.27051
10.86554	-15.44650	11.27051
10.86974	-15.44650	11.27051
10.87393	-15.44650	11.27051
10.87813	-15.44650	11.27051
10.88232	-15.44650	11.27051
10.88651	-15.44650	11.27051
10.89082	-15.42453	11.27051
10.89503	-15.42453	11.27051
10.89922	-15.42453	11.27051
10.90341	-15.42453	11.27051
10.90760	-15.42453	11.27051
10.91179	-15.42453	11.27051
10.91598	-15.42453	11.27051
10.92042	-15.40256	11.27051
10.92463	-15.40256	11.27051
10.92894	-15.40256	11.27051
10.93313	-15.40256	11.27051
10.93733	-15.40256	11.27051
10.94151	-15.40256	11.27051
10.94570	-15.38058	11.27051
10.94997	-15.38058	11.27051
10.95421	-15.38058	11.27051
10.95841	-15.38058	11.27051
10.96261	-15.38058	11.27051
10.96681	-15.38058	11.27051
10.97100	-15.38058	11.27051
10.97519	-15.35861	11.27051
10.97938	-15.35861	11.27051
10.98367	-15.35861	11.27051
10.98787	-15.35861	11.27051
10.99206	-15.33664	11.27051
10.99625	-15.33664	11.27051
11.00043	-15.33664	11.27051
11.00461	-15.33664	11.27051
11.00880	-15.31466	11.27051
11.01323	-15.31466	11.27051
11.01744	-15.31466	11.27051
11.02163	-15.31466	11.27051
11.02581	-15.31466	11.27051
11.03012	-15.29269	11.27051
11.03430	-15.29269	11.27051
11.03848	-15.29269	11.27051
11.04276	-15.27072	11.27051
11.04704	-15.27072	11.27051
11.05124	-15.27072	11.27051
11.05543	-15.27072	11.27051
11.05962	-15.24875	11.27051
11.06380	-15.24875	11.27051
11.06799	-15.24875	11.27051
11.07217	-15.22677	11.27051
11.07647	-15.22677	11.27051
11.08067	-15.22677	11.27051
11.08486	-15.22677	11.27051
11.08905	-15.20480	11.27051
11.09324	-15.20480	11.27051
11.09742	-15.20480	11.27051
11.10161	-15.18283	11.27051
11.10586	-15.18283	11.27051
11.11015	-15.18283	11.27051
11.11435	-15.16086	11.27051
11.11853	-15.16086	11.27051
11.12272	-15.16086	11.27051
11.12691	-15.13888	11.27051
11.13120	-15.13888	11.27051
11.13538	-15.13888	11.27051
11.13968	-15.13888	11.27051
11.14388	-15.11691	11.27051
11.14810	-15.11691	11.27051
11.15230	-15.11691	11.27051
11.15650	-15.11691	11.27051
11.16069	-15.09494	11.27051
11.16488	-15.09494	11.27051
11.16934	-15.09494	11.27051
11.17356	-15.07297	11.27051
11.17775	-15.07297	11.27051
11.18193	-15.05099	11.27051
11.18613	-15.05099	11.27051
11.19033	-15.05099	11.27051
11.19451	-15.05099	11.27051
11.19878	-15.02902	11.27051
11.20307	-15.02902	11.27051
11.20728	-15.00705	11.27051
11.21146	-15.00705	11.27051
11.21565	-15.00705	11.27051
11.21983	-15.00705	11.27051
11.22402	-15.00705	11.27051
11.22820	-14.98507	11.27051
11.23262	-14.98507	11.27051
11.23682	-14.98507	11.27051
11.24101	-14.98507	11.27051
11.24519	-14.96310	11.27051
11.24941	-14.96310	11.27051
11.25361	-14.96310	11.27051
11.25780	-14.94113	11.27051
11.26227	-14.94113	11.27051
11.26648	-14.94113	11.27051
11.27068	-14.91916	11.27051
11.27487	-14.91916	11.27051
11.27906	-14.91916	11.27051
11.28324	-14.89718	11.27051
11.28742	-14.89718	11.27051
11.29169	-14.89718	11.27051
11.29598	-14.89718	11.27051
11.30017	-14.87521	11.27051
11.30436	-14.87521	11.27051
11.30854	-14.87521	11.27051
11.31273	-14.85324	11.27051
11.31691	-14.85324	11.27051
11.32110	-14.85324	11.27051
11.32540	-14.83127	11.27051
11.32960	-14.83127	11.27051
11.33389	-14.83127	11.27051
11.33809	-14.83127	11.27051
11.34227	-14.80929	11.27051
11.34646	-14.80929	11.27051
11.35064	-14.80929	11.27051
11.35489	-14.80929	11.27051
11.35917	-14.78732	11.27051
11.36336	-14.78732	11.27051
11.36755	-14.78732	11.27051
11.37174	-14.78732	11.27051
11.37592	-14.78732	11.27051
11.38011	-14.78732	11.27051
11.38430	-14.76535	11.27051
11.38859	-14.76535	11.27051
11.39279	-14.74338	11.27051
11.39698	-14.74338	11.27051
11.40116	-14.74338	11.27051
11.40534	-14.74338	11.27051
11.40953	-14.74338	11.27051
11.41371	-14.72140	11.27051
11.41796	-14.72140	11.27051
11.42222	-14.72140	11.27051
11.42641	-14.72140	11.27051
11.43060	-14.72140	11.27051
11.43489	-14.69943	11.27051
11.43907	-14.69943	11.27051
11.44326	-14.69943	11.27051
11.44744	-14.69943	11.27051
11.45174	-14.69943	11.27051
11.45595	-14.67746	11.27051
11.46013	-14.67746	11.27051
11.46432	-14.65548	11.27051
11.46850	-14.65548	11.27051
11.47269	-14.65548	11.27051
11.47687	-14.65548	11.27051
11.48112	-14.65548	11.27051
11.48539	-14.65548	11.27051
11.48958	-14.63351	11.27051
11.49377	-14.63351	11.27051
11.49796	-14.63351	11.27051
11.50213	-14.63351	11.27051
11.50632	-14.63351	11.27051
11.51050	-14.63351	11.27051
11.51480	-14.61154	11.27051
11.51899	-14.61154	11.27051
11.52318	-14.61154	11.27051
11.52737	-14.61154	11.27051
11.53155	-14.61154	11.27051
11.53584	-14.61154	11.27051
11.54002	-14.58957	11.27051
11.54450	-14.58957	11.27051
11.54872	-14.58957	11.27051
11.55291	-14.58957	11.27051
11.55710	-14.58957	11.27051
11.56128	-14.56759	11.27051
11.56547	-14.58957	11.27051
11.56965	-14.56759	11.27051
11.57391	-14.56759	11.27051
11.57821	-14.56759	11.27051
11.58241	-14.56759	11.27051
11.58659	-14.56759	11.27051
11.59078	-14.54562	11.27051
11.59497	-14.54562	11.27051
11.59915	-14.54562	11.27051
11.60333	-14.54562	11.27051
11.60763	-14.54562	11.27051
11.61184	-14.54562	11.27051
11.61602	-14.52365	11.27051
11.62021	-14.54562	11.27051
11.62439	-14.52365	11.27051
11.62858	-14.52365	11.27051
11.63276	-14.52365	11.27051
11.63713	-14.52365	11.27051
11.64138	-14.52365	11.27051
11.64556	-14.50168	11.27051
11.64975	-14.50168	11.27051
11.65394	-14.50168	11.27051
11.65813	-14.50168	11.27051
11.66231	-14.50168	11.27051
11.66650	-14.50168	11.27051
11.67079	-14.50168	11.27051
11.67500	-14.50168	11.27051
11.67919	-14.50168	11.27051
11.68337	-14.50168	11.27051
11.68756	-14.50168	11.27051
11.69174	-14.50168	11.27051
11.69592	-14.47970	11.27051
11.70018	-14.47970	11.27051
11.70444	-14.47970	11.27051
11.70864	-14.47970	11.27051
11.71283	-14.47970	11.27051
11.71701	-14.47970	11.27051
11.72120	-14.47970	11.27051
11.72538	-14.47970	11.27051
11.72957	-14.47970	11.27051
11.73386	-14.47970	11.27051
11.73819	-14.47970	11.27051
11.74237	-14.47970	11.27051
11.74656	-14.47970	11.27051
11.75074	-14.47970	11.27051
11.75493	-14.47970	11.27051
11.75911	-14.47970	11.27051
11.76354	-14.47970	11.27051
11.76775	-14.47970	11.27051
11.77194	-14.47970	11.27051
11.77612	-14.47970	11.27051
11.78031	-14.47970	11.27051
11.78449	-14.47970	11.27051
11.78868	-14.47970	11.27051
11.79294	-14.47970	11.27051
11.79723	-14.47970	11.27051
11.80143	-14.47970	11.27051
11.80562	-14.47970	11.27051
11.80981	-14.50168	11.27051
11.81400	-14.50168	11.27051
11.81818	-14.50168	11.27051
11.82237	-14.50168	11.27051
11.82667	-14.50168	11.27051
11.83087	-14.50168	11.27051
11.83505	-14.50168	11.27051
11.83934	-14.50168	11.27051
11.84353	-14.50168	11.27051
11.84771	-14.50168	11.27051
11.85190	-14.50168	11.27051
11.85615	-14.50168	11.27051
11.86042	-14.50168	11.27051
11.86462	-14.52365	11.27051
11.86880	-14.52365	11.27051
11.87299	-14.52365	11.27051
11.87718	-14.52365	11.27051
11.88136	-14.52365	11.27051
11.88555	-14.52365	11.27051
11.88985	-14.52365	11.27051
11.89406	-14.52365	11.27051
11.89825	-14.52365	11.27051
11.90243	-14.52365	11.27051
11.90662	-14.54562	11.27051
11.91080	-14.54562	11.27051
11.91499	-14.54562	11.27051
11.91924	-14.54562	11.27051
11.92351	-14.54562	11.27051
11.92770	-14.56759	11.27051
11.93189	-14.56759	11.27051
11.93607	-14.56759	11.27051
11.94037	-14.56759	11.27051
11.94455	-14.58957	11.27051
11.94873	-14.58957	11.27051
11.95302	-14.58957	11.27051
11.95723	-14.58957	11.27051
11.96142	-14.61154	11.27051
11.96560	-14.61154	11.27051
11.96979	-14.61154	11.27051
11.97397	-14.61154	11.27051
11.97814	-14.61154	11.27051
11.98240	-14.61154	11.27051
11.98667	-14.63351	11.27051
11.99088	-14.63351	11.27051
11.99507	-14.63351	11.27051
11.99925	-14.63351	11.27051
12.00344	-14.65548	11.27051
12.00762	-14.65548	11.27051
12.01180	-14.65548	11.27051
12.01610	-14.65548	11.27051
12.02030	-14.67746	11.27051
12.02449	-14.67746	11.27051
12.02868	-14.67746	11.27051
12.03286	-14.67746	11.27051
12.03704	-14.67746	11.27051
12.04133	-14.67746	11.27051
12.04582	-14.69943	11.27051
12.05004	-14.69943	11.27051
12.05424	-14.69943	11.27051
12.05843	-14.72140	11.27051
12.06262	-14.72140	11.27051
12.06680	-14.72140	11.27051
12.07099	-14.72140	11.27051
12.07524	-14.74338	11.27051
12.07951	-14.74338	11.27051
12.08370	-14.74338	11.27051
12.08790	-14.74338	11.27051
12.09209	-14.76535	11.27051
12.09628	-14.76535	11.27051
12.10046	-14.76535	11.27051
12.10465	-14.76535	11.27051
12.10895	-14.78732	11.27051
12.11316	-14.78732	11.27051
12.11734	-14.78732	11.27051
12.12153	-14.80929	11.27051
12.12572	-14.80929	11.27051
12.12990	-14.80929	11.27051
12.13410	-14.80929	11.27051
12.13836	-14.80929	11.27051
12.14274	-14.83127	11.27051
12.14693	-14.83127	11.27051
12.15112	-14.85324	11.27051
12.15530	-14.85324	11.27051
12.15949	-14.85324	11.27051
12.16367	-14.85324	11.27051
12.16786	-14.87521	11.27051
12.17215	-14.87521	11.27051
12.17637	-14.87521	11.27051
12.18055	-14.87521	11.27051
12.18474	-14.89718	11.27051
12.18892	-14.89718	11.27051
12.19311	-14.89718	11.27051
12.19730	-14.91916	11.27051
12.20156	-14.91916	11.27051
12.20583	-14.91916	11.27051
12.21003	-14.91916	11.27051
12.21422	-14.94113	11.27051
12.21840	-14.94113	11.27051
12.22258	-14.96310	11.27051
12.22677	-14.96310	11.27051
12.23096	-14.98507	11.27051
12.23526	-14.98507	11.27051
12.23947	-14.98507	11.27051
12.24376	-14.98507	11.27051
12.24795	-15.00705	11.27051
12.25216	-15.00705	11.27051
12.25636	-15.00705	11.27051
12.26054	-15.02902	11.27051
12.26500	-15.02902	11.27051
12.26921	-15.02902	11.27051
12.27341	-15.05099	11.27051
12.27761	-15.05099	11.27051
12.28180	-15.07297	11.27051
12.28598	-15.07297	11.27051
12.29014	-15.07297	11.27051
12.29442	-15.09494	11.27051
12.29870	-15.09494	11.27051
12.30290	-15.11691	11.27051
12.30709	-15.11691	11.27051
12.31128	-15.11691	11.27051
12.31546	-15.11691	11.27051
12.31965	-15.13888	11.27051
12.32383	-15.13888	11.27051
12.32813	-15.16086	11.27051
12.33233	-15.16086	11.27051
12.33652	-15.18283	11.27051
12.34071	-15.18283	11.27051
12.34500	-15.18283	11.27051
12.34918	-15.20480	11.27051
12.35337	-15.20480	11.27051
12.35762	-15.20480	11.27051
12.36189	-15.22677	11.27051
12.36609	-15.24875	11.27051
12.37028	-15.24875	11.27051
12.37447	-15.24875	11.27051
12.37866	-15.24875	11.27051
12.38284	-15.27072	11.27051
12.38703	-15.27072	11.27051
12.39133	-15.27072	11.27051
12.39553	-15.29269	11.27051
12.39972	-15.29269	11.27051
12.40390	-15.31466	11.27051
12.40809	-15.31466	11.27051
12.41227	-15.33664	11.27051
12.41646	-15.33664	11.27051
12.42073	-15.33664	11.27051
12.42502	-15.35861	11.27051
12.42922	-15.35861	11.27051
12.43341	-15.35861	11.27051
12.43760	-15.38058	11.27051
12.44179	-15.38058	11.27051
12.44609	-15.40256	11.27051
12.45032	-15.40256	11.27051
12.45463	-15.40256	11.27051
12.45884	-15.42453	11.27051
12.46302	-15.42453	11.27051
12.46721	-15.44650	11.27051
12.47140	-15.44650	11.27051
12.47559	-15.44650	11.27051
12.47978	-15.46847	11.27051
12.48423	-15.46847	11.27051
12.48845	-15.46847	11.27051
12.49264	-15.49045	11.27051
12.49683	-15.49045	11.27051
12.50101	-15.51242	11.27051
12.50520	-15.51242	11.27051
12.50938	-15.51242	11.27051
12.51364	-15.53439	11.27051
12.51793	-15.53439	11.27051
12.52214	-15.53439	11.27051
12.52633	-15.53439	11.27051
12.53052	-15.55636	11.27051
12.53470	-15.55636	11.27051
12.53889	-15.57834	11.27051
12.54307	-15.57834	11.27051
12.54751	-15.57834	11.27051
12.55171	-15.57834	11.27051
12.55591	-15.60031	11.27051
12.56009	-15.60031	11.27051
12.56428	-15.62228	11.27051
12.56846	-15.62228	11.27051
12.57265	-15.64425	11.27051
12.57691	-15.64425	11.27051
12.58120	-15.64425	11.27051
12.58540	-15.64425	11.27051
12.58959	-15.66623	11.27051
12.59377	-15.66623	11.27051
12.59796	-15.66623	11.27051
12.60213	-15.66623	11.27051
12.60632	-15.68820	11.27051
12.61062	-15.68820	11.27051
12.61482	-15.71017	11.27051
12.61900	-15.71017	11.27051
12.62319	-15.71017	11.27051
12.62738	-15.73214	11.27051
12.63156	-15.73214	11.27051
12.63574	-15.73214	11.27051
12.63999	-15.73214	11.27051
12.64427	-15.75412	11.27051
12.64857	-15.75412	11.27051
12.65276	-15.75412	11.27051
12.65695	-15.77609	11.27051
12.66113	-15.77609	11.27051
12.66532	-15.77609	11.27051
12.66950	-15.77609	11.27051
12.67380	-15.79806	11.27051
12.67801	-15.79806	11.27051
12.68220	-15.79806	11.27051
12.68639	-15.79806	11.27051
12.69057	-15.79806	11.27051
12.69475	-15.82004	11.27051
12.69894	-15.82004	11.27051
12.70319	-15.82004	11.27051
12.70746	-15.84201	11.27051
12.71165	-15.84201	11.27051
12.71584	-15.84201	11.27051
12.72002	-15.84201	11.27051
12.72421	-15.84201	11.27051
12.72839	-15.86398	11.27051
12.73258	-15.86398	11.27051
12.73687	-15.86398	11.27051
12.74108	-15.86398	11.27051
12.74527	-15.86398	11.27051
12.74956	-15.86398	11.27051
12.75374	-15.86398	11.27051
12.75793	-15.86398	11.27051
12.76212	-15.88595	11.27051
12.76655	-15.88595	11.27051
12.77076	-15.88595	11.27051
12.77494	-15.88595	11.27051
12.77913	-15.88595	11.27051
12.78333	-15.88595	11.27051
12.78751	-15.88595	11.27051
12.79170	-15.88595	11.27051
12.79594	-15.90793	11.27051
12.80024	-15.88595	11.27051
12.80444	-15.90793	11.27051
12.80864	-15.90793	11.27051
12.81282	-15.90793	11.27051
12.81701	-15.90793	11.27051
12.82119	-15.90793	11.27051
12.82538	-15.90793	11.27051
12.82968	-15.90793	11.27051
12.83388	-15.90793	11.27051
12.83808	-15.90793	11.27051
12.84227	-15.90793	11.27051
12.84646	-15.92990	11.27051
12.85075	-15.90793	11.27051
12.85493	-15.92990	11.27051
12.85919	-15.90793	11.27051
12.86346	-15.90793	11.27051
12.86765	-15.92990	11.27051
12.87184	-15.90793	11.27051
12.87603	-15.90793	11.27051
12.88021	-15.90793	11.27051
12.88440	-15.92990	11.27051
12.88859	-15.90793	11.27051
12.89288	-15.90793	11.27051
12.89708	-15.90793	11.27051
12.90127	-15.90793	11.27051
12.90546	-15.90793	11.27051
12.90964	-15.90793	11.27051
12.91383	-15.90793	11.27051
12.91802	-15.90793	11.27051
12.92228	-15.90793	11.27051
12.92655	-15.90793	11.27051
12.93074	-15.90793	11.27051
12.93493	-15.90793	11.27051
12.93911	-15.90793	11.27051
12.94330	-15.90793	11.27051
12.94748	-15.90793	11.27051
12.95177	-15.88595	11.27051
12.95607	-15.88595	11.27051
12.96027	-15.88595	11.27051
12.96446	-15.88595	11.27051
12.96864	-15.88595	11.27051
12.97283	-15.88595	11.27051
12.97701	-15.88595	11.27051
12.98120	-15.86398	11.27051
12.98565	-15.86398	11.27051
12.98986	-15.84201	11.27051
12.99406	-15.86398	11.27051
12.99825	-15.86398	11.27051
13.00243	-15.84201	11.27051
13.00662	-15.86398	11.27051
13.01080	-15.84201	11.27051
13.01506	-15.84201	11.27051
13.01935	-15.84201	11.27051
13.02355	-15.84201	11.27051
13.02774	-15.82004	11.27051
13.03192	-15.82004	11.27051
13.03611	-15.82004	11.27051
13.04029	-15.82004	11.27051
13.04449	-15.79806	11.27051
13.04881	-15.79806	11.27051
13.05312	-15.79806	11.27051
13.05821	-15.79806	11.27051
13.06243	-15.77609	11.27051
13.06665	-15.77609	11.27051
13.07087	-15.75412	11.27051
13.07508	-15.75412	11.27051
13.07987	-15.75412	11.27051
13.08428	-15.75412	11.27051
13.08850	-15.75412	11.27051
13.09270	-15.73214	11.27051
13.09690	-15.73214	11.27051
13.10110	-15.73214	11.27051
13.10529	-15.71017	11.27051
13.10957	-15.71017	11.27051
13.11390	-15.71017	11.27051
13.11812	-15.71017	11.27051
13.12234	-15.68820	11.27051
13.12653	-15.68820	11.27051
13.13072	-15.66623	11.27051
13.13491	-15.66623	11.27051
13.13916	-15.66623	11.27051
13.14350	-15.66623	11.27051
13.14771	-15.64425	11.27051
13.15191	-15.64425	11.27051
13.15624	-15.62228	11.27051
13.16042	-15.62228	11.27051
13.16461	-15.62228	11.27051
13.16881	-15.62228	11.27051
13.17316	-15.60031	11.27051
13.17737	-15.60031	11.27051
13.18156	-15.60031	11.27051
13.18575	-15.57834	11.27051
13.18995	-15.55636	11.27051
13.19414	-15.55636	11.27051
13.19833	-15.55636	11.27051
13.20291	-15.55636	11.27051
13.20713	-15.53439	11.27051
13.21132	-15.53439	11.27051
13.21551	-15.51242	11.27051
13.21969	-15.53439	11.27051
13.22388	-15.53439	11.27051
13.22806	-15.51242	11.27051
13.23233	-15.51242	11.27051
13.23660	-15.49045	11.27051
13.24080	-15.49045	11.27051
13.24499	-15.46847	11.27051
13.24917	-15.46847	11.27051
13.25338	-15.46847	11.27051
13.25768	-15.46847	11.27051
13.26187	-15.44650	11.27051
13.26620	-15.44650	11.27051
13.27040	-15.44650	11.27051
13.27459	-15.44650	11.27051
13.27878	-15.42453	11.27051
13.28296	-15.42453	11.27051
13.28715	-15.40256	11.27051
13.29134	-15.40256	11.27051
13.29559	-15.40256	11.27051
13.29987	-15.40256	11.27051
13.30406	-15.38058	11.27051
13.30825	-15.38058	11.27051
13.31243	-15.35861	11.27051
13.31662	-15.35861	11.27051
13.32080	-15.35861	11.27051
13.32498	-15.35861	11.27051
13.32928	-15.33664	11.27051
13.33349	-15.33664	11.27051
13.33768	-15.33664	11.27051
13.34186	-15.31466	11.27051
13.34606	-15.31466	11.27051
13.35024	-15.31466	11.27051
13.35442	-15.31466	11.27051
13.35878	-15.29269	11.27051
13.36304	-15.27072	11.27051
13.36723	-15.27072	11.27051
13.37142	-15.27072	11.27051
13.37560	-15.27072	11.27051
13.37978	-15.27072	11.27051
13.38397	-15.24875	11.27051
13.38815	-15.24875	11.27051
13.39245	-15.24875	11.27051
13.39665	-15.22677	11.27051
13.40083	-15.22677	11.27051
13.40502	-15.22677	11.27051
13.40920	-15.22677	11.27051
13.41339	-15.22677	11.27051
13.41758	-15.20480	11.27051
13.42183	-15.20480	11.27051
13.42611	-15.20480	11.27051
13.43030	-15.18283	11.27051
13.43449	-15.18283	11.27051
13.43867	-15.18283	11.27051
13.44286	-15.16086	11.27051
13.44704	-15.18283	11.27051
13.45123	-15.16086	11.27051
13.45552	-15.16086	11.27051
13.45983	-15.16086	11.27051
13.46401	-15.16086	11.27051
13.46820	-15.13888	11.27051
13.47238	-15.13888	11.27051
13.47656	-15.13888	11.27051
13.48074	-15.13888	11.27051
13.48520	-15.13888	11.27051
13.48941	-15.13888	11.27051
13.49359	-15.11691	11.27051
13.49778	-15.11691	11.27051
13.50196	-15.11691	11.27051
13.50614	-15.11691	11.27051
13.51032	-15.11691	11.27051
13.51456	-15.11691	11.27051
13.51884	-15.09494	11.27051
13.52304	-15.09494	11.27051
13.52723	-15.09494	11.27051
13.53141	-15.09494	11.27051
13.53559	-15.09494	11.27051
13.53978	-15.09494	11.27051
13.54402	-15.09494	11.27051
13.54833	-15.09494	11.27051
13.55255	-15.07297	11.27051
13.55674	-15.09494	11.27051
13.56103	-15.09494	11.27051
13.56521	-15.07297	11.27051
13.56940	-15.09494	11.27051
13.57358	-15.07297	11.27051
13.57784	-15.07297	11.27051
13.58212	-15.07297	11.27051
13.58631	-15.07297	11.27051
13.59050	-15.07297	11.27051
13.59468	-15.07297	11.27051
13.59886	-15.07297	11.27051
13.60305	-15.07297	11.27051
13.60723	-15.07297	11.27051
13.61152	-15.07297	11.27051
13.61573	-15.07297	11.27051
13.61991	-15.07297	11.27051
13.62410	-15.07297	11.27051
13.62828	-15.07297	11.27051
13.63246	-15.07297	11.27051
13.63664	-15.07297	11.27051
13.64089	-15.07297	11.27051
13.64516	-15.07297	11.27051
13.64936	-15.07297	11.27051
13.65355	-15.09494	11.27051
13.65773	-15.09494	11.27051
13.66203	-15.09494	11.27051
13.66621	-15.09494	11.27051
13.67040	-15.09494	11.27051
13.67470	-15.09494	11.27051
13.67890	-15.09494	11.27051
13.68308	-15.11691	11.27051
13.68726	-15.11691	11.27051
13.69145	-15.11691	11.27051
13.69563	-15.11691	11.27051
13.69982	-15.11691	11.27051
13.70407	-15.11691	11.27051
13.70835	-15.13888	11.27051
13.71255	-15.13888	11.27051
13.71673	-15.13888	11.27051
13.72092	-15.13888	11.27051
13.72510	-15.13888	11.27051
13.72929	-15.16086	11.27051
13.73347	-15.16086	11.27051
13.73777	-15.16086	11.27051
13.74197	-15.18283	11.27051
13.74614	-15.18283	11.27051
13.75032	-15.18283	11.27051
13.75451	-15.18283	11.27051
13.75869	-15.20480	11.27051
13.76298	-15.20480	11.27051
13.76743	-15.20480	11.27051
13.77164	-15.20480	11.27051
13.77582	-15.20480	11.27051
13.78001	-15.22677	11.27051
13.78419	-15.24875	11.27051
13.78838	-15.24875	11.27051
13.79257	-15.24875	11.27051
13.79681	-15.24875	11.27051
13.80109	-15.27072	11.27051
13.80530	-15.27072	11.27051
13.80948	-15.27072	11.27051
13.81367	-15.29269	11.27051
13.81785	-15.29269	11.27051
13.82204	-15.29269	11.27051
13.82623	-15.31466	11.27051
13.83053	-15.31466	11.27051
13.83473	-15.33664	11.27051
13.83892	-15.33664	11.27051
13.84310	-15.35861	11.27051
13.84728	-15.35861	11.27051
13.85147	-15.35861	11.27051
13.85565	-15.38058	11.27051
13.85991	-15.38058	11.27051
13.86428	-15.40256	11.27051
13.86847	-15.40256	11.27051
13.87265	-15.42453	11.27051
13.87684	-15.42453	11.27051
13.88102	-15.44650	11.27051
13.88520	-15.44650	11.27051
13.88939	-15.46847	11.27051
13.89369	-15.46847	11.27051
13.89790	-15.49045	11.27051
13.90209	-15.49045	11.27051
13.90628	-15.49045	11.27051
13.91047	-15.51242	11.27051
13.91465	-15.53439	11.27051
13.91883	-15.53439	11.27051
13.92308	-15.53439	11.27051
13.92734	-15.53439	11.27051
13.93153	-15.55636	11.27051
13.93572	-15.57834	11.27051
13.93990	-15.60031	11.27051
13.94409	-15.60031	11.27051
13.94827	-15.62228	11.27051
13.95246	-15.62228	11.27051
13.95675	-15.62228	11.27051
13.96095	-15.64425	11.27051
13.96524	-15.66623	11.27051
13.96942	-15.68820	11.27051
13.97361	-15.68820	11.27051
13.97779	-15.68820	11.27051
13.98198	-15.68820	11.27051
13.98621	-15.71017	11.27051
13.99048	-15.73214	11.27051
13.99468	-15.73214	11.27051
13.99886	-15.75412	11.27051
14.00304	-15.77609	11.27051
14.00723	-15.77609	11.27051
14.01141	-15.79806	11.27051
14.01560	-15.79806	11.27051
14.01989	-15.82004	11.27051
14.02410	-15.82004	11.27051
14.02828	-15.84201	11.27051
14.03247	-15.84201	11.27051
14.03665	-15.86398	11.27051
14.04084	-15.88595	11.27051
14.04504	-15.88595	11.27051
14.04930	-15.90793	11.27051
14.05358	-15.90793	11.27051
14.05778	-15.90793	11.27051
14.06197	-15.92990	11.27051
14.06624	-15.92990	11.27051
14.07042	-15.95187	11.27051
14.07461	-15.97384	11.27051
14.07879	-15.97384	11.27051
14.08309	-15.97384	11.27051
14.08733	-15.99582	11.27051
14.09153	-16.01779	11.27051
14.09572	-16.01779	11.27051
14.09991	-16.03976	11.27051
14.10409	-16.03976	11.27051
14.10828	-16.06173	11.27051
14.11269	-16.06173	11.27051
14.11690	-16.08371	11.27051
14.12109	-16.08371	11.27051
14.12527	-16.10568	11.27051
14.12945	-16.12765	11.27051
14.13365	-16.12765	11.27051
14.13783	-16.12765	11.27051
14.14211	-16.14963	11.27051
14.14642	-16.14963	11.27051
14.15062	-16.17160	11.27051
14.15481	-16.17160	11.27051
14.15900	-16.19357	11.27051
14.16319	-16.19357	11.27051
14.16748	-16.21554	11.27051
14.17167	-16.21554	11.27051
14.17597	-16.21554	11.27051
14.18017	-16.23752	11.27051
14.18435	-16.23752	11.27051
14.18853	-16.25949	11.27051
14.19273	-16.25949	11.27051
14.19691	-16.28146	11.27051
14.20109	-16.28146	11.27051
14.20535	-16.28146	11.27051
14.20962	-16.30343	11.27051
14.21381	-16.30343	11.27051
14.21801	-16.30343	11.27051
14.22220	-16.32541	11.27051
14.22638	-16.32541	11.27051
14.23057	-16.34738	11.27051
14.23475	-16.34738	11.27051
14.23906	-16.36935	11.27051
14.24326	-16.36935	11.27051
14.24745	-16.36935	11.27051
14.25166	-16.36935	11.27051
14.25586	-16.39132	11.27051
14.26005	-16.39132	11.27051
14.26423	-16.41330	11.27051
14.26880	-16.43527	11.27051
14.27301	-16.43527	11.27051
14.27720	-16.43527	11.27051
14.28138	-16.43527	11.27051
14.28557	-16.43527	11.27051
14.28975	-16.45724	11.27051
14.29394	-16.45724	11.27051
14.29820	-16.45724	11.27051
14.30247	-16.47922	11.27051
14.30667	-16.50119	11.27051
14.31085	-16.50119	11.27051
14.31504	-16.50119	11.27051
14.31922	-16.50119	11.27051
14.32341	-16.50119	11.27051
14.32759	-16.52316	11.27051
14.33189	-16.54513	11.27051
14.33609	-16.52316	11.27051
14.34027	-16.54513	11.27051
14.34446	-16.54513	11.27051
14.34864	-16.56711	11.27051
14.35283	-16.56711	11.27051
14.35701	-16.56711	11.27051
14.36126	-16.56711	11.27051
14.36552	-16.58908	11.27051
14.36982	-16.58908	11.27051
14.37402	-16.58908	11.27051
14.37820	-16.61105	11.27051
14.38238	-16.61105	11.27051
14.38657	-16.61105	11.27051
14.39075	-16.63302	11.27051
14.39505	-16.63302	11.27051
14.39925	-16.63302	11.27051
14.40343	-16.63302	11.27051
14.40761	-16.63302	11.27051
14.41180	-16.65500	11.27051
14.41598	-16.65500	11.27051
14.42017	-16.67697	11.27051
14.42442	-16.67697	11.27051
14.42868	-16.67697	11.27051
14.43287	-16.67697	11.27051
14.43706	-16.69894	11.27051
14.44124	-16.69894	11.27051
14.44543	-16.69894	11.27051
14.44961	-16.69894	11.27051
14.45379	-16.69894	11.27051
14.45811	-16.72091	11.27051
14.46231	-16.72091	11.27051
14.46650	-16.72091	11.27051
14.47079	-16.72091	11.27051
14.47497	-16.72091	11.27051
14.47915	-16.72091	11.27051
14.48334	-16.74289	11.27051
14.48777	-16.74289	11.27051
14.49197	-16.74289	11.27051
14.49615	-16.76486	11.27051
14.50034	-16.76486	11.27051
14.50452	-16.76486	11.27051
14.50871	-16.76486	11.27051
14.51289	-16.76486	11.27051
14.51713	-16.76486	11.27051
14.52142	-16.78683	11.27051
14.52561	-16.78683	11.27051
14.52980	-16.78683	11.27051
14.53399	-16.78683	11.27051
14.53813	-16.78683	11.27051
14.54232	-16.78683	11.27051
14.54652	-16.78683	11.27051
14.55094	-16.80881	11.27051
14.55517	-16.80881	11.27051
14.55936	-16.80881	11.27051
14.56354	-16.80881	11.27051
14.56772	-16.80881	11.27051
14.57201	-16.80881	11.27051
14.57620	-16.80881	11.27051
14.58045	-16.83078	11.27051
14.58474	-16.83078	11.27051
14.58895	-16.80881	11.27051
14.59314	-16.83078	11.27051
14.59733	-16.80881	11.27051
14.60151	-16.83078	11.27051
14.60570	-16.80881	11.27051
14.60988	-16.80881	11.27051
14.61420	-16.83078	11.27051
14.61840	-16.83078	11.27051
14.62258	-16.83078	11.27051
14.62676	-16.83078	11.27051
14.63095	-16.83078	11.27051
14.63513	-16.83078	11.27051
14.63931	-16.83078	11.27051
14.64356	-16.83078	11.27051
14.64783	-16.83078	11.27051
14.65202	-16.85275	11.27051
14.65620	-16.83078	11.27051
14.66039	-16.83078	11.27051
14.66457	-16.83078	11.27051
14.66875	-16.83078	11.27051
14.67304	-16.83078	11.27051
14.67734	-16.83078	11.27051
14.68154	-16.83078	11.27051
14.68572	-16.83078	11.27051
14.68990	-16.83078	11.27051
14.69410	-16.83078	11.27051
14.69828	-16.83078	11.27051
14.70246	-16.83078	11.27051
14.70687	-16.83078	11.27051
14.71109	-16.83078	11.27051
14.71527	-16.83078	11.27051
14.71946	-16.83078	11.27051
14.72364	-16.83078	11.27051
14.72782	-16.80881	11.27051
14.73200	-16.83078	11.27051
14.73626	-16.83078	11.27051
14.74055	-16.83078	11.27051
14.74474	-16.83078	11.27051
14.74893	-16.83078	11.27051
14.75311	-16.80881	11.27051
14.75729	-16.80881	11.27051
14.76148	-16.80881	11.27051
14.76566	-16.80881	11.27051
14.76996	-16.80881	11.27051
14.77426	-16.80881	11.27051
14.77845	-16.78683	11.27051
14.78263	-16.80881	11.27051
14.78681	-16.78683	11.27051
14.79100	-16.78683	11.27051
14.79518	-16.80881	11.27051
14.79944	-16.78683	11.27051
14.80371	-16.78683	11.27051
14.80790	-16.78683	11.27051
14.81209	-16.76486	11.27051
14.81627	-16.76486	11.27051
14.82045	-16.76486	11.27051
14.82464	-16.74289	11.27051
14.82882	-16.76486	11.27051
14.83312	-16.74289	11.27051
14.83732	-16.74289	11.27051
14.84151	-16.74289	11.27051
14.84569	-16.74289	11.27051
14.84987	-16.72091	11.27051
14.85406	-16.72091	11.27051
14.85824	-16.72091	11.27051
14.86249	-16.72091	11.27051
14.86676	-16.69894	11.27051
14.87096	-16.69894	11.27051
14.87525	-16.69894	11.27051
14.87943	-16.69894	11.27051
14.88362	-16.67697	11.27051
14.88780	-16.67697	11.27051
14.89198	-16.65500	11.27051
14.89628	-16.65500	11.27051
14.90048	-16.67697	11.27051
14.90467	-16.65500	11.27051
14.90885	-16.65500	11.27051
14.91303	-16.65500	11.27051
14.91722	-16.63302	11.27051
14.92140	-16.63302	11.27051
14.92565	-16.63302	11.27051
14.92992	-16.61105	11.27051
14.93412	-16.61105	11.27051
14.93831	-16.61105	11.27051
14.94249	-16.58908	11.27051
14.94668	-16.58908	11.27051
14.95086	-16.58908	11.27051
14.95504	-16.58908	11.27051
14.95934	-16.58908	11.27051
14.96354	-16.56711	11.27051
14.96772	-16.56711	11.27051
14.97190	-16.56711	11.27051
14.97619	-16.56711	11.27051
14.98037	-16.54513	11.27051
14.98455	-16.54513	11.27051
14.98897	-16.52316	11.27051
14.99318	-16.52316	11.27051
14.99737	-16.52316	11.27051
15.00243	-16.50119	-0.40193
15.00662	-16.50119	-0.40193
15.01081	-16.50119	-0.40193
15.01499	-16.50119	-0.40193
15.01925	-16.47922	-0.40193
15.02353	-16.47922	-0.40193
15.02772	-16.47922	-0.40193
15.03191	-16.47922	-0.40193
15.03609	-16.47922	-0.40193
15.04027	-16.45724	-0.40193
15.04446	-16.45724	-0.40193
15.04866	-16.43527	-0.40193
15.05297	-16.43527	-0.40193
15.05718	-16.43527	-0.40193
15.06137	-16.41330	-0.40193
15.06555	-16.41330	-0.40193
15.06975	-16.39132	-0.40193
15.07393	-16.36935	-0.40193
15.07813	-16.36935	-0.40193
15.08254	-16.36935	-0.40193
15.08676	-16.36935	-0.40193
15.09097	-16.34738	-0.40193
15.09516	-16.34738	-0.40193
15.09935	-16.32541	-0.40193
15.10364	-16.30343	-0.40193
15.10782	-16.28146	-0.40193
15.11207	-16.28146	-0.40193
15.11634	-16.25949	-0.40193
15.12054	-16.23752	-0.40193
15.12472	-16.23752	-0.40193
15.12891	-16.21554	-0.40193
15.13309	-16.17160	-0.40193
15.13728	-16.14963	-0.40193
15.14146	-16.14963	-0.40193
15.14577	-16.12765	-0.40193
15.14999	-16.10568	-0.40193
15.15415	-16.06173	-0.40193
15.15833	-16.03976	-0.40193
15.16252	-16.03976	-0.40193
15.16671	-16.01779	-0.40193
15.17089	-15.97384	-0.40193
15.17515	-15.95187	-0.40193
15.17942	-15.90793	-0.40193
15.18362	-15.86398	-0.40193
15.18781	-15.84201	-0.40193
15.19200	-15.84201	-0.40193
15.19618	-15.79806	-0.40193
15.20037	-15.75412	-0.40193
15.20466	-15.71017	-0.40193
15.20896	-15.66623	-0.40193
15.21317	-15.62228	-0.40193
15.21736	-15.57834	-0.40193
15.22155	-15.57834	-0.40193
15.22575	-15.53439	-0.40193
15.22993	-15.49045	-0.40193
15.23412	-15.42453	-0.40193
15.23856	-15.38058	-0.40193
15.24277	-15.31466	-0.40193
15.24695	-15.31466	-0.40193
15.25114	-15.24875	-0.40193
15.25535	-15.20480	-0.40193
15.25954	-15.16086	-0.40193
15.26373	-15.09494	-0.40193
15.26799	-15.02902	-0.40193
15.27227	-14.96310	-0.40193
15.27647	-14.96310	-0.40193
15.28066	-14.89718	-0.40193
15.28484	-14.83127	-0.40193
15.28903	-14.76535	-0.40193
15.29321	-14.67746	-0.40193
15.29739	-14.67746	-0.40193
15.30169	-14.61154	-0.40193
15.30602	-14.54562	-0.40193
15.31021	-14.45773	-0.40193
15.31439	-14.36984	-0.40193
15.31858	-14.30392	-0.40193
15.32276	-14.30392	-0.40193
15.32694	-14.21603	-0.40193
15.33119	-14.12814	-0.40193
15.33546	-14.06222	-0.40193
15.33965	-13.97433	-0.40193
15.34384	-13.90841	-0.40193
15.34803	-13.90841	-0.40193
15.35221	-13.82052	-0.40193
15.35639	-13.73263	-0.40193
15.36058	-13.62277	-0.40193
15.36487	-13.53488	-0.40193
15.36907	-13.44699	-0.40193
15.37325	-13.44699	-0.40193
15.37744	-13.35910	-0.40193
15.38162	-13.24923	-0.40193
15.38581	-13.18332	-0.40193
15.38999	-13.07345	-0.40193
15.39421	-12.98556	-0.40193
15.39850	-12.87570	-0.40193
15.40270	-12.87570	-0.40193
15.40699	-12.76584	-0.40193
15.41117	-12.65597	-0.40193
15.41536	-12.56808	-0.40193
15.41954	-12.45822	-0.40193
15.42372	-12.45822	-0.40193
15.42808	-12.26047	-0.40193
15.43229	-12.26047	-0.40193
15.43648	-12.15060	-0.40193
15.44069	-12.04074	-0.40193
15.44488	-11.90890	-0.40193
15.44907	-11.79904	-0.40193
15.45326	-11.79904	-0.40193
15.45753	-11.68918	-0.40193
15.46181	-11.55734	-0.40193
15.46602	-11.44748	-0.40193
15.47021	-11.35959	-0.40193
15.47440	-11.22775	-0.40193
15.47859	-11.09591	-0.40193
15.48278	-11.09591	-0.40193
15.48697	-10.98605	-0.40193
15.49127	-10.85422	-0.40193
15.49549	-10.72238	-0.40193
15.49969	-10.59054	-0.40193
15.50388	-10.45871	-0.40193
15.50818	-10.45871	-0.40193
15.51236	-10.32687	-0.40193
15.51655	-10.23898	-0.40193
15.52098	-10.10714	-0.40193
15.52519	-9.97531	-0.40193
15.52938	-9.82150	-0.40193
15.53356	-9.68966	-0.40193
15.53774	-9.68966	-0.40193
15.54193	-9.55783	-0.40193
15.54617	-9.42599	-0.40193
15.55043	-9.27218	-0.40193
15.55472	-9.14035	-0.40193
15.55892	-9.14035	-0.40193
15.56311	-8.98654	-0.40193
15.56730	-8.85470	-0.40193
15.57148	-8.72287	-0.40193
15.57566	-8.56906	-0.40193
15.57985	-8.43722	-0.40193
15.58415	-8.43722	-0.40193
15.58835	-8.28341	-0.40193
15.59254	-8.12961	-0.40193
15.59672	-7.99777	-0.40193
15.60090	-7.88791	-0.40193
15.60509	-7.73410	-0.40193
15.60938	-7.58029	-0.40193
15.61363	-7.58029	-0.40193
15.61790	-7.42648	-0.40193
15.62211	-7.27267	-0.40193
15.62629	-7.14084	-0.40193
15.63048	-6.98703	-0.40193
15.63466	-6.98703	-0.40193
15.63884	-6.83322	-0.40193
15.64303	-6.72336	-0.40193
15.64732	-6.56955	-0.40193
15.65152	-6.41574	-0.40193
15.65571	-6.26193	-0.40193
15.65989	-6.10812	-0.40193
15.66408	-6.10812	-0.40193
15.66826	-5.95431	-0.40193
15.67244	-5.80050	-0.40193
15.67669	-5.64670	-0.40193
15.68098	-5.47091	-0.40193
15.68517	-5.36105	-0.40193
15.68937	-5.20724	-0.40193
15.69355	-5.20724	-0.40193
15.69774	-5.05343	-0.40193
15.70192	-4.89963	-0.40193
15.70612	-4.74582	-0.40193
15.71053	-4.57004	-0.40193
15.71472	-4.41623	-0.40193
15.71890	-4.41623	-0.40193
15.72309	-4.26242	-0.40193
15.72727	-4.15256	-0.40193
15.73146	-3.97677	-0.40193
15.73564	-3.82297	-0.40193
15.74005	-3.66916	-0.40193
15.74428	-3.66916	-0.40193
15.74848	-3.49338	-0.40193
15.75267	-3.33957	-0.40193
15.75685	-3.18576	-0.40193
15.76104	-3.03195	-0.40193
15.76522	-2.87814	-0.40193
15.76947	-2.72433	-0.40193
15.77375	-2.72433	-0.40193
15.77795	-2.59250	-0.40193
15.78214	-2.43869	-0.40193
15.78632	-2.26291	-0.40193
15.79051	-2.10910	-0.40193
15.79469	-1.95529	-0.40193
15.79888	-1.95529	-0.40193
15.80317	-1.77951	-0.40193
15.80737	-1.62570	-0.40193
15.81166	-1.47189	-0.40193
15.81585	-1.31808	-0.40193
15.82003	-1.31808	-0.40193
15.82421	-1.14230	-0.40193
15.82840	-0.98849	-0.40193
15.83265	-0.83468	-0.40193
15.83693	-0.68088	-0.40193
15.84112	-0.52707	-0.40193
15.84531	-0.52707	-0.40193
15.84949	-0.37326	-0.40193
15.85368	-0.21945	-0.40193
15.85786	-0.08761	-0.40193
15.86206	0.08817	-0.40193
15.86636	0.24198	-0.40193
15.87056	0.39578	-0.40193
15.87475	0.39578	-0.40193
15.87893	0.54959	-0.40193
15.88311	0.70340	-0.40193
15.88730	0.85721	-0.40193
15.89148	1.01102	-0.40193
15.89573	1.14286	-0.40193
15.89999	1.14286	-0.40193
15.90419	1.29666	-0.40193
15.90837	1.45047	-0.40193
15.91266	1.60428	-0.40193
15.91684	1.75809	-0.40193
15.92103	1.91190	-0.40193
15.92521	1.91190	-0.40193
15.92951	2.06571	-0.40193
15.93371	2.19754	-0.40193
15.93789	2.35135	-0.40193
15.94208	2.48319	-0.40193
15.94627	2.63700	-0.40193
15.95045	2.76883	-0.40193
15.95463	2.76883	-0.40193
15.95888	2.92264	-0.40193
15.96315	3.07645	-0.40193
15.96734	3.20828	-0.40193
15.97153	3.36209	-0.40193
15.97571	3.36209	-0.40193
15.97989	3.51590	-0.40193
15.98408	3.62577	-0.40193
15.98826	3.75760	-0.40193
15.99255	3.91141	-0.40193
15.99676	4.04325	-0.40193
16.00094	4.19705	-0.40193
16.00513	4.19705	-0.40193
16.00933	4.32889	-0.40193
16.01361	4.48270	-0.40193
16.01780	4.61453	-0.40193
16.02226	4.74637	-0.40193
16.02647	4.85623	-0.40193
16.03066	4.98807	-0.40193
16.03484	4.98807	-0.40193
16.03903	5.11991	-0.40193
16.04322	5.25174	-0.40193
16.04742	5.38358	-0.40193
16.05168	5.51541	-0.40193
16.05598	5.64725	-0.40193
16.06018	5.64725	-0.40193
16.06437	5.77909	-0.40193
16.06856	5.91092	-0.40193
16.07274	6.04276	-0.40193
16.07693	6.17459	-0.40193
16.08112	6.17459	-0.40193
16.08542	6.30643	-0.40193
16.08962	6.41629	-0.40193
16.09381	6.54813	-0.40193
16.09799	6.65799	-0.40193
16.10214	6.76786	-0.40193
16.10632	6.76786	-0.40193
16.11051	6.89969	-0.40193
16.11487	6.98758	-0.40193
16.11915	7.09744	-0.40193
16.12334	7.22928	-0.40193
16.12753	7.33914	-0.40193
16.13172	7.44901	-0.40193
16.13590	7.44901	-0.40193
16.14009	7.55887	-0.40193
16.14427	7.69071	-0.40193
16.14857	7.80057	-0.40193
16.15277	7.86649	-0.40193
16.15696	7.97635	-0.40193
16.16114	7.97635	-0.40193
16.16533	8.08621	-0.40193
16.16951	8.19608	-0.40193
16.17370	8.30594	-0.40193
16.17796	8.39383	-0.40193
16.18224	8.50369	-0.40193
16.18643	8.50369	-0.40193
16.19062	8.59159	-0.40193
16.19482	8.70145	-0.40193
16.19901	8.76737	-0.40193
16.20319	8.85526	-0.40193
16.20738	8.96512	-0.40193
16.21169	9.05301	-0.40193
16.21600	9.05301	-0.40193
16.22019	9.14090	-0.40193
16.22437	9.25077	-0.40193
16.22856	9.33866	-0.40193
16.23274	9.42655	-0.40193
16.23693	9.49246	-0.40193
16.24135	9.58036	-0.40193
16.24557	9.58036	-0.40193
16.24976	9.66825	-0.40193
16.25397	9.73416	-0.40193
16.25815	9.82205	-0.40193
16.26234	9.90994	-0.40193
16.26653	9.90994	-0.40193
16.27081	9.97586	-0.40193
16.27510	10.04178	-0.40193
16.27930	10.12967	-0.40193
16.28349	10.17362	-0.40193
16.28767	10.26151	-0.40193
16.29185	10.32743	-0.40193
16.29604	10.32743	-0.40193
16.30022	10.39334	-0.40193
16.30452	10.45926	-0.40193
16.30871	10.54715	-0.40193
16.31290	10.59110	-0.40193
16.31719	10.65702	-0.40193
16.32138	10.65702	-0.40193
16.32556	10.72293	-0.40193
16.32975	10.78885	-0.40193
16.33401	10.85477	-0.40193
16.33828	10.92069	-0.40193
16.34248	10.96463	-0.40193
16.34666	10.96463	-0.40193
16.35085	11.00858	-0.40193
16.35503	11.07450	-0.40193
16.35922	11.11844	-0.40193
16.36340	11.16239	-0.40193
16.36774	11.20633	-0.40193
16.37195	11.20633	-0.40193
16.37614	11.25028	-0.40193
16.38033	11.31619	-0.40193
16.38451	11.36014	-0.40193
16.38870	11.40409	-0.40193
16.39288	11.44803	-0.40193
16.39731	11.44803	-0.40193
16.40152	11.49198	-0.40193
16.40571	11.51395	-0.40193
16.40990	11.55789	-0.40193
16.41410	11.57987	-0.40193
16.41839	11.62381	-0.40193
16.42257	11.66776	-0.40193
16.42683	11.66776	-0.40193
16.43110	11.68973	-0.40193
16.43529	11.71170	-0.40193
16.43948	11.75565	-0.40193
16.44366	11.77762	-0.40193
16.44785	11.77762	-0.40193
16.45203	11.82157	-0.40193
16.45622	11.82157	-0.40193
16.46051	11.84354	-0.40193
16.46471	11.86551	-0.40193
16.46890	11.88748	-0.40193
16.47308	11.90946	-0.40193
16.47727	11.90946	-0.40193
16.48145	11.93143	-0.40193
16.48564	11.95340	-0.40193
16.48989	11.95340	-0.40193
16.49418	11.97537	-0.40193
16.49837	11.97537	-0.40193
16.50256	11.99735	-0.40193
16.50674	11.99735	-0.40193
16.51093	11.99735	-0.40193
16.51511	12.01932	-0.40193
16.51940	12.01932	-0.40193
16.52370	12.01932	-0.40193
16.52790	12.04129	-0.40193
16.53209	12.04129	-0.40193
16.53627	12.04129	-0.40193
16.54046	12.04129	-0.40193
16.54465	12.04129	-0.40193
16.54885	12.01932	-0.40193
16.55328	12.01932	-0.40193
16.55750	12.01932	-0.40193
16.56169	12.01932	-0.40193
16.56588	12.01932	-0.40193
16.57007	11.99735	-0.40193
16.57426	11.99735	-0.40193
16.57845	11.97537	-0.40193
16.58270	11.97537	-0.40193
16.58698	11.97537	-0.40193
16.59118	11.95340	-0.40193
16.59537	11.93143	-0.40193
16.59955	11.93143	-0.40193
16.60373	11.90946	-0.40193
16.60792	11.90946	-0.40193
16.61210	11.88748	-0.40193
16.61652	11.86551	-0.40193
16.62084	11.84354	-0.40193
16.62503	11.82157	-0.40193
16.62921	11.79959	-0.40193
16.63340	11.77762	-0.40193
16.63758	11.77762	-0.40193
16.64176	11.75565	-0.40193
16.64602	11.71170	-0.40193
16.65031	11.68973	-0.40193
16.65451	11.64578	-0.40193
16.65869	11.64578	-0.40193
16.66288	11.62381	-0.40193
16.66706	11.57987	-0.40193
16.67124	11.55789	-0.40193
16.67543	11.51395	-0.40193
16.67972	11.49198	-0.40193
16.68392	11.44803	-0.40193
16.68811	11.44803	-0.40193
16.69229	11.40409	-0.40193
16.69648	11.36014	-0.40193
16.70066	11.31619	-0.40193
16.70484	11.27225	-0.40193
16.70909	11.25028	-0.40193
16.71336	11.18436	-0.40193
16.71755	11.18436	-0.40193
16.72184	11.14041	-0.40193
16.72604	11.09647	-0.40193
16.73022	11.05252	-0.40193
16.73441	10.98661	-0.40193
16.73859	10.98661	-0.40193
16.74288	10.94266	-0.40193
16.74708	10.87674	-0.40193
16.75126	10.83280	-0.40193
16.75544	10.76688	-0.40193
16.75963	10.72293	-0.40193
16.76381	10.67899	-0.40193
16.76799	10.67899	-0.40193
16.77224	10.61307	-0.40193
16.77653	10.54715	-0.40193
16.78072	10.48123	-0.40193
16.78490	10.41532	-0.40193
16.78909	10.34940	-0.40193
16.79327	10.30545	-0.40193
16.79745	10.30545	-0.40193
16.80164	10.21756	-0.40193
16.80593	10.15164	-0.40193
16.81014	10.08573	-0.40193
16.81432	10.04178	-0.40193
16.81851	10.04178	-0.40193
16.82280	9.95389	-0.40193
16.82699	9.88797	-0.40193
16.83117	9.82205	-0.40193
16.83558	9.73416	-0.40193
16.83979	9.66825	-0.40193
16.84398	9.66825	-0.40193
16.84817	9.60233	-0.40193
16.85235	9.51444	-0.40193
16.85654	9.44852	-0.40193
16.86072	9.36063	-0.40193
16.86497	9.27274	-0.40193
16.86926	9.27274	-0.40193
16.87347	9.20682	-0.40193
16.87765	9.11893	-0.40193
16.88184	9.05301	-0.40193
16.88603	8.96512	-0.40193
16.89022	8.89920	-0.40193
16.89440	8.89920	-0.40193
16.89870	8.78934	-0.40193
16.90290	8.70145	-0.40193
16.90709	8.61356	-0.40193
16.91127	8.52567	-0.40193
16.91547	8.45975	-0.40193
16.91965	8.37186	-0.40193
16.92394	8.37186	-0.40193
16.92819	8.28397	-0.40193
16.93246	8.19608	-0.40193
16.93666	8.10819	-0.40193
16.94084	7.99832	-0.40193
16.94503	7.91043	-0.40193
16.94921	7.91043	-0.40193
16.95339	7.82254	-0.40193
16.95758	7.71268	-0.40193
16.96187	7.62479	-0.40193
16.96608	7.53690	-0.40193
16.97027	7.44901	-0.40193
16.97445	7.33914	-0.40193
16.97864	7.33914	-0.40193
16.98282	7.25125	-0.40193
16.98700	7.14139	-0.40193
16.99125	7.03153	-0.40193
16.99552	6.94364	-0.40193
16.99972	6.94364	-0.40193
17.00391	6.83377	-0.40193
17.00810	6.74588	-0.40193
17.01229	6.65799	-0.40193
17.01648	6.54813	-0.40193
17.02066	6.43827	-0.40193
17.02507	6.32840	-0.40193
17.02927	6.32840	-0.40193
17.03345	6.24051	-0.40193
17.03764	6.13065	-0.40193
17.04182	6.02078	-0.40193
17.04602	5.91092	-0.40193
17.05022	5.82303	-0.40193
17.05465	5.71317	-0.40193
17.05887	5.71317	-0.40193
17.06312	5.60330	-0.40193
17.06731	5.49344	-0.40193
17.07150	5.38358	-0.40193
17.07568	5.27371	-0.40193
17.07987	5.16385	-0.40193
17.08409	5.16385	-0.40193
17.08838	5.05399	-0.40193
17.09258	4.92215	-0.40193
17.09676	4.83426	-0.40193
17.10095	4.70243	-0.40193
17.10513	4.70243	-0.40193
17.10932	4.59256	-0.40193
17.11351	4.48270	-0.40193
17.11782	4.37284	-0.40193
17.12204	4.26297	-0.40193
17.12633	4.13114	-0.40193
17.13052	4.13114	-0.40193
17.13470	4.02127	-0.40193
17.13889	3.93338	-0.40193
17.14307	3.82352	-0.40193
17.14733	3.69168	-0.40193
17.15161	3.58182	-0.40193
17.15581	3.47196	-0.40193
17.16000	3.47196	-0.40193
17.16419	3.34012	-0.40193
17.16837	3.23026	-0.40193
17.17256	3.12039	-0.40193
17.17676	3.03250	-0.40193
17.18108	2.90067	-0.40193
17.18529	2.79080	-0.40193
17.18948	2.79080	-0.40193
17.19367	2.68094	-0.40193
17.19786	2.57108	-0.40193
17.20205	2.43924	-0.40193
17.20623	2.32938	-0.40193
17.21066	2.32938	-0.40193
17.21488	2.21952	-0.40193
17.21908	2.10965	-0.40193
17.22326	1.99979	-0.40193
17.22755	1.88993	-0.40193
17.23174	1.78006	-0.40193
17.23593	1.67020	-0.40193
17.24018	1.67020	-0.40193
17.24445	1.53836	-0.40193
17.24865	1.42850	-0.40193
17.25283	1.31864	-0.40193
17.25705	1.18680	-0.40193
17.26126	1.09891	-0.40193
17.26546	0.98905	-0.40193
17.27034	0.87918	-0.40193
17.27472	0.87918	-0.40193
17.27896	0.76932	-0.40193
17.28317	0.65946	-0.40193
17.28738	0.52762	-0.40193
17.29158	0.41776	-0.40193
17.29579	0.41776	-0.40193
17.29999	0.30789	-0.40193
17.30459	0.19803	-0.40193
17.30882	0.11014	-0.40193
17.31302	0.00028	-0.40193
17.31721	-0.10959	-0.40193
17.32140	-0.21945	-0.40193
17.32560	-0.32931	-0.40193
17.32990	-0.32931	-0.40193
17.33418	-0.43918	-0.40193
17.33845	-0.54904	-0.40193
17.34265	-0.65890	-0.40193
17.34684	-0.76877	-0.40193
17.35102	-0.76877	-0.40193
17.35521	-0.87863	-0.40193
17.35939	-0.98849	-0.40193
17.36358	-1.07638	-0.40193
17.36787	-1.18625	-0.40193
17.37207	-1.29611	-0.40193
17.37626	-1.29611	-0.40193
17.38045	-1.38400	-0.40193
17.38463	-1.49386	-0.40193
17.38882	-1.60373	-0.40193
17.39301	-1.69162	-0.40193
17.39726	-1.77951	-0.40193
17.40153	-1.88937	-0.40193
17.40573	-1.88937	-0.40193
17.40992	-1.97726	-0.40193
17.41411	-2.06515	-0.40193
17.41830	-2.17502	-0.40193
17.42248	-2.28488	-0.40193
17.42667	-2.28488	-0.40193
17.43107	-2.43869	-0.40193
17.43527	-2.43869	-0.40193
17.43946	-2.52658	-0.40193
17.44364	-2.63644	-0.40193
17.44783	-2.72433	-0.40193
17.45201	-2.81222	-0.40193
17.45621	-2.81222	-0.40193
17.46065	-2.90011	-0.40193
17.46486	-2.98800	-0.40193
17.46905	-3.07589	-0.40193
17.47324	-3.18576	-0.40193
17.47743	-3.25168	-0.40193
17.48161	-3.33957	-0.40193
17.48580	-3.33957	-0.40193
17.49007	-3.42746	-0.40193
17.49437	-3.49338	-0.40193
17.49856	-3.58127	-0.40193
17.50275	-3.66916	-0.40193
17.50696	-3.75705	-0.40193
17.51117	-3.75705	-0.40193
17.51538	-3.82297	-0.40193
17.51960	-3.88888	-0.40193
17.52395	-3.97677	-0.40193
17.52818	-4.04269	-0.40193
17.53249	-4.13058	-0.40193
17.53669	-4.19650	-0.40193
17.54088	-4.19650	-0.40193
17.54507	-4.28439	-0.40193
17.54926	-4.35031	-0.40193
17.55367	-4.41623	-0.40193
17.55790	-4.50412	-0.40193
17.56211	-4.54806	-0.40193
17.56630	-4.63595	-0.40193
17.57049	-4.63595	-0.40193
17.57467	-4.70187	-0.40193
17.57886	-4.74582	-0.40193
17.58311	-4.83371	-0.40193
17.58740	-4.89963	-0.40193
17.59160	-4.89963	-0.40193
17.59579	-4.96554	-0.40193
17.59997	-5.03146	-0.40193
17.60416	-5.07541	-0.40193
17.60835	-5.16330	-0.40193
17.61253	-5.20724	-0.40193
17.61683	-5.20724	-0.40193
17.62104	-5.27316	-0.40193
17.62524	-5.31711	-0.40193
17.62942	-5.38302	-0.40193
17.63372	-5.42697	-0.40193
17.63791	-5.49289	-0.40193
17.64210	-5.49289	-0.40193
17.64636	-5.53683	-0.40193
17.65064	-5.58078	-0.40193
17.65484	-5.62472	-0.40193
17.65903	-5.69064	-0.40193
17.66321	-5.73459	-0.40193
17.66740	-5.73459	-0.40193
17.67158	-5.77853	-0.40193
17.67577	-5.82248	-0.40193
17.68012	-5.86642	-0.40193
17.68434	-5.91037	-0.40193
17.68856	-5.95431	-0.40193
17.69275	-5.99826	-0.40193
17.69694	-5.99826	-0.40193
17.70113	-6.04220	-0.40193
17.70532	-6.06418	-0.40193
17.71018	-6.13009	-0.40193
17.71439	-6.15207	-0.40193
17.71858	-6.19601	-0.40193
17.72279	-6.19601	-0.40193
17.72699	-6.21798	-0.40193
17.73118	-6.26193	-0.40193
17.73547	-6.28390	-0.40193
17.73974	-6.30588	-0.40193
17.74407	-6.34982	-0.40193
17.74829	-6.37179	-0.40193
17.75251	-6.37179	-0.40193
17.75671	-6.39377	-0.40193
17.76091	-6.43771	-0.40193
17.76510	-6.45968	-0.40193
17.76929	-6.48166	-0.40193
17.77361	-6.50363	-0.40193
17.77782	-6.52560	-0.40193
17.78203	-6.52560	-0.40193
17.78623	-6.54757	-0.40193
17.79042	-6.56955	-0.40193
17.79461	-6.59152	-0.40193
17.79881	-6.61349	-0.40193
17.80325	-6.61349	-0.40193
17.80747	-6.61349	-0.40193
17.81166	-6.63547	-0.40193
17.81585	-6.63547	-0.40193
17.82005	-6.65744	-0.40193
17.82424	-6.65744	-0.40193
17.82844	-6.67941	-0.40193
17.83272	-6.67941	-0.40193
17.83714	-6.67941	-0.40193
17.84135	-6.70138	-0.40193
17.84554	-6.70138	-0.40193
17.84973	-6.70138	-0.40193
17.85392	-6.70138	-0.40193
17.85812	-6.70138	-0.40193
17.86232	-6.70138	-0.40193
17.86662	-6.70138	-0.40193
17.87083	-6.70138	-0.40193
17.87503	-6.72336	-0.40193
17.87922	-6.70138	-0.40193
17.88340	-6.70138	-0.40193
17.88759	-6.70138	-0.40193
17.89177	-6.70138	-0.40193
17.89623	-6.70138	-0.40193
17.90043	-6.67941	-0.40193
17.90463	-6.67941	-0.40193
17.90881	-6.67941	-0.40193
17.91300	-6.67941	-0.40193
17.91719	-6.67941	-0.40193
17.92137	-6.65744	-0.40193
17.92561	-6.65744	-0.40193
17.92990	-6.63547	-0.40193
17.93411	-6.63547	-0.40193
17.93840	-6.63547	-0.40193
17.94259	-6.61349	-0.40193
17.94678	-6.59152	-0.40193
17.95096	-6.56955	-0.40193
17.95515	-6.56955	-0.40193
17.95944	-6.54757	-0.40193
17.96364	-6.52560	-0.40193
17.96783	-6.52560	-0.40193
17.97202	-6.50363	-0.40193
17.97621	-6.45968	-0.40193
17.98040	-6.45968	-0.40193
17.98458	-6.41574	-0.40193
17.98884	-6.41574	-0.40193
17.99311	-6.41574	-0.40193
17.99730	-6.37179	-0.40193
18.00149	-6.34982	-0.40193
18.00568	-6.32785	-0.40193
18.00986	-6.28390	-0.40193
18.01406	-6.28390	-0.40193
18.01825	-6.28390	-0.40193
18.02255	-6.23996	-0.40193
18.02675	-6.19601	-0.40193
18.03094	-6.19601	-0.40193
18.03512	-6.15207	-0.40193
18.03942	-6.13009	-0.40193
18.04361	-6.08615	-0.40193
18.04779	-6.08615	-0.40193
18.05227	-6.04220	-0.40193
18.05650	-6.02023	-0.40193
18.06069	-5.97629	-0.40193
18.06488	-5.93234	-0.40193
18.06907	-5.91037	-0.40193
18.07325	-5.86642	-0.40193
18.07744	-5.86642	-0.40193
18.08170	-5.82248	-0.40193
18.08602	-5.80050	-0.40193
18.09022	-5.75656	-0.40193
18.09441	-5.71261	-0.40193
18.09859	-5.71261	-0.40193
18.10278	-5.66867	-0.40193
18.10697	-5.62472	-0.40193
18.11115	-5.58078	-0.40193
18.11545	-5.53683	-0.40193
18.11966	-5.49289	-0.40193
18.12385	-5.49289	-0.40193
18.12804	-5.44894	-0.40193
18.13223	-5.40500	-0.40193
18.13641	-5.36105	-0.40193
18.14070	-5.29513	-0.40193
18.14496	-5.25119	-0.40193
18.14925	-5.25119	-0.40193
18.15346	-5.20724	-0.40193
18.15766	-5.16330	-0.40193
18.16185	-5.11935	-0.40193
18.16606	-5.05343	-0.40193
18.17025	-5.00949	-0.40193
18.17443	-5.00949	-0.40193
18.17874	-4.96554	-0.40193
18.18294	-4.89963	-0.40193
18.18713	-4.85568	-0.40193
18.19132	-4.81173	-0.40193
18.19551	-4.74582	-0.40193
18.19969	-4.70187	-0.40193
18.20388	-4.70187	-0.40193
18.20813	-4.65793	-0.40193
18.21240	-4.59201	-0.40193
18.21659	-4.54806	-0.40193
18.22078	-4.48214	-0.40193
18.22497	-4.41623	-0.40193
18.22915	-4.41623	-0.40193
18.23334	-4.37228	-0.40193
18.23753	-4.30636	-0.40193
18.24194	-4.24045	-0.40193
18.24616	-4.19650	-0.40193
18.25034	-4.15256	-0.40193
18.25453	-4.08664	-0.40193
18.25874	-4.08664	-0.40193
18.26294	-4.02072	-0.40193
18.26713	-3.97677	-0.40193
18.27140	-3.91086	-0.40193
18.27568	-3.84494	-0.40193
18.27988	-3.84494	-0.40193
18.28407	-3.73507	-0.40193
18.28827	-3.73507	-0.40193
18.29246	-3.66916	-0.40193
18.29665	-3.60324	-0.40193
18.30084	-3.53732	-0.40193
18.30515	-3.47140	-0.40193
18.30936	-3.47140	-0.40193
18.31355	-3.40548	-0.40193
18.31775	-3.36154	-0.40193
18.32194	-3.27365	-0.40193
18.32614	-3.22970	-0.40193
18.33034	-3.16379	-0.40193
18.33479	-3.11984	-0.40193
18.33900	-3.11984	-0.40193
18.34329	-3.03195	-0.40193
18.34748	-2.96603	-0.40193
18.35167	-2.90011	-0.40193
18.35585	-2.83420	-0.40193
18.36004	-2.76828	-0.40193
18.36429	-2.76828	-0.40193
18.36856	-2.70236	-0.40193
18.37276	-2.63644	-0.40193
18.37695	-2.57052	-0.40193
18.38114	-2.50461	-0.40193
18.38533	-2.50461	-0.40193
18.38951	-2.43869	-0.40193
18.39370	-2.37277	-0.40193
18.39799	-2.30685	-0.40193
18.40220	-2.24093	-0.40193
18.40639	-2.17502	-0.40193
18.41058	-2.17502	-0.40193
18.41476	-2.08713	-0.40193
18.41895	-2.04318	-0.40193
18.42314	-1.97726	-0.40193
18.42739	-1.91134	-0.40193
18.43167	-1.84543	-0.40193
18.43587	-1.77951	-0.40193
18.44007	-1.77951	-0.40193
18.44436	-1.69162	-0.40193
18.44855	-1.62570	-0.40193
18.45273	-1.55978	-0.40193
18.45692	-1.51584	-0.40193
18.46122	-1.42795	-0.40193
18.46542	-1.38400	-0.40193
18.46962	-1.38400	-0.40193
18.47380	-1.31808	-0.40193
18.47799	-1.23019	-0.40193
18.48214	-1.16427	-0.40193
18.48632	-1.09836	-0.40193
18.49058	-1.09836	-0.40193
18.49486	-1.03244	-0.40193
18.49905	-0.96652	-0.40193
18.50324	-0.90060	-0.40193
18.50743	-0.83468	-0.40193
18.51161	-0.76877	-0.40193
18.51580	-0.70285	-0.40193
18.51999	-0.70285	-0.40193
18.52428	-0.63693	-0.40193
18.52849	-0.57101	-0.40193
18.53268	-0.50509	-0.40193
18.53686	-0.43918	-0.40193
18.54105	-0.37326	-0.40193
18.54534	-0.30734	-0.40193
18.54955	-0.30734	-0.40193
18.55403	-0.26339	-0.40193
18.55825	-0.19748	-0.40193
18.56244	-0.10959	-0.40193
18.56662	-0.04367	-0.40193
18.57081	0.02225	-0.40193
18.57500	0.02225	-0.40193
18.57919	0.06619	-0.40193
18.58344	0.13211	-0.40193
18.58773	0.17606	-0.40193
18.59193	0.26395	-0.40193
18.59612	0.32987	-0.40193
18.60030	0.32987	-0.40193
18.60449	0.39578	-0.40193
18.60868	0.43973	-0.40193
18.61286	0.50565	-0.40193
18.61717	0.57157	-0.40193
18.62137	0.63748	-0.40193
18.62556	0.63748	-0.40193
18.62975	0.70340	-0.40193
18.63394	0.76932	-0.40193
18.63815	0.83524	-0.40193
18.64234	0.87918	-0.40193
18.64670	0.94510	-0.40193
18.65097	0.94510	-0.40193
18.65516	1.01102	-0.40193
18.65935	1.07694	-0.40193
18.66354	1.12088	-0.40193
18.66772	1.18680	-0.40193
18.67191	1.23075	-0.40193
18.67609	1.23075	-0.40193
18.68039	1.29666	-0.40193
18.68459	1.34061	-0.40193
18.68878	1.40653	-0.40193
18.69297	1.47244	-0.40193
18.69715	1.51639	-0.40193
18.70134	1.51639	-0.40193
18.70552	1.58231	-0.40193
18.70978	1.62625	-0.40193
18.71406	1.67020	-0.40193
18.71826	1.73612	-0.40193
18.72245	1.78006	-0.40193
18.72664	1.82401	-0.40193
18.73083	1.82401	-0.40193
18.73501	1.88993	-0.40193
18.73920	1.93387	-0.40193
18.74350	1.99979	-0.40193
18.74781	2.04373	-0.40193
18.75199	2.04373	-0.40193
18.75618	2.13162	-0.40193
18.76036	2.13162	-0.40193
18.76455	2.17557	-0.40193
18.76873	2.21952	-0.40193
18.77317	2.28543	-0.40193
18.77738	2.32938	-0.40193
18.78157	2.32938	-0.40193
18.78575	2.37332	-0.40193
18.78994	2.43924	-0.40193
18.79413	2.46121	-0.40193
18.79831	2.50516	-0.40193
18.80257	2.54911	-0.40193
18.80686	2.59305	-0.40193
18.81105	2.59305	-0.40193
18.81524	2.63700	-0.40193
18.81942	2.68094	-0.40193
18.82361	2.72489	-0.40193
18.82779	2.76883	-0.40193
18.83198	2.81278	-0.40193
18.83628	2.81278	-0.40193
18.84049	2.85672	-0.40193
18.84468	2.87869	-0.40193
18.84897	2.92264	-0.40193
18.85316	2.96659	-0.40193
18.85734	2.98856	-0.40193
18.86153	2.98856	-0.40193
18.86578	3.03250	-0.40193
18.87007	3.07645	-0.40193
18.87427	3.12039	-0.40193
18.87846	3.14237	-0.40193
18.88265	3.16434	-0.40193
18.88683	3.16434	-0.40193
18.89102	3.20828	-0.40193
18.89520	3.25223	-0.40193
18.89951	3.27420	-0.40193
18.90371	3.31815	-0.40193
18.90790	3.34012	-0.40193
18.91209	3.34012	-0.40193
18.91627	3.36209	-0.40193
18.92046	3.40604	-0.40193
18.92464	3.42801	-0.40193
18.92889	3.44998	-0.40193
18.93315	3.47196	-0.40193
18.93735	3.47196	-0.40193
18.94155	3.51590	-0.40193
18.94574	3.55985	-0.40193
18.95004	3.58182	-0.40193
18.95423	3.60379	-0.40193
18.95841	3.62577	-0.40193
18.96271	3.62577	-0.40193
18.96691	3.64774	-0.40193
18.97110	3.66971	-0.40193
18.97528	3.69168	-0.40193
18.97947	3.71366	-0.40193
18.98365	3.73563	-0.40193
18.98784	3.75760	-0.40193
18.99209	3.75760	-0.40193
18.99636	3.77957	-0.40193
19.00055	3.80155	-0.40193
19.00474	3.82352	-0.40193
19.00892	3.84549	-0.40193
19.01311	3.84549	-0.40193
19.01730	3.86746	-0.40193
19.02148	3.86746	-0.40193
19.02578	3.88944	-0.40193
19.02998	3.91141	-0.40193
19.03414	3.91141	-0.40193
19.03833	3.93338	-0.40193
19.04251	3.93338	-0.40193
19.04670	3.95536	-0.40193
19.05102	3.97733	-0.40193
19.05551	3.97733	-0.40193
19.05972	3.99930	-0.40193
19.06391	3.99930	-0.40193
19.06809	4.02127	-0.40193
19.07228	4.02127	-0.40193
19.07647	4.02127	-0.40193
19.08065	4.04325	-0.40193
19.08490	4.06522	-0.40193
19.08919	4.06522	-0.40193
19.09339	4.06522	-0.40193
19.09758	4.08719	-0.40193
19.10177	4.08719	-0.40193
19.10595	4.08719	-0.40193
19.11013	4.10916	-0.40193
19.11432	4.10916	-0.40193
19.11876	4.10916	-0.40193
19.12297	4.10916	-0.40193
19.12716	4.10916	-0.40193
19.13134	4.13114	-0.40193
19.13553	4.13114	-0.40193
19.13971	4.15311	-0.40193
19.14391	4.15311	-0.40193
19.14821	4.15311	-0.40193
19.15263	4.15311	-0.40193
19.15683	4.15311	-0.40193
19.16102	4.15311	-0.40193
19.16520	4.15311	-0.40193
19.16939	4.15311	-0.40193
19.17357	4.15311	-0.40193
19.17777	4.15311	-0.40193
19.18210	4.15311	-0.40193
19.18631	4.15311	-0.40193
19.19050	4.15311	-0.40193
19.19469	4.15311	-0.40193
19.19887	4.15311	-0.40193
19.20306	4.15311	-0.40193
19.20725	4.15311	-0.40193
19.21168	4.15311	-0.40193
19.21588	4.15311	-0.40193
19.22007	4.15311	-0.40193
19.22426	4.15311	-0.40193
19.22844	4.13114	-0.40193
19.23263	4.13114	-0.40193
19.23682	4.15311	-0.40193
19.24107	4.13114	-0.40193
19.24536	4.13114	-0.40193
19.24956	4.13114	-0.40193
19.25386	4.10916	-0.40193
19.25809	4.10916	-0.40193
19.26228	4.10916	-0.40193
19.26647	4.10916	-0.40193
19.27066	4.08719	-0.40193
19.27496	4.08719	-0.40193
19.27916	4.06522	-0.40193
19.28335	4.06522	-0.40193
19.28753	4.06522	-0.40193
19.29172	4.06522	-0.40193
19.29591	4.04325	-0.40193
19.30009	4.04325	-0.40193
19.30434	4.02127	-0.40193
19.30862	4.02127	-0.40193
19.31281	4.02127	-0.40193
19.31700	3.99930	-0.40193
19.32119	3.97733	-0.40193
19.32538	3.97733	-0.40193
19.32956	3.97733	-0.40193
19.33375	3.95536	-0.40193
19.33807	3.95536	-0.40193
19.34227	3.93338	-0.40193
19.34647	3.91141	-0.40193
19.35065	3.91141	-0.40193
19.35494	3.88944	-0.40193
19.35913	3.88944	-0.40193
19.36331	3.88944	-0.40193
19.36775	3.86746	-0.40193
19.37196	3.84549	-0.40193
19.37615	3.84549	-0.40193
19.38033	3.82352	-0.40193
19.38452	3.80155	-0.40193
19.38870	3.80155	-0.40193
19.39289	3.77957	-0.40193
19.39714	3.77957	-0.40193
19.40143	3.75760	-0.40193
19.40563	3.73563	-0.40193
19.40982	3.71366	-0.40193
19.41402	3.71366	-0.40193
19.41820	3.69168	-0.40193
19.42238	3.69168	-0.40193
19.42657	3.66971	-0.40193
19.43087	3.64774	-0.40193
19.43507	3.64774	-0.40193
19.43926	3.60379	-0.40193
19.44344	3.60379	-0.40193
19.44764	3.58182	-0.40193
19.45182	3.55985	-0.40193
19.45611	3.53787	-0.40193
19.46037	3.53787	-0.40193
19.46464	3.53787	-0.40193
19.46884	3.51590	-0.40193
19.47303	3.47196	-0.40193
19.47722	3.47196	-0.40193
19.48140	3.44998	-0.40193
19.48559	3.42801	-0.40193
19.48977	3.40604	-0.40193
19.49410	3.40604	-0.40193
19.49830	3.38407	-0.40193
19.50249	3.36209	-0.40193
19.50668	3.34012	-0.40193
19.51086	3.31815	-0.40193
19.51505	3.29618	-0.40193
19.51923	3.29618	-0.40193
19.52348	3.27420	-0.40193
19.52775	3.25223	-0.40193
19.53195	3.23026	-0.40193
19.53614	3.20828	-0.40193
19.54032	3.18631	-0.40193
19.54451	3.18631	-0.40193
19.54870	3.16434	-0.40193
19.55291	3.14237	-0.40193
19.55733	3.12039	-0.40193
19.56155	3.07645	-0.40193
19.56574	3.07645	-0.40193
19.56993	3.05448	-0.40193
19.57412	3.05448	-0.40193
19.57831	3.03250	-0.40193
19.58249	3.01053	-0.40193
19.58690	2.96659	-0.40193
19.59112	2.94461	-0.40193
19.59531	2.92264	-0.40193
19.59950	2.92264	-0.40193
19.60368	2.90067	-0.40193
19.60787	2.87869	-0.40193
19.61205	2.85672	-0.40193
19.61630	2.83475	-0.40193
19.62058	2.81278	-0.40193
19.62478	2.79080	-0.40193
19.62897	2.79080	-0.40193
19.63316	2.76883	-0.40193
19.63734	2.74686	-0.40193
19.64153	2.72489	-0.40193
19.64572	2.68094	-0.40193
19.65004	2.68094	-0.40193
19.65425	2.65897	-0.40193
19.65854	2.63700	-0.40193
19.66273	2.61502	-0.40193
19.66692	2.59305	-0.40193
19.67110	2.57108	-0.40193
19.67529	2.57108	-0.40193
19.67954	2.54911	-0.40193
19.68382	2.50516	-0.40193
19.68802	2.48319	-0.40193
19.69220	2.46121	-0.40193
19.69639	2.43924	-0.40193
19.70057	2.41727	-0.40193
19.70476	2.41727	-0.40193
19.70894	2.39530	-0.40193
19.71324	2.37332	-0.40193
19.71744	2.32938	-0.40193
19.72163	2.30741	-0.40193
19.72582	2.30741	-0.40193
19.73001	2.28543	-0.40193
19.73420	2.26346	-0.40193
19.73839	2.24149	-0.40193
19.74265	2.24149	-0.40193
19.74693	2.19754	-0.40193
19.75113	2.17557	-0.40193
19.75532	2.17557	-0.40193
19.75961	2.15360	-0.40193
19.76380	2.13162	-0.40193
19.76798	2.08768	-0.40193
19.77217	2.06571	-0.40193
19.77648	2.04373	-0.40193
19.78068	2.02176	-0.40193
19.78486	2.02176	-0.40193
19.78905	1.99979	-0.40193
19.79323	1.97782	-0.40193
19.79742	1.93387	-0.40193
19.80160	1.91190	-0.40193
19.80585	1.88993	-0.40193
19.81014	1.88993	-0.40193
19.81434	1.86795	-0.40193
19.81852	1.84598	-0.40193
19.82271	1.82401	-0.40193
19.82690	1.78006	-0.40193
19.83108	1.75809	-0.40193
19.83527	1.75809	-0.40193
19.83957	1.73612	-0.40193
19.84376	1.71414	-0.40193
19.84795	1.69217	-0.40193
19.85214	1.67020	-0.40193
19.85633	1.62625	-0.40193
19.86061	1.62625	-0.40193
19.86480	1.60428	-0.40193
19.86922	1.58231	-0.40193
19.87344	1.56034	-0.40193
19.87762	1.53836	-0.40193
19.88181	1.51639	-0.40193
19.88599	1.49442	-0.40193
19.89014	1.49442	-0.40193
19.89432	1.45047	-0.40193
19.89857	1.42850	-0.40193
19.90285	1.40653	-0.40193
19.90705	1.38455	-0.40193
19.91123	1.38455	-0.40193
19.91542	1.36258	-0.40193
19.91961	1.31864	-0.40193
19.92379	1.29666	-0.40193
19.92798	1.27469	-0.40193
19.93227	1.25272	-0.40193
19.93648	1.25272	-0.40193
19.94067	1.23075	-0.40193
19.94486	1.20877	-0.40193
19.94904	1.16483	-0.40193
19.95323	1.16483	-0.40193
19.95742	1.12088	-0.40193
19.96178	1.09891	-0.40193
19.96607	1.09891	-0.40193
19.97027	1.07694	-0.40193
19.97446	1.05496	-0.40193
19.97865	1.03299	-0.40193
19.98283	1.01102	-0.40193
19.98702	1.01102	-0.40193
19.99120	0.96707	-0.40193
19.99550	0.96707	-0.40193
19.99970	0.94510	-0.40193
20.00389	0.92313	-0.40193
20.00808	0.90116	-0.40193
20.01226	0.85721	-0.40193
20.01645	0.85721	-0.40193
20.02064	0.83524	-0.40193
20.02489	0.81327	-0.40193
20.02916	0.79129	-0.40193
20.03335	0.76932	-0.40193
20.03754	0.76932	-0.40193
20.04173	0.72537	-0.40193
20.04591	0.72537	-0.40193
20.05011	0.70340	-0.40193
20.05432	0.68143	-0.40193
20.05865	0.65946	-0.40193
20.06297	0.63748	-0.40193
20.06717	0.61551	-0.40193
20.07137	0.61551	-0.40193
20.07556	0.59354	-0.40193
20.07975	0.57157	-0.40193
20.08394	0.54959	-0.40193
20.08839	0.52762	-0.40193
20.09260	0.50565	-0.40193
20.09679	0.50565	-0.40193
20.10097	0.50565	-0.40193
20.10519	0.48368	-0.40193
20.10939	0.46170	-0.40193
20.11358	0.41776	-0.40193
20.11786	0.41776	-0.40193
20.12223	0.39578	-0.40193
20.12644	0.37381	-0.40193
20.13063	0.37381	-0.40193
20.13482	0.35184	-0.40193
20.13903	0.32987	-0.40193
20.14322	0.30789	-0.40193
20.14741	0.28592	-0.40193
20.15177	0.28592	-0.40193
20.15600	0.26395	-0.40193
20.16019	0.24198	-0.40193
20.16448	0.24198	-0.40193
20.16867	0.22000	-0.40193
20.17285	0.19803	-0.40193
20.17704	0.19803	-0.40193
20.18165	0.17606	-0.40193
20.18589	0.15409	-0.40193
20.19010	0.15409	-0.40193
20.19431	0.13211	-0.40193
20.19851	0.11014	-0.40193
20.20270	0.11014	-0.40193
20.20690	0.08817	-0.40193
20.21119	0.06619	-0.40193
20.21548	0.06619	-0.40193
20.21969	0.04422	-0.40193
20.22388	0.02225	-0.40193
20.22807	0.00028	-0.40193
20.23249	0.00028	-0.40193
20.23669	0.00028	-0.40193
20.24097	-0.02170	-0.40193
20.24528	-0.04367	-0.40193
20.24951	-0.04367	-0.40193
20.25377	-0.06564	-0.40193
20.25801	-0.08761	-0.40193
20.26222	-0.08761	-0.40193
20.26653	-0.10959	-0.40193
20.27073	-0.10959	-0.40193
20.27504	-0.13156	-0.40193
20.27925	-0.15353	-0.40193
20.28344	-0.15353	-0.40193
20.28763	-0.15353	-0.40193
20.29182	-0.17550	-0.40193
20.29601	-0.17550	-0.40193
20.30019	-0.19748	-0.40193
20.30464	-0.19748	-0.40193
20.30885	-0.21945	-0.40193
20.31304	-0.24142	-0.40193
20.31723	-0.24142	-0.40193
20.32142	-0.26339	-0.40193
20.32560	-0.26339	-0.40193
20.32979	-0.26339	-0.40193
20.33407	-0.28537	-0.40193
20.33838	-0.28537	-0.40193
20.34258	-0.30734	-0.40193
20.34677	-0.30734	-0.40193
20.35096	-0.32931	-0.40193
20.35516	-0.32931	-0.40193
20.35934	-0.32931	-0.40193
20.36353	-0.35129	-0.40193
20.36794	-0.35129	-0.40193
20.37215	-0.35129	-0.40193
20.37634	-0.37326	-0.40193
20.38053	-0.37326	-0.40193
20.38471	-0.37326	-0.40193
20.38890	-0.39523	-0.40193
20.39308	-0.39523	-0.40193
20.39734	-0.39523	-0.40193
20.40161	-0.39523	-0.40193
20.40581	-0.39523	-0.40193
20.40999	-0.41720	-0.40193
20.41414	-0.41720	-0.40193
20.41832	-0.41720	-0.40193
20.42254	-0.41720	-0.40193
20.42673	-0.41720	-0.40193
20.43104	-0.41720	-0.40193
20.43524	-0.43918	-0.40193
20.43944	-0.43918	-0.40193
20.44362	-0.43918	-0.40193
20.44781	-0.43918	-0.40193
20.45200	-0.43918	-0.40193
20.45619	-0.46115	-0.40193
20.46044	-0.46115	-0.40193
20.46471	-0.46115	-0.40193
20.46902	-0.46115	-0.40193
20.47321	-0.46115	-0.40193
20.47739	-0.46115	-0.40193
20.48158	-0.46115	-0.40193
20.48577	-0.46115	-0.40193
20.48995	-0.48312	-0.40193
20.49426	-0.48312	-0.40193
20.49847	-0.48312	-0.40193
20.50266	-0.48312	-0.40193
20.50685	-0.48312	-0.40193
20.51103	-0.48312	-0.40193
20.51522	-0.48312	-0.40193
20.51940	-0.48312	-0.40193
20.52366	-0.48312	-0.40193
20.52793	-0.48312	-0.40193
20.53212	-0.48312	-0.40193
20.53631	-0.48312	-0.40193
20.54050	-0.48312	-0.40193
20.54469	-0.48312	-0.40193
20.54887	-0.48312	-0.40193
20.55305	-0.48312	-0.40193
20.55736	-0.48312	-0.40193
20.56156	-0.48312	-0.40193
20.56575	-0.48312	-0.40193
20.57006	-0.48312	-0.40193
20.57424	-0.46115	-0.40193
20.57843	-0.46115	-0.40193
20.58261	-0.46115	-0.40193
20.58702	-0.46115	-0.40193
20.59123	-0.46115	-0.40193
20.59542	-0.46115	-0.40193
20.59961	-0.46115	-0.40193
20.60379	-0.46115	-0.40193
20.60798	-0.46115	-0.40193
20.61217	-0.46115	-0.40193
20.61641	-0.43918	-0.40193
20.62070	-0.43918	-0.40193
20.62489	-0.43918	-0.40193
20.62908	-0.43918	-0.40193
20.63327	-0.41720	-0.40193
20.63745	-0.41720	-0.40193
20.64164	-0.41720	-0.40193
20.64582	-0.41720	-0.40193
20.65014	-0.41720	-0.40193
20.65434	-0.39523	-0.40193
20.65854	-0.39523	-0.40193
20.66273	-0.39523	-0.40193
20.66691	-0.39523	-0.40193
20.67120	-0.37326	-0.40193
20.67539	-0.37326	-0.40193
20.67964	-0.37326	-0.40193
20.68392	-0.37326	-0.40193
20.68811	-0.35129	-0.40193
20.69230	-0.35129	-0.40193
20.69649	-0.35129	-0.40193
20.70067	-0.32931	-0.40193
20.70486	-0.32931	-0.40193
20.70904	-0.32931	-0.40193
20.71335	-0.30734	-0.40193
20.71755	-0.30734	-0.40193
20.72174	-0.28537	-0.40193
20.72593	-0.28537	-0.40193
20.73012	-0.28537	-0.40193
20.73431	-0.28537	-0.40193
20.73849	-0.28537	-0.40193
20.74275	-0.26339	-0.40193
20.74702	-0.26339	-0.40193
20.75121	-0.24142	-0.40193
20.75540	-0.24142	-0.40193
20.75959	-0.21945	-0.40193
20.76378	-0.21945	-0.40193
20.76796	-0.21945	-0.40193
20.77226	-0.21945	-0.40193
20.77656	-0.21945	-0.40193
20.78076	-0.19748	-0.40193
20.78495	-0.17550	-0.40193
20.78913	-0.17550	-0.40193
20.79332	-0.17550	-0.40193
20.79751	-0.15353	-0.40193
20.80169	-0.15353	-0.40193
20.80616	-0.15353	-0.40193
20.81037	-0.13156	-0.40193
20.81456	-0.10959	-0.40193
20.81875	-0.10959	-0.40193
20.82293	-0.10959	-0.40193
20.82712	-0.10959	-0.40193
20.83130	-0.08761	-0.40193
20.83556	-0.08761	-0.40193
20.83985	-0.08761	-0.40193
20.84404	-0.06564	-0.40193
20.84823	-0.06564	-0.40193
20.85242	-0.04367	-0.40193
20.85660	-0.06564	-0.40193
20.86080	-0.04367	-0.40193
20.86499	-0.02170	-0.40193
20.86929	-0.02170	-0.40193
20.87360	-0.02170	-0.40193
20.87779	-0.02170	-0.40193
20.88197	0.00028	-0.40193
20.88614	0.00028	-0.40193
20.89032	0.02225	-0.40193
20.89451	0.02225	-0.40193
20.89877	0.02225	-0.40193
20.90304	0.02225	-0.40193
20.90728	0.04422	-0.40193
20.91147	0.04422	-0.40193
20.91566	0.04422	-0.40193
20.91984	0.04422	-0.40193
20.92403	0.06619	-0.40193
20.92821	0.06619	-0.40193
20.93252	0.08817	-0.40193
20.93673	0.08817	-0.40193
20.94092	0.08817	-0.40193
20.94510	0.08817	-0.40193
20.94929	0.08817	-0.40193
20.95348	0.11014	-0.40193
20.95766	0.11014	-0.40193
20.96192	0.11014	-0.40193
20.96620	0.13211	-0.40193
20.97040	0.13211	-0.40193
20.97470	0.13211	-0.40193
20.97888	0.13211	-0.40193
20.98307	0.15409	-0.40193
20.98725	0.15409	-0.40193
20.99144	0.15409	-0.40193
20.99575	0.15409	-0.40193
20.99995	0.15409	-0.40193
21.00414	0.15409	-0.40193
21.00833	0.17606	-0.40193
21.01252	0.17606	-0.40193
21.01670	0.17606	-0.40193
21.02089	0.19803	-0.40193
21.02514	0.19803	-0.40193
21.02941	0.17606	-0.40193
21.03361	0.19803	-0.40193
21.03780	0.19803	-0.40193
21.04198	0.22000	-0.40193
21.04614	0.22000	-0.40193
21.05032	0.22000	-0.40193
21.05451	0.22000	-0.40193
21.05881	0.22000	-0.40193
21.06306	0.24198	-0.40193
21.06727	0.24198	-0.40193
21.07146	0.24198	-0.40193
21.07575	0.24198	-0.40193
21.07993	0.24198	-0.40193
21.08412	0.24198	-0.40193
21.08863	0.26395	-0.40193
21.09285	0.26395	-0.40193
21.09705	0.26395	-0.40193
21.10124	0.28592	-0.40193
21.10543	0.26395	-0.40193
21.10963	0.26395	-0.40193
21.11382	0.28592	-0.40193
21.11811	0.28592	-0.40193
21.12242	0.28592	-0.40193
21.12663	0.28592	-0.40193
21.13082	0.28592	-0.40193
21.13502	0.30789	-0.40193
21.13921	0.30789	-0.40193
21.14340	0.30789	-0.40193
21.14759	0.30789	-0.40193
21.15191	0.30789	-0.40193
21.15611	0.30789	-0.40193
21.16030	0.30789	-0.40193
21.16449	0.30789	-0.40193
21.16867	0.32987	-0.40193
21.17286	0.32987	-0.40193
21.17715	0.32987	-0.40193
21.18161	0.32987	-0.40193
21.18583	0.32987	-0.40193
21.19004	0.32987	-0.40193
21.19423	0.32987	-0.40193
21.19843	0.35184	-0.40193
21.20262	0.35184	-0.40193
21.20681	0.35184	-0.40193
21.21107	0.35184	-0.40193
21.21536	0.35184	-0.40193
21.21957	0.35184	-0.40193
21.22377	0.35184	-0.40193
21.22796	0.35184	-0.40193
21.23215	0.35184	-0.40193
21.23637	0.35184	-0.40193
21.24057	0.37381	-0.40193
21.24488	0.37381	-0.40193
21.24909	0.37381	-0.40193
21.25329	0.37381	-0.40193
21.25748	0.37381	-0.40193
21.26170	0.37381	-0.40193
21.26590	0.37381	-0.40193
21.27010	0.37381	-0.40193
21.27437	0.39578	-0.40193
21.27875	0.39578	-0.40193
21.28295	0.39578	-0.40193
21.28714	0.39578	-0.40193
21.29134	0.39578	-0.40193
21.29553	0.39578	-0.40193
21.29972	0.39578	-0.40193
21.30392	0.39578	-0.40193
21.30822	0.41776	-0.40193
21.31243	0.41776	-0.40193
21.31663	0.41776	-0.40193
21.32081	0.41776	-0.40193
21.32500	0.41776	-0.40193
21.32919	0.41776	-0.40193
21.33337	0.41776	-0.40193
21.33781	0.43973	-0.40193
21.34205	0.41776	-0.40193
21.34624	0.41776	-0.40193
21.35044	0.43973	-0.40193
21.35463	0.43973	-0.40193
21.35882	0.43973	-0.40193
21.36302	0.43973	-0.40193
21.36729	0.43973	-0.40193
21.37157	0.43973	-0.40193
21.37578	0.43973	-0.40193
21.38009	0.43973	-0.40193
21.38428	0.46170	-0.40193
21.38847	0.46170	-0.40193
21.39266	0.46170	-0.40193
21.39686	0.46170	-0.40193
21.40115	0.46170	-0.40193
21.40537	0.46170	-0.40193
21.40956	0.48368	-0.40193
21.41376	0.48368	-0.40193
21.41795	0.48368	-0.40193
21.42214	0.48368	-0.40193
21.42633	0.48368	-0.40193
21.43074	0.48368	-0.40193
21.43496	0.48368	-0.40193
21.43915	0.48368	-0.40193
21.44334	0.50565	-0.40193
21.44753	0.50565	-0.40193
21.45173	0.50565	-0.40193
21.45592	0.50565	-0.40193
21.46018	0.50565	-0.40193
21.46448	0.50565	-0.40193
21.46869	0.50565	-0.40193
21.47288	0.50565	-0.40193
21.47706	0.50565	-0.40193
21.48136	0.52762	-0.40193
21.48554	0.52762	-0.40193
21.48973	0.52762	-0.40193
21.49404	0.52762	-0.40193
21.49825	0.54959	-0.40193
21.50244	0.54959	-0.40193
21.50663	0.52762	-0.40193
21.51081	0.54959	-0.40193
21.51500	0.54959	-0.40193
21.51919	0.54959	-0.40193
21.52344	0.54959	-0.40193
21.52769	0.54959	-0.40193
21.53189	0.54959	-0.40193
21.53608	0.54959	-0.40193
21.54026	0.57157	-0.40193
21.54445	0.57157	-0.40193
21.54863	0.57157	-0.40193
21.55282	0.57157	-0.40193
21.55711	0.57157	-0.40193
21.56132	0.57157	-0.40193
21.56552	0.57157	-0.40193
21.56971	0.57157	-0.40193
21.57389	0.57157	-0.40193
21.57809	0.59354	-0.40193
21.58238	0.59354	-0.40193
21.58680	0.59354	-0.40193
21.59101	0.59354	-0.40193
21.59520	0.59354	-0.40193
21.59938	0.59354	-0.40193
21.60357	0.59354	-0.40193
21.60775	0.59354	-0.40193
21.61194	0.59354	-0.40193
21.61618	0.59354	-0.40193
21.62045	0.59354	-0.40193
21.62465	0.61551	-0.40193
21.62884	0.61551	-0.40193
21.63303	0.61551	-0.40193
21.63721	0.61551	-0.40193
21.64140	0.61551	-0.40193
21.64558	0.61551	-0.40193
21.64988	0.63748	-0.40193
21.65410	0.63748	-0.40193
21.65829	0.63748	-0.40193
21.66248	0.63748	-0.40193
21.66666	0.63748	-0.40193
21.67085	0.63748	-0.40193
21.67503	0.63748	-0.40193
21.67928	0.63748	-0.40193
21.68365	0.65946	-0.40193
21.68785	0.65946	-0.40193
21.69204	0.65946	-0.40193
21.69622	0.65946	-0.40193
21.70041	0.65946	-0.40193
21.70459	0.65946	-0.40193
21.70878	0.65946	-0.40193
21.71307	0.65946	-0.40193
21.71728	0.65946	-0.40193
21.72147	0.65946	-0.40193
21.72566	0.65946	-0.40193
21.72984	0.65946	-0.40193
21.73404	0.65946	-0.40193
21.73823	0.68143	-0.40193
21.74248	0.68143	-0.40193
21.74674	0.68143	-0.40193
21.75094	0.68143	-0.40193
21.75513	0.68143	-0.40193
21.75931	0.68143	-0.40193
21.76350	0.68143	-0.40193
21.76769	0.68143	-0.40193
21.77187	0.68143	-0.40193
21.77616	0.68143	-0.40193
21.78037	0.68143	-0.40193
21.78467	0.68143	-0.40193
21.78888	0.68143	-0.40193
21.79307	0.68143	-0.40193
21.79726	0.68143	-0.40193
21.80144	0.68143	-0.40193
21.80605	0.68143	-0.40193
21.81030	0.68143	-0.40193
21.81450	0.68143	-0.40193
21.81871	0.68143	-0.40193
21.82291	0.68143	-0.40193
21.82710	0.68143	-0.40193
21.83128	0.68143	-0.40193
21.83554	0.68143	-0.40193
21.83986	0.68143	-0.40193
21.84411	0.68143	-0.40193
21.84834	0.68143	-0.40193
21.85255	0.68143	-0.40193
21.85675	0.68143	-0.40193
21.86094	0.68143	-0.40193
21.86520	0.68143	-0.40193
21.86949	0.68143	-0.40193
21.87371	0.68143	-0.40193
21.87790	0.68143	-0.40193
21.88210	0.68143	-0.40193
21.88640	0.68143	-0.40193
21.89058	0.68143	-0.40193
21.89477	0.68143	-0.40193
21.89907	0.68143	-0.40193
21.90329	0.68143	-0.40193
21.90748	0.68143	-0.40193
21.91167	0.68143	-0.40193
21.91585	0.68143	-0.40193
21.92004	0.68143	-0.40193
21.92422	0.68143	-0.40193
21.92848	0.68143	-0.40193
21.93276	0.68143	-0.40193
21.93697	0.68143	-0.40193
21.94116	0.68143	-0.40193
21.94535	0.68143	-0.40193
21.94953	0.68143	-0.40193
21.95372	0.68143	-0.40193
21.95791	0.68143	-0.40193
21.96223	0.68143	-0.40193
21.96645	0.68143	-0.40193
21.97063	0.68143	-0.40193
21.97482	0.68143	-0.40193
21.97901	0.68143	-0.40193
21.98320	0.68143	-0.40193
21.98749	0.68143	-0.40193
21.99193	0.68143	-0.40193
21.99614	0.68143	-0.40193
22.00032	0.68143	-0.40193
22.00451	0.65946	-0.40193
22.00870	0.65946	-0.40193
22.01289	0.65946	-0.40193
22.01707	0.68143	-0.40193
22.02132	0.65946	-0.40193
22.02561	0.65946	-0.40193
22.02981	0.65946	-0.40193
22.03401	0.68143	-0.40193
22.03820	0.65946	-0.40193
22.04239	0.65946	-0.40193
22.04657	0.65946	-0.40193
22.05076	0.68143	-0.40193
22.05508	0.68143	-0.40193
22.05929	0.68143	-0.40193
22.06348	0.68143	-0.40193
22.06768	0.65946	-0.40193
22.07187	0.65946	-0.40193
22.07606	0.65946	-0.40193
22.08025	0.65946	-0.40193
22.08452	0.65946	-0.40193
22.08890	0.65946	-0.40193
22.09309	0.65946	-0.40193
22.09728	0.65946	-0.40193
22.10147	0.65946	-0.40193
22.10566	0.65946	-0.40193
22.10985	0.65946	-0.40193
22.11404	0.65946	-0.40193
22.11835	0.65946	-0.40193
22.12256	0.65946	-0.40193
22.12675	0.65946	-0.40193
22.13094	0.65946	-0.40193
22.13512	0.65946	-0.40193
22.13931	0.65946	-0.40193
22.14350	0.65946	-0.40193
22.14778	0.65946	-0.40193
22.15206	0.65946	-0.40193
22.15626	0.65946	-0.40193
22.16045	0.65946	-0.40193
22.16464	0.65946	-0.40193
22.16883	0.65946	-0.40193
22.17301	0.65946	-0.40193
22.17720	0.65946	-0.40193
22.18150	0.65946	-0.40193
22.18571	0.65946	-0.40193
22.19002	0.65946	-0.40193
22.19421	0.65946	-0.40193
22.19839	0.65946	-0.40193
22.20259	0.65946	-0.40193
22.20678	0.68143	-0.40193
22.21123	0.65946	-0.40193
22.21544	0.65946	-0.40193
22.21963	0.65946	-0.40193
22.22382	0.68143	-0.40193
22.22801	0.68143	-0.40193
22.23219	0.68143	-0.40193
22.23638	0.68143	-0.40193
22.24064	0.68143	-0.40193
22.24493	0.68143	-0.40193
22.24913	0.68143	-0.40193
22.25332	0.68143	-0.40193
22.25751	0.68143	-0.40193
22.26171	0.68143	-0.40193
22.26590	0.68143	-0.40193
22.27011	0.68143	-0.40193
22.27442	0.68143	-0.40193
22.27863	0.68143	-0.40193
22.28282	0.68143	-0.40193
22.28701	0.70340	-0.40193
22.29130	0.68143	-0.40193
22.29549	0.70340	-0.40193
22.29967	0.70340	-0.40193
22.30393	0.70340	-0.40193
22.30821	0.70340	-0.40193
22.31241	0.70340	-0.40193
22.31660	0.70340	-0.40193
22.32079	0.70340	-0.40193
22.32497	0.70340	-0.40193
22.32916	0.70340	-0.40193
22.33335	0.70340	-0.40193
22.33765	0.72537	-0.40193
22.34185	0.72537	-0.40193
22.34605	0.72537	-0.40193
22.35024	0.72537	-0.40193
22.35443	0.72537	-0.40193
22.35862	0.72537	-0.40193
22.36280	0.72537	-0.40193
22.36706	0.72537	-0.40193
22.37134	0.72537	-0.40193
22.37553	0.72537	-0.40193
22.37972	0.72537	-0.40193
22.38391	0.72537	-0.40193
22.38810	0.74735	-0.40193
22.39239	0.74735	-0.40193
22.39658	0.74735	-0.40193
22.40088	0.74735	-0.40193
22.40509	0.74735	-0.40193
22.40928	0.74735	-0.40193
22.41346	0.76932	-0.40193
22.41766	0.76932	-0.40193
22.42185	0.76932	-0.40193
22.42605	0.76932	-0.40193
22.43031	0.76932	-0.40193
22.43459	0.76932	-0.40193
22.43879	0.76932	-0.40193
22.44297	0.76932	-0.40193
22.44716	0.76932	-0.40193
22.45135	0.79129	-0.40193
22.45553	0.79129	-0.40193
22.45974	0.79129	-0.40193
22.46406	0.79129	-0.40193
22.46827	0.79129	-0.40193
22.47247	0.79129	-0.40193
22.47666	0.79129	-0.40193
22.48084	0.79129	-0.40193
22.48503	0.79129	-0.40193
22.48922	0.79129	-0.40193
22.49380	0.81327	-0.40193
22.49802	0.81327	-0.40193
22.50222	0.81327	-0.40193
22.50640	0.81327	-0.40193
22.51059	0.81327	-0.40193
22.51478	0.81327	-0.40193
22.51897	0.81327	-0.40193
22.52323	0.81327	-0.40193
22.52751	0.81327	-0.40193
22.53170	0.81327	-0.40193
22.53589	0.81327	-0.40193
22.54008	0.81327	-0.40193
22.54427	0.81327	-0.40193
22.54845	0.81327	-0.40193
22.55264	0.81327	-0.40193
22.55696	0.81327	-0.40193
22.56118	0.81327	-0.40193
22.56537	0.81327	-0.40193
22.56957	0.83524	-0.40193
22.57377	0.81327	-0.40193
22.57797	0.81327	-0.40193
22.58214	0.83524	-0.40193
22.58657	0.83524	-0.40193
22.59078	0.83524	-0.40193
22.59507	0.83524	-0.40193
22.59926	0.83524	-0.40193
22.60345	0.83524	-0.40193
22.60763	0.83524	-0.40193
22.61182	0.81327	-0.40193
22.61607	0.81327	-0.40193
22.62036	0.83524	-0.40193
22.62455	0.83524	-0.40193
22.62874	0.83524	-0.40193
22.63293	0.83524	-0.40193
22.63711	0.83524	-0.40193
22.64130	0.83524	-0.40193
22.64548	0.83524	-0.40193
22.64978	0.83524	-0.40193
22.65401	0.83524	-0.40193
22.65820	0.83524	-0.40193
22.66239	0.83524	-0.40193
22.66657	0.83524	-0.40193
22.67076	0.85721	-0.40193
22.67494	0.85721	-0.40193
22.67920	0.83524	-0.40193
22.68349	0.85721	-0.40193
22.68770	0.85721	-0.40193
22.69190	0.83524	-0.40193
22.69619	0.83524	-0.40193
22.70038	0.85721	-0.40193
22.70456	0.85721	-0.40193
22.70875	0.85721	-0.40193
22.71305	0.85721	-0.40193
22.71725	0.85721	-0.40193
22.72144	0.85721	-0.40193
22.72562	0.85721	-0.40193
22.72981	0.85721	-0.40193
22.73399	0.85721	-0.40193
22.73814	0.85721	-0.40193
22.74239	0.85721	-0.40193
22.74667	0.85721	-0.40193
22.75087	0.87918	-0.40193
22.75506	0.85721	-0.40193
22.75925	0.85721	-0.40193
22.76343	0.87918	-0.40193
22.76762	0.87918	-0.40193
22.77181	0.87918	-0.40193
22.77611	0.87918	-0.40193
22.78033	0.87918	-0.40193
22.78453	0.87918	-0.40193
22.78873	0.87918	-0.40193
22.79292	0.87918	-0.40193
22.79721	0.87918	-0.40193
22.80140	0.87918	-0.40193
22.80585	0.87918	-0.40193
22.81007	0.85721	-0.40193
22.81427	0.87918	-0.40193
22.81846	0.87918	-0.40193
22.82265	0.87918	-0.40193
22.82684	0.87918	-0.40193
22.83102	0.87918	-0.40193
22.83527	0.85721	-0.40193
22.83956	0.87918	-0.40193
22.84375	0.87918	-0.40193
22.84794	0.87918	-0.40193
22.85213	0.87918	-0.40193
22.85632	0.87918	-0.40193
22.86050	0.87918	-0.40193
22.86469	0.85721	-0.40193
22.86899	0.85721	-0.40193
22.87320	0.85721	-0.40193
22.87739	0.85721	-0.40193
22.88160	0.85721	-0.40193
22.88579	0.85721	-0.40193
22.88998	0.85721	-0.40193
22.89414	0.85721	-0.40193
22.89851	0.85721	-0.40193
22.90278	0.85721	-0.40193
22.90697	0.85721	-0.40193
22.91116	0.85721	-0.40193
22.91534	0.85721	-0.40193
22.91953	0.85721	-0.40193
22.92372	0.85721	-0.40193
22.92790	0.85721	-0.40193
22.93220	0.85721	-0.40193
22.93642	0.85721	-0.40193
22.94060	0.83524	-0.40193
22.94479	0.83524	-0.40193
22.94898	0.83524	-0.40193
22.95316	0.83524	-0.40193
22.95735	0.83524	-0.40193
22.96160	0.83524	-0.40193
22.96588	0.83524	-0.40193
22.97009	0.83524	-0.40193
22.97428	0.83524	-0.40193
22.97848	0.83524	-0.40193
22.98268	0.83524	-0.40193
22.98688	0.83524	-0.40193
22.99107	0.83524	-0.40193
22.99537	0.83524	-0.40193
22.99970	0.83524	-0.40193
23.00389	0.83524	-0.40193
23.00808	0.81327	-0.40193
23.01226	0.81327	-0.40193
23.01645	0.81327	-0.40193
23.02064	0.81327	-0.40193
23.02510	0.81327	-0.40193
23.02930	0.81327	-0.40193
23.03350	0.81327	-0.40193
23.03768	0.81327	-0.40193
23.04187	0.81327	-0.40193
23.04607	0.81327	-0.40193
23.05026	0.81327	-0.40193
23.05456	0.79129	-0.40193
23.05885	0.79129	-0.40193
23.06305	0.79129	-0.40193
23.06724	0.79129	-0.40193
23.07143	0.79129	-0.40193
23.07562	0.79129	-0.40193
23.07981	0.79129	-0.40193
23.08401	0.79129	-0.40193
23.08848	0.79129	-0.40193
23.09269	0.79129	-0.40193
23.09688	0.79129	-0.40193
23.10118	0.79129	-0.40193
23.10536	0.76932	-0.40193
23.10955	0.76932	-0.40193
23.11375	0.76932	-0.40193
23.11803	0.76932	-0.40193
23.12231	0.76932	-0.40193
23.12650	0.76932	-0.40193
23.13069	0.74735	-0.40193
23.13488	0.76932	-0.40193
23.13907	0.76932	-0.40193
23.14327	0.76932	-0.40193
23.14748	0.74735	-0.40193
23.15181	0.74735	-0.40193
23.15601	0.74735	-0.40193
23.16020	0.74735	-0.40193
23.16440	0.74735	-0.40193
23.16859	0.74735	-0.40193
23.17277	0.74735	-0.40193
23.17696	0.74735	-0.40193
23.18125	0.72537	-0.40193
23.18554	0.72537	-0.40193
23.18974	0.72537	-0.40193
23.19393	0.72537	-0.40193
23.19812	0.72537	-0.40193
23.20241	0.72537	-0.40193
23.20660	0.72537	-0.40193
23.21079	0.72537	-0.40193
23.21510	0.72537	-0.40193
23.21930	0.70340	-0.40193
23.22349	0.70340	-0.40193
23.22768	0.70340	-0.40193
23.23186	0.70340	-0.40193
23.23605	0.70340	-0.40193
23.24023	0.70340	-0.40193
23.24449	0.70340	-0.40193
23.24876	0.70340	-0.40193
23.25296	0.70340	-0.40193
23.25715	0.70340	-0.40193
23.26136	0.70340	-0.40193
23.26556	0.68143	-0.40193
23.26975	0.68143	-0.40193
23.27394	0.70340	-0.40193
23.27825	0.68143	-0.40193
23.28248	0.68143	-0.40193
23.28667	0.68143	-0.40193
23.29086	0.68143	-0.40193
23.29504	0.68143	-0.40193
23.29923	0.68143	-0.40193
23.30352	0.68143	-0.40193
23.30794	0.65946	-0.40193
23.31216	0.65946	-0.40193
23.31634	0.65946	-0.40193
23.32053	0.65946	-0.40193
23.32471	0.65946	-0.40193
23.32890	0.65946	-0.40193
23.33309	0.65946	-0.40193
23.33733	0.65946	-0.40193
23.34162	0.65946	-0.40193
23.34582	0.63748	-0.40193
23.35003	0.63748	-0.40193
23.35421	0.63748	-0.40193
23.35840	0.63748	-0.40193
23.36259	0.63748	-0.40193
23.36677	0.63748	-0.40193
23.37107	0.63748	-0.40193
23.37527	0.63748	-0.40193
23.37946	0.63748	-0.40193
23.38366	0.63748	-0.40193
23.38785	0.61551	-0.40193
23.39205	0.61551	-0.40193
23.39624	0.61551	-0.40193
23.40049	0.61551	-0.40193
23.40488	0.61551	-0.40193
23.40907	0.61551	-0.40193
23.41326	0.61551	-0.40193
23.41744	0.59354	-0.40193
23.42164	0.59354	-0.40193
23.42582	0.59354	-0.40193
23.43002	0.57157	-0.40193
23.43433	0.57157	-0.40193
23.43853	0.59354	-0.40193
23.44272	0.59354	-0.40193
23.44691	0.59354	-0.40193
23.45109	0.57157	-0.40193
23.45528	0.57157	-0.40193
23.45946	0.57157	-0.40193
23.46372	0.57157	-0.40193
23.46798	0.57157	-0.40193
23.47218	0.57157	-0.40193
23.47636	0.54959	-0.40193
23.48055	0.54959	-0.40193
23.48476	0.54959	-0.40193
23.48895	0.54959	-0.40193
23.49314	0.54959	-0.40193
23.49746	0.52762	-0.40193
23.50168	0.52762	-0.40193
23.50597	0.52762	-0.40193
23.51014	0.52762	-0.40193
23.51432	0.52762	-0.40193
23.51851	0.52762	-0.40193
23.52270	0.50565	-0.40193
23.52715	0.50565	-0.40193
23.53136	0.50565	-0.40193
23.53555	0.50565	-0.40193
23.53973	0.50565	-0.40193
23.54392	0.50565	-0.40193
23.54811	0.48368	-0.40193
23.55229	0.48368	-0.40193
23.55660	0.48368	-0.40193
23.56090	0.48368	-0.40193
23.56511	0.48368	-0.40193
23.56930	0.46170	-0.40193
23.57349	0.46170	-0.40193
23.57768	0.46170	-0.40193
23.58188	0.43973	-0.40193
23.58608	0.43973	-0.40193
23.59040	0.43973	-0.40193
23.59461	0.43973	-0.40193
23.59880	0.43973	-0.40193
23.60299	0.41776	-0.40193
23.60728	0.41776	-0.40193
23.61147	0.41776	-0.40193
23.61565	0.41776	-0.40193
23.61991	0.41776	-0.40193
23.62418	0.39578	-0.40193
23.62838	0.39578	-0.40193
23.63257	0.39578	-0.40193
23.63675	0.39578	-0.40193
23.64094	0.39578	-0.40193
23.64513	0.39578	-0.40193
23.64931	0.37381	-0.40193
23.65362	0.37381	-0.40193
23.65783	0.37381	-0.40193
23.66203	0.35184	-0.40193
23.66622	0.35184	-0.40193
23.67041	0.35184	-0.40193
23.67459	0.35184	-0.40193
23.67878	0.35184	-0.40193
23.68325	0.35184	-0.40193
23.68748	0.32987	-0.40193
23.69168	0.32987	-0.40193
23.69587	0.32987	-0.40193
23.70006	0.32987	-0.40193
23.70424	0.30789	-0.40193
23.70854	0.30789	-0.40193
23.71279	0.30789	-0.40193
23.71707	0.30789	-0.40193
23.72127	0.28592	-0.40193
23.72546	0.28592	-0.40193
23.72965	0.28592	-0.40193
23.73384	0.28592	-0.40193
23.73803	0.26395	-0.40193
23.74222	0.26395	-0.40193
23.74652	0.26395	-0.40193
23.75072	0.26395	-0.40193
23.75491	0.26395	-0.40193
23.75909	0.24198	-0.40193
23.76328	0.24198	-0.40193
23.76747	0.24198	-0.40193
23.77165	0.24198	-0.40193
23.77591	0.24198	-0.40193
23.78017	0.22000	-0.40193
23.78439	0.22000	-0.40193
23.78858	0.22000	-0.40193
23.79277	0.22000	-0.40193
23.79696	0.22000	-0.40193
23.80114	0.22000	-0.40193
23.80533	0.19803	-0.40193
23.80974	0.19803	-0.40193
23.81394	0.19803	-0.40193
23.81814	0.17606	-0.40193
23.82233	0.17606	-0.40193
23.82652	0.17606	-0.40193
23.83070	0.17606	-0.40193
23.83491	0.17606	-0.40193
23.83938	0.17606	-0.40193
23.84360	0.15409	-0.40193
23.84779	0.15409	-0.40193
23.85197	0.15409	-0.40193
23.85616	0.15409	-0.40193
23.86035	0.15409	-0.40193
23.86453	0.15409	-0.40193
23.86879	0.13211	-0.40193
23.87307	0.13211	-0.40193
23.87727	0.13211	-0.40193
23.88148	0.13211	-0.40193
23.88567	0.13211	-0.40193
23.88986	0.11014	-0.40193
23.89406	0.11014	-0.40193
23.89825	0.11014	-0.40193
23.90255	0.11014	-0.40193
23.90676	0.11014	-0.40193
23.91105	0.08817	-0.40193
23.91524	0.11014	-0.40193
23.91942	0.08817	-0.40193
23.92361	0.08817	-0.40193
23.92779	0.08817	-0.40193
23.93205	0.08817	-0.40193
23.93632	0.08817	-0.40193
23.94051	0.06619	-0.40193
23.94470	0.06619	-0.40193
23.94889	0.06619	-0.40193
23.95307	0.06619	-0.40193
23.95726	0.06619	-0.40193
23.96144	0.06619	-0.40193
23.96575	0.06619	-0.40193
23.96996	0.04422	-0.40193
23.97414	0.04422	-0.40193
23.97833	0.04422	-0.40193
23.98253	0.02225	-0.40193
23.98674	0.02225	-0.40193
23.99093	0.04422	-0.40193
23.99538	0.04422	-0.40193
23.99959	0.02225	-0.40193
24.00378	0.02225	-0.40193
24.00797	0.02225	-0.40193
24.01226	0.02225	-0.40193
24.01644	0.02225	-0.40193
24.02063	0.02225	-0.40193
24.02489	0.00028	-0.40193
24.02917	0.00028	-0.40193
24.03337	-0.02170	-0.40193
24.03756	-0.02170	-0.40193
24.04175	0.00028	-0.40193
24.04594	0.00028	-0.40193
24.05013	-0.02170	-0.40193
24.05437	-0.02170	-0.40193
24.05868	-0.02170	-0.40193
24.06290	-0.04367	-0.40193
24.06709	-0.04367	-0.40193
24.07129	-0.02170	-0.40193
24.07547	-0.04367	-0.40193
24.07966	-0.04367	-0.40193
24.08387	-0.04367	-0.40193
24.08835	-0.04367	-0.40193
24.09257	-0.04367	-0.40193
24.09676	-0.04367	-0.40193
24.10094	-0.04367	-0.40193
24.10513	-0.06564	-0.40193
24.10932	-0.06564	-0.40193
24.11362	-0.06564	-0.40193
24.11788	-0.06564	-0.40193
24.12217	-0.06564	-0.40193
24.12637	-0.08761	-0.40193
24.13056	-0.08761	-0.40193
24.13475	-0.06564	-0.40193
24.13894	-0.08761	-0.40193
24.14312	-0.08761	-0.40193
24.14731	-0.08761	-0.40193
24.15162	-0.08761	-0.40193
24.15582	-0.08761	-0.40193
24.16001	-0.08761	-0.40193
24.16420	-0.10959	-0.40193
24.16838	-0.10959	-0.40193
24.17257	-0.10959	-0.40193
24.17676	-0.10959	-0.40193
24.18102	-0.10959	-0.40193
24.18531	-0.10959	-0.40193
24.18952	-0.13156	-0.40193
24.19371	-0.10959	-0.40193
24.19790	-0.10959	-0.40193
24.20211	-0.13156	-0.40193
24.20630	-0.13156	-0.40193
24.21049	-0.13156	-0.40193
24.21490	-0.13156	-0.40193
24.21911	-0.13156	-0.40193
24.22330	-0.13156	-0.40193
24.22749	-0.13156	-0.40193
24.23167	-0.13156	-0.40193
24.23586	-0.15353	-0.40193
24.24005	-0.15353	-0.40193
24.24453	-0.15353	-0.40193
24.24874	-0.15353	-0.40193
24.25293	-0.15353	-0.40193
24.25712	-0.15353	-0.40193
24.26134	-0.15353	-0.40193
24.26553	-0.15353	-0.40193
24.26972	-0.15353	-0.40193
24.27398	-0.15353	-0.40193
24.27823	-0.15353	-0.40193
24.28245	-0.15353	-0.40193
24.28664	-0.15353	-0.40193
24.29083	-0.15353	-0.40193
24.29502	-0.15353	-0.40193
24.29921	-0.15353	-0.40193
24.30339	-0.15353	-0.40193
24.30770	-0.15353	-0.40193
24.31191	-0.15353	-0.40193
24.31620	-0.15353	-0.40193
24.32039	-0.15353	-0.40193
24.32458	-0.15353	-0.40193
24.32877	-0.15353	-0.40193
24.33295	-0.13156	-0.40193
24.33739	-0.15353	-0.40193
24.34161	-0.15353	-0.40193
24.34579	-0.15353	-0.40193
24.34998	-0.13156	-0.40193
24.35414	-0.13156	-0.40193
24.35832	-0.13156	-0.40193
24.36251	-0.13156	-0.40193
24.36677	-0.13156	-0.40193
24.37106	-0.13156	-0.40193
24.37526	-0.13156	-0.40193
24.37944	-0.10959	-0.40193
24.38365	-0.10959	-0.40193
24.38785	-0.10959	-0.40193
24.39205	-0.10959	-0.40193
24.39624	-0.10959	-0.40193
24.40054	-0.10959	-0.40193
24.40476	-0.08761	-0.40193
24.40894	-0.08761	-0.40193
24.41313	-0.08761	-0.40193
24.41742	-0.08761	-0.40193
24.42161	-0.08761	-0.40193
24.42579	-0.06564	-0.40193
24.43007	-0.06564	-0.40193
24.43435	-0.06564	-0.40193
24.43855	-0.06564	-0.40193
24.44274	-0.06564	-0.40193
24.44693	-0.06564	-0.40193
24.45112	-0.04367	-0.40193
24.45530	-0.04367	-0.40193
24.45949	-0.04367	-0.40193
24.46379	-0.04367	-0.40193
24.46800	-0.02170	-0.40193
24.47219	-0.02170	-0.40193
24.47638	0.00028	-0.40193
24.48056	-0.02170	-0.40193
24.48477	0.00028	-0.40193
24.48897	0.00028	-0.40193
24.49343	0.00028	-0.40193
24.49765	0.00028	-0.40193
24.50184	0.02225	-0.40193
24.50605	0.02225	-0.40193
24.51024	0.02225	-0.40193
24.51443	0.04422	-0.40193
24.51873	0.04422	-0.40193
24.52300	0.04422	-0.40193
24.52728	0.04422	-0.40193
24.53147	0.06619	-0.40193
24.53566	0.06619	-0.40193
24.53985	0.06619	-0.40193
24.54404	0.06619	-0.40193
24.54822	0.08817	-0.40193
24.55241	0.08817	-0.40193
24.55673	0.08817	-0.40193
24.56094	0.11014	-0.40193
24.56513	0.11014	-0.40193
24.56932	0.11014	-0.40193
24.57351	0.13211	-0.40193
24.57770	0.13211	-0.40193
24.58188	0.15409	-0.40193
24.58637	0.15409	-0.40193
24.59058	0.15409	-0.40193
24.59478	0.15409	-0.40193
24.59897	0.17606	-0.40193
24.60316	0.17606	-0.40193
24.60735	0.17606	-0.40193
24.61154	0.19803	-0.40193
24.61580	0.19803	-0.40193
24.62019	0.22000	-0.40193
24.62439	0.22000	-0.40193
24.62857	0.22000	-0.40193
24.63276	0.22000	-0.40193
24.63695	0.24198	-0.40193
24.64113	0.24198	-0.40193
24.64532	0.24198	-0.40193
24.64961	0.26395	-0.40193
24.65382	0.26395	-0.40193
24.65802	0.26395	-0.40193
24.66221	0.28592	-0.40193
24.66640	0.28592	-0.40193
24.67059	0.30789	-0.40193
24.67479	0.30789	-0.40193
24.67929	0.32987	-0.40193
24.68352	0.32987	-0.40193
24.68773	0.32987	-0.40193
24.69192	0.35184	-0.40193
24.69613	0.35184	-0.40193
24.70031	0.37381	-0.40193
24.70450	0.37381	-0.40193
24.70877	0.37381	-0.40193
24.71304	0.39578	-0.40193
24.71724	0.39578	-0.40193
24.72154	0.41776	-0.40193
24.72572	0.41776	-0.40193
24.72991	0.41776	-0.40193
24.73410	0.41776	-0.40193
24.73829	0.43973	-0.40193
24.74259	0.43973	-0.40193
24.74680	0.43973	-0.40193
24.75099	0.46170	-0.40193
24.75518	0.48368	-0.40193
24.75936	0.48368	-0.40193
24.76355	0.48368	-0.40193
24.76774	0.50565	-0.40193
24.77200	0.50565	-0.40193
24.77627	0.52762	-0.40193
24.78047	0.52762	-0.40193
24.78467	0.52762	-0.40193
24.78887	0.54959	-0.40193
24.79307	0.54959	-0.40193
24.79726	0.57157	-0.40193
24.80145	0.57157	-0.40193
24.80577	0.57157	-0.40193
24.80998	0.59354	-0.40193
24.81414	0.59354	-0.40193
24.81833	0.59354	-0.40193
24.82262	0.61551	-0.40193
24.82681	0.63748	-0.40193
24.83099	0.63748	-0.40193
24.83544	0.63748	-0.40193
24.83965	0.63748	-0.40193
24.84384	0.65946	-0.40193
24.84802	0.65946	-0.40193
24.85221	0.68143	-0.40193
24.85639	0.68143	-0.40193
24.86058	0.70340	-0.40193
24.86484	0.70340	-0.40193
24.86912	0.70340	-0.40193
24.87332	0.72537	-0.40193
24.87751	0.72537	-0.40193
24.88170	0.74735	-0.40193
24.88591	0.74735	-0.40193
24.89011	0.74735	-0.40193
24.89430	0.76932	-0.40193
24.89861	0.76932	-0.40193
24.90282	0.79129	-0.40193
24.90701	0.81327	-0.40193
24.91120	0.81327	-0.40193
24.91538	0.81327	-0.40193
24.91957	0.81327	-0.40193
24.92387	0.83524	-0.40193
24.92813	0.83524	-0.40193
24.93241	0.85721	-0.40193
24.93661	0.87918	-0.40193
24.94080	0.87918	-0.40193
24.94498	0.87918	-0.40193
24.94917	0.87918	-0.40193
24.95336	0.90116	-0.40193
24.95754	0.92313	-0.40193
24.96184	0.92313	-0.40193
24.96606	0.94510	-0.40193
24.97026	0.94510	-0.40193
24.97444	0.94510	-0.40193
24.97863	0.96707	-0.40193
24.98284	0.96707	-0.40193
24.98703	0.96707	-0.40193
24.99149	0.98905	-0.40193
24.99570	0.98905	-0.40193
24.99990	0.98905	-0.40193
25.00409	1.01102	-0.40193
25.00827	1.01102	-0.40193
25.01246	1.03299	-0.40193
25.01665	1.03299	-0.40193
25.02092	1.03299	-0.40193
25.02531	1.05496	-0.40193
25.02951	1.05496	-0.40193
25.03370	1.07694	-0.40193
25.03789	1.07694	-0.40193
25.04208	1.07694	-0.40193
25.04627	1.07694	-0.40193
25.05045	1.09891	-0.40193
25.05476	1.09891	-0.40193
25.05898	1.12088	-0.40193
25.06317	1.12088	-0.40193
25.06742	1.14286	-0.40193
25.07162	1.14286	-0.40193
25.07581	1.14286	-0.40193
25.08000	1.16483	-0.40193
25.08428	1.16483	-0.40193
25.08856	1.16483	-0.40193
25.09276	1.16483	-0.40193
25.09695	1.16483	-0.40193
25.10114	1.18680	-0.40193
25.10532	1.20877	-0.40193
25.10951	1.18680	-0.40193
25.11370	1.20877	-0.40193
25.11801	1.23075	-0.40193
25.12222	1.20877	-0.40193
25.12651	1.20877	-0.40193
25.13070	1.23075	-0.40193
25.13488	1.23075	-0.40193
25.13907	1.23075	-0.40193
25.14326	1.25272	-0.40193
25.14770	1.25272	-0.40193
25.15191	1.25272	-0.40193
25.15610	1.25272	-0.40193
25.16029	1.27469	-0.40193
25.16447	1.25272	-0.40193
25.16866	1.27469	-0.40193
25.17284	1.27469	-0.40193
25.17710	1.27469	-0.40193
25.18139	1.27469	-0.40193
25.18562	1.29666	-0.40193
25.18982	1.29666	-0.40193
25.19402	1.29666	-0.40193
25.19820	1.29666	-0.40193
25.20239	1.29666	-0.40193
25.20659	1.29666	-0.40193
25.21090	1.29666	-0.40193
25.21510	1.29666	-0.40193
25.21929	1.31864	-0.40193
25.22348	1.31864	-0.40193
25.22777	1.31864	-0.40193
25.23195	1.31864	-0.40193
25.23614	1.31864	-0.40193
25.24041	1.31864	-0.40193
25.24469	1.31864	-0.40193
25.24889	1.31864	-0.40193
25.25308	1.31864	-0.40193
25.25727	1.31864	-0.40193
25.26146	1.31864	-0.40193
25.26567	1.34061	-0.40193
25.26986	1.34061	-0.40193
25.27419	1.34061	-0.40193
25.27840	1.34061	-0.40193
25.28259	1.34061	-0.40193
25.28680	1.34061	-0.40193
25.29100	1.34061	-0.40193
25.29520	1.34061	-0.40193
25.29939	1.34061	-0.40193
25.30383	1.34061	-0.40193
25.30805	1.34061	-0.40193
25.31225	1.34061	-0.40193
25.31644	1.34061	-0.40193
25.32064	1.34061	-0.40193
25.32483	1.34061	-0.40193
25.32914	1.34061	-0.40193
25.33340	1.34061	-0.40193
25.33767	1.34061	-0.40193
25.34186	1.34061	-0.40193
25.34607	1.34061	-0.40193
25.35025	1.34061	-0.40193
25.35444	1.34061	-0.40193
25.35863	1.34061	-0.40193
25.36281	1.34061	-0.40193
25.36712	1.34061	-0.40193
25.37132	1.34061	-0.40193
25.37551	1.34061	-0.40193
25.37970	1.34061	-0.40193
25.38390	1.34061	-0.40193
25.38810	1.34061	-0.40193
25.39229	1.34061	-0.40193
25.39675	1.31864	-0.40193
25.40096	1.31864	-0.40193
25.40517	1.34061	-0.40193
25.40935	1.31864	-0.40193
25.41354	1.31864	-0.40193
25.41774	1.31864	-0.40193
25.42192	1.31864	-0.40193
25.42620	1.31864	-0.40193
25.43060	1.31864	-0.40193
25.43480	1.31864	-0.40193
25.43899	1.29666	-0.40193
25.44317	1.29666	-0.40193
25.44736	1.31864	-0.40193
25.45154	1.29666	-0.40193
25.45572	1.29666	-0.40193
25.46002	1.29666	-0.40193
25.46423	1.29666	-0.40193
25.46842	1.29666	-0.40193
25.47260	1.29666	-0.40193
25.47678	1.27469	-0.40193
25.48097	1.27469	-0.40193
25.48517	1.27469	-0.40193
25.48944	1.27469	-0.40193
25.49372	1.25272	-0.40193
25.49792	1.25272	-0.40193
25.50212	1.25272	-0.40193
25.50630	1.25272	-0.40193
25.51049	1.25272	-0.40193
25.51468	1.23075	-0.40193
25.51886	1.23075	-0.40193
25.52317	1.23075	-0.40193
25.52737	1.23075	-0.40193
25.53166	1.23075	-0.40193
25.53585	1.23075	-0.40193
25.54004	1.20877	-0.40193
25.54422	1.20877	-0.40193
25.54841	1.20877	-0.40193
25.55283	1.18680	-0.40193
25.55707	1.18680	-0.40193
25.56127	1.18680	-0.40193
25.56546	1.16483	-0.40193
25.56965	1.16483	-0.40193
25.57384	1.16483	-0.40193
25.57803	1.16483	-0.40193
25.58229	1.14286	-0.40193
25.58660	1.14286	-0.40193
25.59081	1.12088	-0.40193
25.59500	1.12088	-0.40193
25.59919	1.09891	-0.40193
25.60338	1.09891	-0.40193
25.60758	1.09891	-0.40193
25.61177	1.09891	-0.40193
25.61607	1.07694	-0.40193
25.62028	1.07694	-0.40193
25.62447	1.07694	-0.40193
25.62866	1.05496	-0.40193
25.63296	1.05496	-0.40193
25.63715	1.05496	-0.40193
25.64133	1.05496	-0.40193
25.64559	1.03299	-0.40193
25.64986	1.01102	-0.40193
25.65408	1.01102	-0.40193
25.65826	1.01102	-0.40193
25.66245	1.01102	-0.40193
25.66664	0.98905	-0.40193
25.67083	1.01102	-0.40193
25.67501	0.98905	-0.40193
25.67931	0.98905	-0.40193
25.68352	0.98905	-0.40193
25.68773	0.96707	-0.40193
25.69192	0.96707	-0.40193
25.69612	0.94510	-0.40193
25.70031	0.94510	-0.40193
25.70449	0.92313	-0.40193
25.70897	0.92313	-0.40193
25.71318	0.92313	-0.40193
25.71737	0.92313	-0.40193
25.72156	0.92313	-0.40193
25.72575	0.90116	-0.40193
25.72994	0.90116	-0.40193
25.73424	0.90116	-0.40193
25.73850	0.90116	-0.40193
25.74277	0.87918	-0.40193
25.74697	0.87918	-0.40193
25.75122	0.85721	-0.40193
25.75542	0.85721	-0.40193
25.75961	0.85721	-0.40193
25.76379	0.85721	-0.40193
25.76798	0.85721	-0.40193
25.77228	0.83524	-0.40193
25.77648	0.83524	-0.40193
25.78067	0.81327	-0.40193
25.78488	0.81327	-0.40193
25.78907	0.81327	-0.40193
25.79326	0.81327	-0.40193
25.79745	0.81327	-0.40193
25.80189	0.79129	-0.40193
25.80611	0.79129	-0.40193
25.81029	0.79129	-0.40193
25.81448	0.79129	-0.40193
25.81867	0.76932	-0.40193
25.82285	0.76932	-0.40193
25.82704	0.74735	-0.40193
25.83129	0.74735	-0.40193
25.83568	0.74735	-0.40193
25.83988	0.74735	-0.40193
25.84407	0.74735	-0.40193
25.84826	0.74735	-0.40193
25.85244	0.72537	-0.40193
25.85663	0.72537	-0.40193
25.86081	0.72537	-0.40193
25.86511	0.72537	-0.40193
25.86932	0.72537	-0.40193
25.87351	0.72537	-0.40193
25.87770	0.70340	-0.40193
25.88189	0.70340	-0.40193
25.88610	0.70340	-0.40193
25.89029	0.68143	-0.40193
25.89456	0.68143	-0.40193
25.89883	0.70340	-0.40193
25.90304	0.68143	-0.40193
25.90724	0.68143	-0.40193
25.91143	0.68143	-0.40193
25.91561	0.68143	-0.40193
25.91981	0.68143	-0.40193
25.92400	0.68143	-0.40193
25.92830	0.65946	-0.40193
25.93251	0.68143	-0.40193
25.93680	0.65946	-0.40193
25.94099	0.65946	-0.40193
25.94518	0.65946	-0.40193
25.94937	0.65946	-0.40193
25.95355	0.65946	-0.40193
25.95798	0.65946	-0.40193
25.96216	0.65946	-0.40193
25.96635	0.65946	-0.40193
25.97054	0.65946	-0.40193
25.97472	0.65946	-0.40193
25.97891	0.65946	-0.40193
25.98309	0.63748	-0.40193
25.98739	0.65946	-0.40193
25.99168	0.65946	-0.40193
25.99588	0.63748	-0.40193
26.00007	0.63748	-0.40193
26.00426	0.63748	-0.40193
26.00845	0.63748	-0.40193
26.01264	0.65946	-0.40193
26.01683	0.63748	-0.40193
26.02113	0.65946	-0.40193
26.02533	0.65946	-0.40193
26.02952	0.65946	-0.40193
26.03371	0.65946	-0.40193
26.03801	0.65946	-0.40193
26.04220	0.65946	-0.40193
26.04639	0.65946	-0.40193
26.05064	0.65946	-0.40193
26.05491	0.65946	-0.40193
26.05912	0.65946	-0.40193
26.06332	0.65946	-0.40193
26.06751	0.65946	-0.40193
26.07170	0.65946	-0.40193
26.07588	0.65946	-0.40193
26.08007	0.65946	-0.40193
26.08443	0.65946	-0.40193
26.08864	0.65946	-0.40193
26.09284	0.65946	-0.40193
26.09703	0.65946	-0.40193
26.10122	0.65946	-0.40193
26.10541	0.65946	-0.40193
26.10960	0.68143	-0.40193
26.11410	0.68143	-0.40193
26.11831	0.68143	-0.40193
26.12250	0.68143	-0.40193
26.12669	0.68143	-0.40193
26.13088	0.68143	-0.40193
26.13506	0.68143	-0.40193
26.13935	0.68143	-0.40193
26.14361	0.70340	-0.40193
26.14791	0.70340	-0.40193
26.15212	0.70340	-0.40193
26.15632	0.70340	-0.40193
26.16051	0.70340	-0.40193
26.16470	0.70340	-0.40193
26.16888	0.72537	-0.40193
26.17307	0.72537	-0.40193
26.17737	0.72537	-0.40193
26.18158	0.72537	-0.40193
26.18579	0.72537	-0.40193
26.18999	0.72537	-0.40193
26.19415	0.72537	-0.40193
26.19834	0.74735	-0.40193
26.20252	0.74735	-0.40193
26.20678	0.74735	-0.40193
26.21105	0.74735	-0.40193
26.21525	0.76932	-0.40193
26.21945	0.76932	-0.40193
26.22363	0.76932	-0.40193
26.22782	0.79129	-0.40193
26.23201	0.79129	-0.40193
26.23619	0.79129	-0.40193
26.24061	0.79129	-0.40193
26.24481	0.79129	-0.40193
26.24899	0.79129	-0.40193
26.25318	0.79129	-0.40193
26.25737	0.81327	-0.40193
26.26156	0.81327	-0.40193
26.26576	0.83524	-0.40193
26.27025	0.83524	-0.40193
26.27446	0.83524	-0.40193
26.27865	0.83524	-0.40193
26.28284	0.83524	-0.40193
26.28704	0.85721	-0.40193
26.29123	0.85721	-0.40193
26.29542	0.85721	-0.40193
26.29967	0.87918	-0.40193
26.30396	0.87918	-0.40193
26.30816	0.87918	-0.40193
26.31235	0.90116	-0.40193
26.31654	0.90116	-0.40193
26.32073	0.90116	-0.40193
26.32492	0.92313	-0.40193
26.32910	0.92313	-0.40193
26.33341	0.92313	-0.40193
26.33761	0.92313	-0.40193
26.34191	0.92313	-0.40193
26.34610	0.94510	-0.40193
26.35029	0.96707	-0.40193
26.35447	0.96707	-0.40193
26.35866	0.96707	-0.40193
26.36291	0.96707	-0.40193
26.36718	0.98905	-0.40193
26.37137	0.98905	-0.40193
26.37556	1.01102	-0.40193
26.37975	1.01102	-0.40193
26.38393	1.03299	-0.40193
26.38813	1.03299	-0.40193
26.39232	1.03299	-0.40193
26.39663	1.05496	-0.40193
26.40084	1.05496	-0.40193
26.40503	1.05496	-0.40193
26.40921	1.07694	-0.40193
26.41340	1.07694	-0.40193
26.41759	1.09891	-0.40193
26.42178	1.09891	-0.40193
26.42604	1.09891	-0.40193
26.43032	1.12088	-0.40193
26.43452	1.14286	-0.40193
26.43871	1.14286	-0.40193
26.44301	1.16483	-0.40193
26.44719	1.16483	-0.40193
26.45138	1.16483	-0.40193
26.45556	1.16483	-0.40193
26.45986	1.18680	-0.40193
26.46407	1.18680	-0.40193
26.46826	1.20877	-0.40193
26.47244	1.20877	-0.40193
26.47663	1.23075	-0.40193
26.48081	1.23075	-0.40193
26.48502	1.25272	-0.40193
26.48928	1.25272	-0.40193
26.49356	1.27469	-0.40193
26.49776	1.27469	-0.40193
26.50195	1.27469	-0.40193
26.50614	1.29666	-0.40193
26.51033	1.31864	-0.40193
26.51451	1.31864	-0.40193
26.51871	1.34061	-0.40193
26.52301	1.34061	-0.40193
26.52721	1.36258	-0.40193
26.53140	1.36258	-0.40193
26.53559	1.36258	-0.40193
26.53977	1.38455	-0.40193
26.54406	1.40653	-0.40193
26.54825	1.40653	-0.40193
26.55271	1.40653	-0.40193
26.55699	1.40653	-0.40193
26.56119	1.42850	-0.40193
26.56538	1.45047	-0.40193
26.56957	1.45047	-0.40193
26.57376	1.47244	-0.40193
26.57795	1.49442	-0.40193
26.58222	1.49442	-0.40193
26.58653	1.49442	-0.40193
26.59074	1.51639	-0.40193
26.59493	1.51639	-0.40193
26.59912	1.53836	-0.40193
26.60330	1.53836	-0.40193
26.60749	1.53836	-0.40193
26.61169	1.56034	-0.40193
26.61599	1.58231	-0.40193
26.62022	1.58231	-0.40193
26.62441	1.60428	-0.40193
26.62859	1.60428	-0.40193
26.63278	1.60428	-0.40193
26.63697	1.62625	-0.40193
26.64115	1.64823	-0.40193
26.64551	1.64823	-0.40193
26.64978	1.67020	-0.40193
26.65398	1.67020	-0.40193
26.65814	1.69217	-0.40193
26.66232	1.69217	-0.40193
26.66651	1.69217	-0.40193
26.67069	1.71414	-0.40193
26.67488	1.73612	-0.40193
26.67918	1.75809	-0.40193
26.68339	1.75809	-0.40193
26.68760	1.75809	-0.40193
26.69179	1.78006	-0.40193
26.69598	1.78006	-0.40193
26.70017	1.80203	-0.40193
26.70436	1.80203	-0.40193
26.70861	1.82401	-0.40193
26.71289	1.82401	-0.40193
26.71709	1.82401	-0.40193
26.72129	1.84598	-0.40193
26.72547	1.86795	-0.40193
26.72966	1.86795	-0.40193
26.73385	1.88993	-0.40193
26.73805	1.88993	-0.40193
26.74235	1.88993	-0.40193
26.74666	1.91190	-0.40193
26.75085	1.93387	-0.40193
26.75504	1.93387	-0.40193
26.75922	1.95584	-0.40193
26.76341	1.95584	-0.40193
26.76760	1.95584	-0.40193
26.77205	1.97782	-0.40193
26.77626	1.99979	-0.40193
26.78044	1.99979	-0.40193
26.78463	2.02176	-0.40193
26.78883	2.02176	-0.40193
26.79302	2.04373	-0.40193
26.79721	2.04373	-0.40193
26.80145	2.04373	-0.40193
26.80574	2.06571	-0.40193
26.80994	2.08768	-0.40193
26.81413	2.08768	-0.40193
26.81832	2.08768	-0.40193
26.82252	2.10965	-0.40193
26.82670	2.10965	-0.40193
26.83089	2.13162	-0.40193
26.83519	2.13162	-0.40193
26.83940	2.15360	-0.40193
26.84359	2.15360	-0.40193
26.84789	2.15360	-0.40193
26.85208	2.17557	-0.40193
26.85626	2.19754	-0.40193
26.86045	2.19754	-0.40193
26.86470	2.19754	-0.40193
26.86898	2.21952	-0.40193
26.87318	2.21952	-0.40193
26.87737	2.24149	-0.40193
26.88155	2.24149	-0.40193
26.88576	2.26346	-0.40193
26.88995	2.26346	-0.40193
26.89414	2.26346	-0.40193
26.89845	2.28543	-0.40193
26.90265	2.30741	-0.40193
26.90684	2.30741	-0.40193
26.91103	2.30741	-0.40193
26.91522	2.32938	-0.40193
26.91941	2.35135	-0.40193
26.92360	2.35135	-0.40193
26.92806	2.35135	-0.40193
26.93227	2.35135	-0.40193
26.93646	2.37332	-0.40193
26.94064	2.39530	-0.40193
26.94483	2.39530	-0.40193
26.94913	2.39530	-0.40193
26.95331	2.39530	-0.40193
26.95756	2.41727	-0.40193
26.96184	2.41727	-0.40193
26.96604	2.41727	-0.40193
26.97023	2.43924	-0.40193
26.97442	2.46121	-0.40193
26.97860	2.46121	-0.40193
26.98279	2.46121	-0.40193
26.98699	2.48319	-0.40193
26.99131	2.48319	-0.40193
26.99552	2.50516	-0.40193
26.99971	2.50516	-0.40193
27.00391	2.52713	-0.40193
27.00810	2.52713	-0.40193
27.01229	2.52713	-0.40193
27.01648	2.54911	-0.40193
27.02093	2.54911	-0.40193
27.02515	2.54911	-0.40193
27.02934	2.54911	-0.40193
27.03353	2.57108	-0.40193
27.03772	2.57108	-0.40193
27.04190	2.59305	-0.40193
27.04610	2.59305	-0.40193
27.05046	2.59305	-0.40193
27.05475	2.61502	-0.40193
27.05897	2.61502	-0.40193
27.06317	2.61502	-0.40193
27.06736	2.63700	-0.40193
27.07154	2.63700	-0.40193
27.07573	2.63700	-0.40193
27.07992	2.65897	-0.40193
27.08423	2.65897	-0.40193
27.08845	2.65897	-0.40193
27.09264	2.65897	-0.40193
27.09683	2.68094	-0.40193
27.10102	2.68094	-0.40193
27.10521	2.68094	-0.40193
27.10939	2.68094	-0.40193
27.11365	2.70291	-0.40193
27.11791	2.70291	-0.40193
27.12212	2.70291	-0.40193
27.12631	2.72489	-0.40193
27.13050	2.72489	-0.40193
27.13468	2.72489	-0.40193
27.13887	2.72489	-0.40193
27.14306	2.72489	-0.40193
27.14738	2.74686	-0.40193
27.15171	2.72489	-0.40193
27.15590	2.74686	-0.40193
27.16009	2.74686	-0.40193
27.16427	2.74686	-0.40193
27.16846	2.74686	-0.40193
27.17265	2.76883	-0.40193
27.17710	2.76883	-0.40193
27.18132	2.76883	-0.40193
27.18551	2.79080	-0.40193
27.18972	2.79080	-0.40193
27.19392	2.79080	-0.40193
27.19812	2.79080	-0.40193
27.20232	2.76883	-0.40193
27.20658	2.79080	-0.40193
27.21087	2.79080	-0.40193
27.21507	2.79080	-0.40193
27.21926	2.79080	-0.40193
27.22345	2.79080	-0.40193
27.22764	2.81278	-0.40193
27.23181	2.81278	-0.40193
27.23597	2.81278	-0.40193
27.24026	2.81278	-0.40193
27.24444	2.81278	-0.40193
27.24861	2.81278	-0.40193
27.25286	2.81278	-0.40193
27.25703	2.81278	-0.40193
27.26119	2.81278	-0.40193
27.26538	2.81278	-0.40193
27.26964	2.81278	-0.40193
27.27388	2.81278	-0.40193
27.27807	2.81278	-0.40193
27.28223	2.81278	-0.40193
27.28641	2.81278	-0.40193
27.29059	2.81278	-0.40193
27.29475	2.81278	-0.40193
27.29892	2.81278	-0.40193
27.30320	2.81278	-0.40193
27.30738	2.81278	-0.40193
27.31155	2.81278	-0.40193
27.31572	2.81278	-0.40193
27.31988	2.81278	-0.40193
27.32405	2.81278	-0.40193
27.32824	2.81278	-0.40193
27.33250	2.79080	-0.40193
27.33677	2.81278	-0.40193
27.34097	2.81278	-0.40193
27.34516	2.81278	-0.40193
27.34934	2.79080	-0.40193
27.35363	2.79080	-0.40193
27.35782	2.79080	-0.40193
27.36202	2.79080	-0.40193
27.36632	2.79080	-0.40193
27.37053	2.79080	-0.40193
27.37471	2.79080	-0.40193
27.37890	2.79080	-0.40193
27.38309	2.76883	-0.40193
27.38729	2.76883	-0.40193
27.39149	2.76883	-0.40193
27.39593	2.76883	-0.40193
27.40014	2.74686	-0.40193
27.40433	2.74686	-0.40193
27.40852	2.74686	-0.40193
27.41271	2.74686	-0.40193
27.41689	2.72489	-0.40193
27.42108	2.72489	-0.40193
27.42532	2.72489	-0.40193
27.42962	2.72489	-0.40193
27.43384	2.70291	-0.40193
27.43804	2.70291	-0.40193
27.44223	2.70291	-0.40193
27.44642	2.68094	-0.40193
27.45060	2.68094	-0.40193
27.45490	2.68094	-0.40193
27.45920	2.68094	-0.40193
27.46342	2.65897	-0.40193
27.46762	2.65897	-0.40193
27.47181	2.63700	-0.40193
27.47599	2.63700	-0.40193
27.48018	2.63700	-0.40193
27.48437	2.61502	-0.40193
27.48865	2.61502	-0.40193
27.49293	2.59305	-0.40193
27.49713	2.59305	-0.40193
27.50132	2.57108	-0.40193
27.50551	2.57108	-0.40193
27.50970	2.57108	-0.40193
27.51389	2.57108	-0.40193
27.51808	2.54911	-0.40193
27.52239	2.52713	-0.40193
27.52661	2.52713	-0.40193
27.53080	2.52713	-0.40193
27.53499	2.50516	-0.40193
27.53917	2.48319	-0.40193
27.54336	2.48319	-0.40193
27.54755	2.46121	-0.40193
27.55180	2.43924	-0.40193
27.55618	2.43924	-0.40193
27.56039	2.43924	-0.40193
27.56459	2.41727	-0.40193
27.56877	2.41727	-0.40193
27.57296	2.39530	-0.40193
27.57715	2.37332	-0.40193
27.58134	2.37332	-0.40193
27.58563	2.37332	-0.40193
27.58986	2.35135	-0.40193
27.59406	2.32938	-0.40193
27.59825	2.30741	-0.40193
27.60244	2.28543	-0.40193
27.60662	2.28543	-0.40193
27.61081	2.28543	-0.40193
27.61527	2.26346	-0.40193
27.61948	2.24149	-0.40193
27.62367	2.24149	-0.40193
27.62786	2.21952	-0.40193
27.63205	2.19754	-0.40193
27.63623	2.19754	-0.40193
27.64042	2.19754	-0.40193
27.64468	2.17557	-0.40193
27.64896	2.15360	-0.40193
27.65318	2.13162	-0.40193
27.65747	2.10965	-0.40193
27.66166	2.10965	-0.40193
27.66585	2.10965	-0.40193
27.67004	2.08768	-0.40193
27.67423	2.06571	-0.40193
27.67853	2.06571	-0.40193
27.68274	2.04373	-0.40193
27.68694	2.02176	-0.40193
27.69114	2.02176	-0.40193
27.69533	1.99979	-0.40193
27.69951	1.97782	-0.40193
27.70370	1.97782	-0.40193
27.70796	1.95584	-0.40193
27.71224	1.95584	-0.40193
27.71645	1.93387	-0.40193
27.72064	1.91190	-0.40193
27.72483	1.91190	-0.40193
27.72901	1.88993	-0.40193
27.73320	1.86795	-0.40193
27.73739	1.84598	-0.40193
27.74169	1.84598	-0.40193
27.74589	1.82401	-0.40193
27.75009	1.80203	-0.40193
27.75428	1.80203	-0.40193
27.75857	1.78006	-0.40193
27.76276	1.75809	-0.40193
27.76695	1.73612	-0.40193
27.77139	1.73612	-0.40193
27.77560	1.71414	-0.40193
27.77979	1.71414	-0.40193
27.78398	1.69217	-0.40193
27.78818	1.67020	-0.40193
27.79238	1.67020	-0.40193
27.79657	1.64823	-0.40193
27.80083	1.62625	-0.40193
27.80513	1.62625	-0.40193
27.80933	1.60428	-0.40193
27.81353	1.58231	-0.40193
27.81771	1.56034	-0.40193
27.82190	1.56034	-0.40193
27.82610	1.56034	-0.40193
27.83029	1.53836	-0.40193
27.83459	1.51639	-0.40193
27.83880	1.49442	-0.40193
27.84299	1.49442	-0.40193
27.84718	1.49442	-0.40193
27.85136	1.47244	-0.40193
27.85555	1.45047	-0.40193
27.85984	1.42850	-0.40193
27.86409	1.42850	-0.40193
27.86838	1.40653	-0.40193
27.87258	1.40653	-0.40193
27.87677	1.38455	-0.40193
27.88096	1.36258	-0.40193
27.88514	1.34061	-0.40193
27.88935	1.36258	-0.40193
27.89354	1.34061	-0.40193
27.89785	1.31864	-0.40193
27.90208	1.31864	-0.40193
27.90627	1.29666	-0.40193
27.91046	1.29666	-0.40193
27.91465	1.27469	-0.40193
27.91883	1.27469	-0.40193
27.92303	1.27469	-0.40193
27.92745	1.25272	-0.40193
27.93168	1.25272	-0.40193
27.93587	1.23075	-0.40193
27.94006	1.20877	-0.40193
27.94424	1.20877	-0.40193
27.94843	1.20877	-0.40193
27.95261	1.20877	-0.40193
27.95688	1.18680	-0.40193
27.96127	1.16483	-0.40193
27.96547	1.16483	-0.40193
27.96966	1.14286	-0.40193
27.97384	1.14286	-0.40193
27.97804	1.14286	-0.40193
27.98223	1.14286	-0.40193
27.98641	1.12088	-0.40193
27.99073	1.12088	-0.40193
27.99494	1.09891	-0.40193
27.99913	1.09891	-0.40193
28.00333	1.09891	-0.40193
28.00751	1.07694	-0.40193
28.01170	1.07694	-0.40193
28.01589	1.07694	-0.40193
28.02014	1.07694	-0.40193
28.02441	1.05496	-0.40193
28.02861	1.05496	-0.40193
28.03279	1.05496	-0.40193
28.03698	1.03299	-0.40193
28.04117	1.03299	-0.40193
28.04535	1.03299	-0.40193
28.04954	1.03299	-0.40193
28.05384	1.01102	-0.40193
28.05811	1.01102	-0.40193
28.06242	1.01102	-0.40193
28.06662	1.01102	-0.40193
28.07080	0.98905	-0.40193
28.07499	0.98905	-0.40193
28.07918	0.98905	-0.40193
28.08360	0.98905	-0.40193
28.08784	0.98905	-0.40193
28.09204	0.98905	-0.40193
28.09623	0.98905	-0.40193
28.10042	0.98905	-0.40193
28.10460	0.96707	-0.40193
28.10879	0.96707	-0.40193
28.11304	0.96707	-0.40193
28.11734	0.96707	-0.40193
28.12155	0.96707	-0.40193
28.12573	0.98905	-0.40193
28.12992	0.96707	-0.40193
28.13412	0.96707	-0.40193
28.13831	0.96707	-0.40193
28.14249	0.96707	-0.40193
28.14682	0.96707	-0.40193
28.15104	0.96707	-0.40193
28.15523	0.96707	-0.40193
28.15941	0.96707	-0.40193
28.16371	0.96707	-0.40193
28.16789	0.96707	-0.40193
28.17208	0.96707	-0.40193
28.17633	0.96707	-0.40193
28.18060	0.98905	-0.40193
28.18480	0.96707	-0.40193
28.18901	0.98905	-0.40193
28.19320	0.98905	-0.40193
28.19740	0.98905	-0.40193
28.20160	0.98905	-0.40193
28.20579	0.98905	-0.40193
28.21012	1.01102	-0.40193
28.21432	1.01102	-0.40193
28.21851	1.01102	-0.40193
28.22270	1.01102	-0.40193
28.22689	1.01102	-0.40193
28.23107	1.01102	-0.40193
28.23527	1.03299	-0.40193
28.23967	1.03299	-0.40193
28.24389	1.03299	-0.40193
28.24808	1.05496	-0.40193
28.25227	1.05496	-0.40193
28.25645	1.05496	-0.40193
28.26064	1.05496	-0.40193
28.26497	1.07694	-0.40193
28.26923	1.07694	-0.40193
28.27352	1.07694	-0.40193
28.27772	1.09891	-0.40193
28.28191	1.09891	-0.40193
28.28610	1.09891	-0.40193
28.29031	1.12088	-0.40193
28.29450	1.12088	-0.40193
28.29870	1.12088	-0.40193
28.30301	1.14286	-0.40193
28.30721	1.14286	-0.40193
28.31140	1.14286	-0.40193
28.31559	1.16483	-0.40193
28.31978	1.16483	-0.40193
28.32398	1.18680	-0.40193
28.32816	1.18680	-0.40193
28.33261	1.18680	-0.40193
28.33683	1.20877	-0.40193
28.34102	1.20877	-0.40193
28.34521	1.23075	-0.40193
28.34940	1.23075	-0.40193
28.35359	1.25272	-0.40193
28.35777	1.25272	-0.40193
28.36204	1.27469	-0.40193
28.36644	1.27469	-0.40193
28.37064	1.29666	-0.40193
28.37482	1.29666	-0.40193
28.37901	1.29666	-0.40193
28.38320	1.31864	-0.40193
28.38743	1.31864	-0.40193
28.39162	1.34061	-0.40193
28.39593	1.36258	-0.40193
28.40015	1.36258	-0.40193
28.40434	1.36258	-0.40193
28.40852	1.38455	-0.40193
28.41272	1.38455	-0.40193
28.41690	1.40653	-0.40193
28.42109	1.42850	-0.40193
28.42536	1.42850	-0.40193
28.42963	1.42850	-0.40193
28.43383	1.45047	-0.40193
28.43805	1.45047	-0.40193
28.44223	1.47244	-0.40193
28.44642	1.49442	-0.40193
28.45061	1.49442	-0.40193
28.45479	1.49442	-0.40193
28.45909	1.51639	-0.40193
28.46329	1.53836	-0.40193
28.46759	1.53836	-0.40193
28.47178	1.56034	-0.40193
28.47596	1.58231	-0.40193
28.48015	1.58231	-0.40193
28.48433	1.58231	-0.40193
28.48882	1.60428	-0.40193
28.49303	1.60428	-0.40193
28.49722	1.62625	-0.40193
28.50141	1.64823	-0.40193
28.50560	1.67020	-0.40193
28.50979	1.67020	-0.40193
28.51398	1.67020	-0.40193
28.51822	1.69217	-0.40193
28.52251	1.69217	-0.40193
28.52671	1.71414	-0.40193
28.53090	1.73612	-0.40193
28.53508	1.75809	-0.40193
28.53928	1.75809	-0.40193
28.54347	1.75809	-0.40193
28.54766	1.78006	-0.40193
28.55196	1.80203	-0.40193
28.55617	1.80203	-0.40193
28.56037	1.80203	-0.40193
28.56457	1.82401	-0.40193
28.56886	1.84598	-0.40193
28.57305	1.84598	-0.40193
28.57724	1.86795	-0.40193
28.58150	1.86795	-0.40193
28.58578	1.88993	-0.40193
28.59001	1.88993	-0.40193
28.59420	1.91190	-0.40193
28.59839	1.91190	-0.40193
28.60258	1.93387	-0.40193
28.60677	1.93387	-0.40193
28.61095	1.95584	-0.40193
28.61526	1.95584	-0.40193
28.61948	1.97782	-0.40193
28.62367	1.99979	-0.40193
28.62786	1.99979	-0.40193
28.63204	2.02176	-0.40193
28.63623	2.02176	-0.40193
28.64043	2.04373	-0.40193
28.64488	2.04373	-0.40193
28.64909	2.06571	-0.40193
28.65328	2.08768	-0.40193
28.65747	2.08768	-0.40193
28.66166	2.10965	-0.40193
28.66584	2.10965	-0.40193
28.67014	2.10965	-0.40193
28.67440	2.13162	-0.40193
28.67867	2.13162	-0.40193
28.68287	2.15360	-0.40193
28.68706	2.17557	-0.40193
28.69126	2.17557	-0.40193
28.69546	2.17557	-0.40193
28.69965	2.19754	-0.40193
28.70384	2.21952	-0.40193
28.70814	2.21952	-0.40193
28.71235	2.24149	-0.40193
28.71654	2.24149	-0.40193
28.72073	2.24149	-0.40193
28.72492	2.26346	-0.40193
28.72911	2.26346	-0.40193
28.73329	2.28543	-0.40193
28.73775	2.30741	-0.40193
28.74197	2.30741	-0.40193
28.74614	2.30741	-0.40193
28.75033	2.30741	-0.40193
28.75452	2.32938	-0.40193
28.75871	2.32938	-0.40193
28.76290	2.35135	-0.40193
28.76717	2.37332	-0.40193
28.77156	2.37332	-0.40193
28.77576	2.37332	-0.40193
28.77995	2.39530	-0.40193
28.78413	2.39530	-0.40193
28.78834	2.39530	-0.40193
28.79254	2.39530	-0.40193
28.79674	2.41727	-0.40193
28.80104	2.41727	-0.40193
28.80525	2.43924	-0.40193
28.80944	2.43924	-0.40193
28.81363	2.43924	-0.40193
28.81782	2.46121	-0.40193
28.82201	2.46121	-0.40193
28.82621	2.48319	-0.40193
28.83067	2.48319	-0.40193
28.83489	2.48319	-0.40193
28.83908	2.50516	-0.40193
28.84327	2.50516	-0.40193
28.84745	2.50516	-0.40193
28.85164	2.52713	-0.40193
28.85582	2.52713	-0.40193
28.86008	2.52713	-0.40193
28.86436	2.54911	-0.40193
28.86857	2.52713	-0.40193
28.87286	2.54911	-0.40193
28.87705	2.57108	-0.40193
28.88124	2.57108	-0.40193
28.88542	2.57108	-0.40193
28.88963	2.57108	-0.40193
28.89394	2.57108	-0.40193
28.89815	2.59305	-0.40193
28.90235	2.59305	-0.40193
28.90654	2.59305	-0.40193
28.91072	2.59305	-0.40193
28.91491	2.61502	-0.40193
28.91910	2.61502	-0.40193
28.92336	2.61502	-0.40193
28.92763	2.61502	-0.40193
28.93182	2.61502	-0.40193
28.93601	2.63700	-0.40193
28.94020	2.63700	-0.40193
28.94439	2.63700	-0.40193
28.94857	2.65897	-0.40193
28.95276	2.65897	-0.40193
28.95706	2.65897	-0.40193
28.96127	2.65897	-0.40193
28.96545	2.65897	-0.40193
28.96964	2.68094	-0.40193
28.97393	2.68094	-0.40193
28.97813	2.68094	-0.40193
28.98231	2.68094	-0.40193
28.98676	2.68094	-0.40193
28.99100	2.70291	-0.40193
28.99520	2.70291	-0.40193
28.99939	2.70291	-0.40193
29.00358	2.72489	-0.40193
29.00776	2.72489	-0.40193
29.01195	2.72489	-0.40193
29.01622	2.72489	-0.40193
29.02050	2.72489	-0.40193
29.02470	2.72489	-0.40193
29.02889	2.72489	-0.40193
29.03308	2.74686	-0.40193
29.03727	2.74686	-0.40193
29.04145	2.74686	-0.40193
29.04564	2.74686	-0.40193
29.04994	2.74686	-0.40193
29.05415	2.74686	-0.40193
29.05834	2.74686	-0.40193
29.06254	2.76883	-0.40193
29.06674	2.76883	-0.40193
29.07098	2.76883	-0.40193
29.07529	2.76883	-0.40193
29.07972	2.76883	-0.40193
29.08394	2.76883	-0.40193
29.08813	2.76883	-0.40193
29.09234	2.76883	-0.40193
29.09655	2.76883	-0.40193
29.10074	2.76883	-0.40193
29.10493	2.76883	-0.40193
29.10920	2.79080	-0.40193
29.11348	2.76883	-0.40193
29.11768	2.79080	-0.40193
29.12187	2.79080	-0.40193
29.12607	2.76883	-0.40193
29.13026	2.79080	-0.40193
29.13445	2.79080	-0.40193
29.13863	2.79080	-0.40193
29.14294	2.79080	-0.40193
29.14715	2.79080	-0.40193
29.15135	2.79080	-0.40193
29.15555	2.79080	-0.40193
29.15973	2.79080	-0.40193
29.16392	2.76883	-0.40193
29.16811	2.76883	-0.40193
29.17258	2.76883	-0.40193
29.17690	2.76883	-0.40193
29.18109	2.76883	-0.40193
29.18528	2.76883	-0.40193
29.18949	2.76883	-0.40193
29.19368	2.76883	-0.40193
29.19787	2.76883	-0.40193
29.20216	2.76883	-0.40193
29.20644	2.76883	-0.40193
29.21063	2.76883	-0.40193
29.21483	2.74686	-0.40193
29.21901	2.74686	-0.40193
29.22320	2.74686	-0.40193
29.22739	2.74686	-0.40193
29.23158	2.74686	-0.40193
29.23589	2.74686	-0.40193
29.24009	2.72489	-0.40193
29.24429	2.72489	-0.40193
29.24848	2.72489	-0.40193
29.25266	2.72489	-0.40193
29.25685	2.70291	-0.40193
29.26104	2.70291	-0.40193
29.26550	2.70291	-0.40193
29.26972	2.70291	-0.40193
29.27392	2.68094	-0.40193
29.27822	2.68094	-0.40193
29.28241	2.68094	-0.40193
29.28660	2.68094	-0.40193
29.29080	2.65897	-0.40193
29.29507	2.65897	-0.40193
29.29935	2.65897	-0.40193
29.30355	2.63700	-0.40193
29.30774	2.63700	-0.40193
29.31194	2.63700	-0.40193
29.31612	2.63700	-0.40193
29.32031	2.61502	-0.40193
29.32450	2.61502	-0.40193
29.32880	2.61502	-0.40193
29.33301	2.61502	-0.40193
29.33720	2.59305	-0.40193
29.34138	2.59305	-0.40193
29.34558	2.59305	-0.40193
29.34977	2.57108	-0.40193
29.35395	2.57108	-0.40193
29.35821	2.54911	-0.40193
29.36248	2.54911	-0.40193
29.36668	2.54911	-0.40193
29.37087	2.52713	-0.40193
29.37506	2.52713	-0.40193
29.37935	2.50516	-0.40193
29.38353	2.50516	-0.40193
29.38771	2.50516	-0.40193
29.39203	2.48319	-0.40193
29.39624	2.46121	-0.40193
29.40043	2.46121	-0.40193
29.40462	2.46121	-0.40193
29.40881	2.46121	-0.40193
29.41300	2.43924	-0.40193
29.41719	2.43924	-0.40193
29.42145	2.41727	-0.40193
29.42573	2.41727	-0.40193
29.42992	2.39530	-0.40193
29.43412	2.39530	-0.40193
29.43831	2.39530	-0.40193
29.44249	2.37332	-0.40193
29.44669	2.35135	-0.40193
29.45087	2.35135	-0.40193
29.45519	2.35135	-0.40193
29.45939	2.35135	-0.40193
29.46358	2.32938	-0.40193
29.46777	2.32938	-0.40193
29.47196	2.30741	-0.40193
29.47614	2.30741	-0.40193
29.48044	2.28543	-0.40193
29.48485	2.26346	-0.40193
29.48909	2.26346	-0.40193
29.49329	2.26346	-0.40193
29.49749	2.24149	-0.40193
29.50167	2.24149	-0.40193
29.50586	2.21952	-0.40193
29.51006	2.21952	-0.40193
29.51432	2.19754	-0.40193
29.51860	2.19754	-0.40193
29.52280	2.17557	-0.40193
29.52699	2.17557	-0.40193
29.53117	2.15360	-0.40193
29.53536	2.15360	-0.40193
29.53954	2.13162	-0.40193
29.54373	2.13162	-0.40193
29.54803	2.13162	-0.40193
29.55224	2.10965	-0.40193
29.55642	2.10965	-0.40193
29.56063	2.08768	-0.40193
29.56482	2.06571	-0.40193
29.56901	2.06571	-0.40193
29.57320	2.06571	-0.40193
29.57745	2.06571	-0.40193
29.58183	2.04373	-0.40193
29.58604	2.04373	-0.40193
29.59024	2.02176	-0.40193
29.59444	2.02176	-0.40193
29.59863	2.02176	-0.40193
29.60281	1.99979	-0.40193
29.60700	1.99979	-0.40193
29.61131	1.99979	-0.40193
29.61551	1.97782	-0.40193
29.61970	1.97782	-0.40193
29.62389	1.97782	-0.40193
29.62807	1.95584	-0.40193
29.63226	1.93387	-0.40193
29.63644	1.93387	-0.40193
29.64069	1.93387	-0.40193
29.64496	1.91190	-0.40193
29.64916	1.91190	-0.40193
29.65335	1.91190	-0.40193
29.65753	1.88993	-0.40193
29.66172	1.86795	-0.40193
29.66591	1.86795	-0.40193
29.67010	1.86795	-0.40193
29.67441	1.86795	-0.40193
29.67862	1.84598	-0.40193
29.68292	1.84598	-0.40193
29.68711	1.82401	-0.40193
29.69131	1.82401	-0.40193
29.69550	1.82401	-0.40193
29.69969	1.82401	-0.40193
29.70409	1.80203	-0.40193
29.70831	1.80203	-0.40193
29.71250	1.78006	-0.40193
29.71669	1.78006	-0.40193
29.72088	1.78006	-0.40193
29.72507	1.75809	-0.40193
29.72926	1.75809	-0.40193
29.73352	1.75809	-0.40193
29.73782	1.75809	-0.40193
29.74203	1.73612	-0.40193
29.74622	1.73612	-0.40193
29.75040	1.73612	-0.40193
29.75459	1.71414	-0.40193
29.75878	1.71414	-0.40193
29.76296	1.71414	-0.40193
29.76726	1.69217	-0.40193
29.77147	1.69217	-0.40193
29.77565	1.67020	-0.40193
29.77984	1.67020	-0.40193
29.78413	1.67020	-0.40193
29.78832	1.67020	-0.40193
29.79252	1.67020	-0.40193
29.79679	1.64823	-0.40193
29.80107	1.64823	-0.40193
29.80527	1.62625	-0.40193
29.80946	1.62625	-0.40193
29.81364	1.62625	-0.40193
29.81783	1.62625	-0.40193
29.82203	1.60428	-0.40193
29.82622	1.60428	-0.40193
29.83053	1.58231	-0.40193
29.83473	1.58231	-0.40193
29.83892	1.58231	-0.40193
29.84311	1.58231	-0.40193
29.84730	1.56034	-0.40193
29.85149	1.56034	-0.40193
29.85567	1.53836	-0.40193
29.85993	1.53836	-0.40193
29.86420	1.53836	-0.40193
29.86840	1.53836	-0.40193
29.87259	1.53836	-0.40193
29.87678	1.51639	-0.40193
29.88096	1.51639	-0.40193
29.88525	1.51639	-0.40193
29.88948	1.49442	-0.40193
29.89379	1.49442	-0.40193
29.89801	1.47244	-0.40193
29.90220	1.47244	-0.40193
29.90639	1.47244	-0.40193
29.91057	1.47244	-0.40193
29.91476	1.47244	-0.40193
29.91894	1.45047	-0.40193
29.92335	1.45047	-0.40193
29.92756	1.45047	-0.40193
29.93175	1.42850	-0.40193
29.93594	1.42850	-0.40193
29.94012	1.42850	-0.40193
29.94431	1.40653	-0.40193
29.94850	1.40653	-0.40193
29.95276	1.40653	-0.40193
29.95705	1.40653	-0.40193
29.96125	1.40653	-0.40193
29.96544	1.38455	-0.40193
29.96964	1.38455	-0.40193
29.97382	1.36258	-0.40193
29.97802	1.36258	-0.40193
29.98220	1.36258	-0.40193
29.98661	1.36258	-0.40193
29.99084	1.36258	-0.40193
29.99504	1.34061	-0.40193
29.99924	1.34061	-0.40193
