Time (s)   roll (deg)   Delta
0.00030	-3.53732	11.27051
0.00465	-3.53732	11.27051
0.00887	-3.53732	11.27051
0.01303	-3.51535	11.27051
0.01722	-3.51535	11.27051
0.02140	-3.51535	11.27051
0.02558	-3.51535	11.27051
0.02976	-3.51535	11.27051
0.03402	-3.49338	11.27051
0.03827	-3.49338	11.27051
0.04246	-3.49338	11.27051
0.04665	-3.49338	11.27051
0.05084	-3.49338	11.27051
0.05502	-3.49338	11.27051
0.05920	-3.47140	11.27051
0.06336	-3.47140	11.27051
0.06763	-3.47140	11.27051
0.07182	-3.47140	11.27051
0.07599	-3.47140	11.27051
0.08016	-3.47140	11.27051
0.08433	-3.47140	11.27051
0.08850	-3.47140	11.27051
0.09266	-3.47140	11.27051
0.09693	-3.47140	11.27051
0.10126	-3.49338	11.27051
0.10543	-3.49338	11.27051
0.10960	-3.49338	11.27051
0.11377	-3.49338	11.27051
0.11794	-3.49338	11.27051
0.12211	-3.51535	11.27051
0.12628	-3.51535	11.27051
0.13054	-3.51535	11.27051
0.13473	-3.51535	11.27051
0.13890	-3.53732	11.27051
0.14307	-3.53732	11.27051
0.14724	-3.55929	11.27051
0.15141	-3.58127	11.27051
0.15558	-3.58127	11.27051
0.15986	-3.58127	11.27051
0.16412	-3.60324	11.27051
0.16832	-3.62521	11.27051
0.17251	-3.64718	11.27051
0.17669	-3.64718	11.27051
0.18088	-3.66916	11.27051
0.18502	-3.69113	11.27051
0.18920	-3.71310	11.27051
0.19349	-3.73507	11.27051
0.19770	-3.75705	11.27051
0.20199	-3.77902	11.27051
0.20618	-3.77902	11.27051
0.21036	-3.80099	11.27051
0.21455	-3.84494	11.27051
0.21873	-3.86691	11.27051
0.22306	-3.91086	11.27051
0.22733	-3.93283	11.27051
0.23156	-3.93283	11.27051
0.23575	-3.95480	11.27051
0.23994	-3.99875	11.27051
0.24412	-4.02072	11.27051
0.24831	-4.06466	11.27051
0.25260	-4.10861	11.27051
0.25687	-4.15256	11.27051
0.26104	-4.15256	11.27051
0.26523	-4.17453	11.27051
0.26942	-4.21847	11.27051
0.27361	-4.26242	11.27051
0.27779	-4.30636	11.27051
0.28197	-4.35031	11.27051
0.28626	-4.39425	11.27051
0.29053	-4.39425	11.27051
0.29472	-4.43820	11.27051
0.29891	-4.50412	11.27051
0.30320	-4.54806	11.27051
0.30739	-4.59201	11.27051
0.31157	-4.59201	11.27051
0.31598	-4.65793	11.27051
0.32019	-4.70187	11.27051
0.32438	-4.74582	11.27051
0.32856	-4.81173	11.27051
0.33275	-4.85568	11.27051
0.33694	-4.92160	11.27051
0.34112	-4.92160	11.27051
0.34537	-4.98752	11.27051
0.34964	-5.03146	11.27051
0.35384	-5.09738	11.27051
0.35804	-5.16330	11.27051
0.36222	-5.22922	11.27051
0.36641	-5.27316	11.27051
0.37059	-5.27316	11.27051
0.37478	-5.33908	11.27051
0.37906	-5.40500	11.27051
0.38327	-5.47091	11.27051
0.38746	-5.55881	11.27051
0.39164	-5.55881	11.27051
0.39582	-5.60275	11.27051
0.40001	-5.69064	11.27051
0.40429	-5.75656	11.27051
0.40854	-5.84445	11.27051
0.41278	-5.91037	11.27051
0.41699	-5.91037	11.27051
0.42118	-5.97629	11.27051
0.42536	-6.06418	11.27051
0.42955	-6.13009	11.27051
0.43373	-6.19601	11.27051
0.43791	-6.28390	11.27051
0.44219	-6.28390	11.27051
0.44640	-6.37179	11.27051
0.45059	-6.45968	11.27051
0.45477	-6.50363	11.27051
0.45896	-6.59152	11.27051
0.46314	-6.67941	11.27051
0.46733	-6.67941	11.27051
0.47158	-6.76730	11.27051
0.47582	-6.83322	11.27051
0.48001	-6.94308	11.27051
0.48420	-7.00900	11.27051
0.48838	-7.09689	11.27051
0.49257	-7.18478	11.27051
0.49675	-7.18478	11.27051
0.50094	-7.27267	11.27051
0.50533	-7.36056	11.27051
0.50953	-7.42648	11.27051
0.51372	-7.53634	11.27051
0.51791	-7.62423	11.27051
0.52209	-7.62423	11.27051
0.52627	-7.71213	11.27051
0.53046	-7.80002	11.27051
0.53486	-7.90988	11.27051
0.53907	-7.97580	11.27051
0.54326	-8.06369	11.27051
0.54745	-8.17355	11.27051
0.55163	-8.17355	11.27051
0.55582	-8.26144	11.27051
0.56001	-8.34933	11.27051
0.56427	-8.45920	11.27051
0.56854	-8.54709	11.27051
0.57274	-8.54709	11.27051
0.57694	-8.63498	11.27051
0.58112	-8.72287	11.27051
0.58531	-8.83273	11.27051
0.58950	-8.92062	11.27051
0.59368	-9.00851	11.27051
0.59796	-9.11838	11.27051
0.60217	-9.11838	11.27051
0.60646	-9.22824	11.27051
0.61065	-9.31613	11.27051
0.61483	-9.42599	11.27051
0.61901	-9.51388	11.27051
0.62320	-9.60177	11.27051
0.62745	-9.71164	11.27051
0.63170	-9.71164	11.27051
0.63589	-9.79953	11.27051
0.64008	-9.90939	11.27051
0.64428	-10.01925	11.27051
0.64846	-10.10714	11.27051
0.65265	-10.10714	11.27051
0.65683	-10.21701	11.27051
0.66113	-10.32687	11.27051
0.66534	-10.41476	11.27051
0.66953	-10.52463	11.27051
0.67372	-10.61252	11.27051
0.67790	-10.61252	11.27051
0.68209	-10.72238	11.27051
0.68627	-10.85422	11.27051
0.69052	-10.94211	11.27051
0.69477	-11.05197	11.27051
0.69897	-11.05197	11.27051
0.70316	-11.13986	11.27051
0.70745	-11.24972	11.27051
0.71163	-11.33761	11.27051
0.71581	-11.44748	11.27051
0.71999	-11.53537	11.27051
0.72428	-11.64523	11.27051
0.72848	-11.64523	11.27051
0.73267	-11.75509	11.27051
0.73686	-11.86496	11.27051
0.74102	-11.95285	11.27051
0.74520	-12.06271	11.27051
0.74939	-12.15060	11.27051
0.75364	-12.26047	11.27051
0.75789	-12.26047	11.27051
0.76208	-12.37033	11.27051
0.76627	-12.45822	11.27051
0.77046	-12.56808	11.27051
0.77464	-12.67795	11.27051
0.77882	-12.67795	11.27051
0.78301	-12.78781	11.27051
0.78729	-12.89767	11.27051
0.79150	-12.98556	11.27051
0.79568	-13.07345	11.27051
0.79987	-13.18332	11.27051
0.80405	-13.29318	11.27051
0.80834	-13.29318	11.27051
0.81252	-13.40304	11.27051
0.81694	-13.49093	11.27051
0.82115	-13.60080	11.27051
0.82534	-13.71066	11.27051
0.82952	-13.82052	11.27051
0.83371	-13.90841	11.27051
0.83789	-13.90841	11.27051
0.84208	-13.99631	11.27051
0.84634	-14.10617	11.27051
0.85060	-14.21603	11.27051
0.85480	-14.32589	11.27051
0.85899	-14.41379	11.27051
0.86317	-14.41379	11.27051
0.86735	-14.52365	11.27051
0.87154	-14.63351	11.27051
0.87572	-14.72140	11.27051
0.88001	-14.80929	11.27051
0.88421	-14.91916	11.27051
0.88840	-14.91916	11.27051
0.89258	-15.02902	11.27051
0.89677	-15.11691	11.27051
0.90096	-15.22677	11.27051
0.90514	-15.31466	11.27051
0.90951	-15.42453	11.27051
0.91374	-15.42453	11.27051
0.91794	-15.51242	11.27051
0.92212	-15.62228	11.27051
0.92630	-15.71017	11.27051
0.93049	-15.82004	11.27051
0.93467	-15.90793	11.27051
0.93885	-15.90793	11.27051
0.94313	-16.01779	11.27051
0.94734	-16.10568	11.27051
0.95153	-16.21554	11.27051
0.95571	-16.30343	11.27051
0.95989	-16.30343	11.27051
0.96409	-16.39132	11.27051
0.96827	-16.47922	11.27051
0.97253	-16.56711	11.27051
0.97677	-16.67697	11.27051
0.98098	-16.74289	11.27051
0.98517	-16.85275	11.27051
0.98935	-16.85275	11.27051
0.99354	-16.94064	11.27051
0.99772	-17.02853	11.27051
1.00190	-17.11642	11.27051
1.00618	-17.18234	11.27051
1.01049	-17.29220	11.27051
1.01468	-17.35812	11.27051
1.01887	-17.35812	11.27051
1.02305	-17.46798	11.27051
1.02723	-17.53390	11.27051
1.03141	-17.62179	11.27051
1.03582	-17.70968	11.27051
1.04004	-17.79757	11.27051
1.04422	-17.79757	11.27051
1.04840	-17.88547	11.27051
1.05259	-17.95138	11.27051
1.05677	-18.01730	11.27051
1.06096	-18.10519	11.27051
1.06523	-18.19308	11.27051
1.06949	-18.19308	11.27051
1.07369	-18.28097	11.27051
1.07788	-18.34689	11.27051
1.08206	-18.41281	11.27051
1.08625	-18.50070	11.27051
1.09043	-18.56662	11.27051
1.09461	-18.65451	11.27051
1.09889	-18.65451	11.27051
1.10310	-18.72043	11.27051
1.10729	-18.78634	11.27051
1.11158	-18.87423	11.27051
1.11576	-18.94015	11.27051
1.11994	-19.00607	11.27051
1.12413	-19.00607	11.27051
1.12838	-19.07199	11.27051
1.13263	-19.13791	11.27051
1.13682	-19.20382	11.27051
1.14102	-19.26974	11.27051
1.14520	-19.33566	11.27051
1.14939	-19.33566	11.27051
1.15357	-19.40158	11.27051
1.15776	-19.46750	11.27051
1.16205	-19.53341	11.27051
1.16627	-19.57736	11.27051
1.17046	-19.64328	11.27051
1.17465	-19.64328	11.27051
1.17884	-19.70920	11.27051
1.18302	-19.75314	11.27051
1.18720	-19.81906	11.27051
1.19146	-19.88498	11.27051
1.19571	-19.92892	11.27051
1.19991	-19.92892	11.27051
1.20409	-19.97287	11.27051
1.20828	-20.03879	11.27051
1.21257	-20.08273	11.27051
1.21675	-20.12668	11.27051
1.22095	-20.17062	11.27051
1.22524	-20.17062	11.27051
1.22945	-20.21457	11.27051
1.23365	-20.25851	11.27051
1.23784	-20.30246	11.27051
1.24202	-20.34640	11.27051
1.24620	-20.39035	11.27051
1.25039	-20.39035	11.27051
1.25464	-20.43429	11.27051
1.25888	-20.45627	11.27051
1.26308	-20.50021	11.27051
1.26727	-20.52218	11.27051
1.27145	-20.56613	11.27051
1.27564	-20.58810	11.27051
1.27982	-20.58810	11.27051
1.28400	-20.63205	11.27051
1.28834	-20.65402	11.27051
1.29254	-20.67599	11.27051
1.29673	-20.69797	11.27051
1.30093	-20.69797	11.27051
1.30511	-20.69797	11.27051
1.30930	-20.71994	11.27051
1.31359	-20.71994	11.27051
1.31800	-20.74191	11.27051
1.32221	-20.74191	11.27051
1.32640	-20.74191	11.27051
1.33059	-20.74191	11.27051
1.33478	-20.74191	11.27051
1.33897	-20.74191	11.27051
1.34315	-20.74191	11.27051
1.34743	-20.74191	11.27051
1.35169	-20.71994	11.27051
1.35590	-20.71994	11.27051
1.36008	-20.71994	11.27051
1.36427	-20.69797	11.27051
1.36845	-20.67599	11.27051
1.37264	-20.65402	11.27051
1.37682	-20.61007	11.27051
1.38112	-20.61007	11.27051
1.38533	-20.61007	11.27051
1.38952	-20.56613	11.27051
1.39370	-20.56613	11.27051
1.39789	-20.52218	11.27051
1.40208	-20.50021	11.27051
1.40626	-20.45627	11.27051
1.41052	-20.45627	11.27051
1.41487	-20.43429	11.27051
1.41906	-20.39035	11.27051
1.42324	-20.36838	11.27051
1.42743	-20.32443	11.27051
1.43161	-20.28048	11.27051
1.43580	-20.28048	11.27051
1.43998	-20.25851	11.27051
1.44426	-20.21457	11.27051
1.44847	-20.17062	11.27051
1.45266	-20.12668	11.27051
1.45685	-20.08273	11.27051
1.46102	-20.08273	11.27051
1.46521	-20.06076	11.27051
1.46939	-19.99484	11.27051
1.47365	-19.95089	11.27051
1.47790	-19.92892	11.27051
1.48210	-19.88498	11.27051
1.48629	-19.88498	11.27051
1.49048	-19.84103	11.27051
1.49466	-19.79709	11.27051
1.49885	-19.75314	11.27051
1.50303	-19.70920	11.27051
1.50732	-19.64328	11.27051
1.51153	-19.64328	11.27051
1.51583	-19.59933	11.27051
1.52001	-19.55539	11.27051
1.52420	-19.51144	11.27051
1.52838	-19.46750	11.27051
1.53256	-19.42355	11.27051
1.53699	-19.35763	11.27051
1.54120	-19.35763	11.27051
1.54539	-19.31369	11.27051
1.54958	-19.26974	11.27051
1.55376	-19.20382	11.27051
1.55795	-19.15988	11.27051
1.56213	-19.11593	11.27051
1.56640	-19.07199	11.27051
1.57067	-19.07199	11.27051
1.57487	-19.00607	11.27051
1.57906	-18.96213	11.27051
1.58325	-18.91818	11.27051
1.58743	-18.85226	11.27051
1.59162	-18.85226	11.27051
1.59580	-18.78634	11.27051
1.60008	-18.74240	11.27051
1.60429	-18.69845	11.27051
1.60848	-18.65451	11.27051
1.61267	-18.58859	11.27051
1.61697	-18.52267	11.27051
1.62116	-18.52267	11.27051
1.62534	-18.47873	11.27051
1.62959	-18.41281	11.27051
1.63384	-18.36886	11.27051
1.63804	-18.30295	11.27051
1.64222	-18.23703	11.27051
1.64641	-18.19308	11.27051
1.65059	-18.19308	11.27051
1.65478	-18.12716	11.27051
1.65896	-18.08322	11.27051
1.66324	-18.01730	11.27051
1.66745	-17.97336	11.27051
1.67164	-17.97336	11.27051
1.67582	-17.90744	11.27051
1.68001	-17.84152	11.27051
1.68419	-17.77560	11.27051
1.68837	-17.73166	11.27051
1.69262	-17.66574	11.27051
1.69687	-17.66574	11.27051
1.70103	-17.59982	11.27051
1.70522	-17.55588	11.27051
1.70940	-17.48996	11.27051
1.71359	-17.42404	11.27051
1.71787	-17.42404	11.27051
1.72206	-17.35812	11.27051
1.72634	-17.29220	11.27051
1.73055	-17.24826	11.27051
1.73474	-17.18234	11.27051
1.73892	-17.13839	11.27051
1.74311	-17.07248	11.27051
1.74729	-17.07248	11.27051
1.75147	-17.00656	11.27051
1.75572	-16.94064	11.27051
1.75997	-16.87472	11.27051
1.76417	-16.83078	11.27051
1.76837	-16.76486	11.27051
1.77256	-16.72091	11.27051
1.77674	-16.72091	11.27051
1.78093	-16.65500	11.27051
1.78512	-16.58908	11.27051
1.78940	-16.52316	11.27051
1.79360	-16.45724	11.27051
1.79779	-16.45724	11.27051
1.80198	-16.41330	11.27051
1.80616	-16.34738	11.27051
1.81035	-16.28146	11.27051
1.81453	-16.23752	11.27051
1.81889	-16.17160	11.27051
1.82312	-16.12765	11.27051
1.82731	-16.12765	11.27051
1.83149	-16.03976	11.27051
1.83568	-15.99582	11.27051
1.83986	-15.92990	11.27051
1.84404	-15.86398	11.27051
1.84822	-15.82004	11.27051
1.85251	-15.82004	11.27051
1.85671	-15.73214	11.27051
1.86091	-15.71017	11.27051
1.86509	-15.64425	11.27051
1.86928	-15.57834	11.27051
1.87346	-15.51242	11.27051
1.87765	-15.51242	11.27051
1.88190	-15.46847	11.27051
1.88615	-15.40256	11.27051
1.89034	-15.33664	11.27051
1.89452	-15.27072	11.27051
1.89871	-15.22677	11.27051
1.90289	-15.18283	11.27051
1.90708	-15.18283	11.27051
1.91126	-15.11691	11.27051
1.91554	-15.05099	11.27051
1.91986	-15.00705	11.27051
1.92404	-14.94113	11.27051
1.92822	-14.87521	11.27051
1.93241	-14.87521	11.27051
1.93659	-14.83127	11.27051
1.94077	-14.76535	11.27051
1.94518	-14.72140	11.27051
1.94939	-14.65548	11.27051
1.95358	-14.61154	11.27051
1.95776	-14.61154	11.27051
1.96194	-14.54562	11.27051
1.96613	-14.47970	11.27051
1.97031	-14.43576	11.27051
1.97456	-14.36984	11.27051
1.97883	-14.36984	11.27051
1.98303	-14.32589	11.27051
1.98722	-14.25998	11.27051
1.99141	-14.23800	11.27051
1.99559	-14.17209	11.27051
1.99978	-14.12814	11.27051
2.00396	-14.06222	11.27051
2.00825	-14.06222	11.27051
2.01246	-14.01828	11.27051
2.01666	-13.97433	11.27051
2.02096	-13.93039	11.27051
2.02515	-13.86447	11.27051
2.02933	-13.82052	11.27051
2.03352	-13.77658	11.27051
2.03777	-13.77658	11.27051
2.04202	-13.73263	11.27051
2.04622	-13.66672	11.27051
2.05040	-13.62277	11.27051
2.05459	-13.57882	11.27051
2.05877	-13.57882	11.27051
2.06296	-13.53488	11.27051
2.06714	-13.46896	11.27051
2.07143	-13.44699	11.27051
2.07564	-13.40304	11.27051
2.07983	-13.35910	11.27051
2.08401	-13.29318	11.27051
2.08820	-13.29318	11.27051
2.09238	-13.27121	11.27051
2.09657	-13.22726	11.27051
2.10082	-13.18332	11.27051
2.10508	-13.13937	11.27051
2.10927	-13.09543	11.27051
2.11346	-13.05148	11.27051
2.11764	-13.05148	11.27051
2.12193	-13.00754	11.27051
2.12611	-12.96359	11.27051
2.13030	-12.91964	11.27051
2.13458	-12.89767	11.27051
2.13879	-12.89767	11.27051
2.14298	-12.85373	11.27051
2.14716	-12.80978	11.27051
2.15135	-12.76584	11.27051
2.15553	-12.74386	11.27051
2.15972	-12.69992	11.27051
2.16399	-12.67795	11.27051
2.16825	-12.67795	11.27051
2.17245	-12.63400	11.27051
2.17663	-12.59006	11.27051
2.18082	-12.56808	11.27051
2.18501	-12.52414	11.27051
2.18920	-12.50216	11.27051
2.19338	-12.50216	11.27051
2.19767	-12.45822	11.27051
2.20188	-12.41427	11.27051
2.20607	-12.39230	11.27051
2.21025	-12.37033	11.27051
2.21444	-12.37033	11.27051
2.21863	-12.34836	11.27051
2.22291	-12.30441	11.27051
2.22731	-12.28244	11.27051
2.23154	-12.23849	11.27051
2.23572	-12.21652	11.27051
2.23991	-12.21652	11.27051
2.24410	-12.19455	11.27051
2.24828	-12.17257	11.27051
2.25247	-12.15060	11.27051
2.25676	-12.12863	11.27051
2.26105	-12.10666	11.27051
2.26526	-12.08468	11.27051
2.26946	-12.08468	11.27051
2.27364	-12.04074	11.27051
2.27783	-12.01877	11.27051
2.28201	-12.01877	11.27051
2.28619	-11.99679	11.27051
2.29053	-11.97482	11.27051
2.29474	-11.95285	11.27051
2.29894	-11.95285	11.27051
2.30312	-11.93088	11.27051
2.30731	-11.90890	11.27051
2.31149	-11.88693	11.27051
2.31568	-11.86496	11.27051
2.31987	-11.86496	11.27051
2.32426	-11.86496	11.27051
2.32846	-11.84298	11.27051
2.33265	-11.84298	11.27051
2.33684	-11.82101	11.27051
2.34102	-11.82101	11.27051
2.34521	-11.79904	11.27051
2.34939	-11.79904	11.27051
2.35366	-11.77707	11.27051
2.35786	-11.77707	11.27051
2.36205	-11.75509	11.27051
2.36624	-11.75509	11.27051
2.37042	-11.73312	11.27051
2.37459	-11.71115	11.27051
2.37875	-11.71115	11.27051
2.38296	-11.71115	11.27051
2.38717	-11.71115	11.27051
2.39134	-11.71115	11.27051
2.39550	-11.68918	11.27051
2.39967	-11.68918	11.27051
2.40383	-11.68918	11.27051
2.40799	-11.68918	11.27051
2.41216	-11.66720	11.27051
2.41640	-11.68918	11.27051
2.42058	-11.66720	11.27051
2.42484	-11.66720	11.27051
2.42900	-11.66720	11.27051
2.43316	-11.66720	11.27051
2.43733	-11.64523	11.27051
2.44149	-11.66720	11.27051
2.44569	-11.64523	11.27051
2.44990	-11.64523	11.27051
2.45407	-11.66720	11.27051
2.45823	-11.64523	11.27051
2.46240	-11.64523	11.27051
2.46656	-11.66720	11.27051
2.47075	-11.64523	11.27051
2.47493	-11.64523	11.27051
2.47920	-11.66720	11.27051
2.48341	-11.66720	11.27051
2.48759	-11.66720	11.27051
2.49178	-11.66720	11.27051
2.49596	-11.66720	11.27051
2.50015	-11.66720	11.27051
2.50433	-11.68918	11.27051
2.50855	-11.68918	11.27051
2.51281	-11.71115	11.27051
2.51702	-11.68918	11.27051
2.52121	-11.71115	11.27051
2.52549	-11.71115	11.27051
2.52968	-11.71115	11.27051
2.53386	-11.73312	11.27051
2.53804	-11.73312	11.27051
2.54233	-11.75509	11.27051
2.54654	-11.75509	11.27051
2.55072	-11.77707	11.27051
2.55490	-11.77707	11.27051
2.55909	-11.79904	11.27051
2.56327	-11.79904	11.27051
2.56745	-11.79904	11.27051
2.57171	-11.82101	11.27051
2.57598	-11.82101	11.27051
2.58017	-11.84298	11.27051
2.58436	-11.86496	11.27051
2.58854	-11.86496	11.27051
2.59272	-11.88693	11.27051
2.59692	-11.90890	11.27051
2.60110	-11.90890	11.27051
2.60540	-11.90890	11.27051
2.60960	-11.95285	11.27051
2.61378	-11.95285	11.27051
2.61797	-11.97482	11.27051
2.62216	-11.99679	11.27051
2.62645	-12.01877	11.27051
2.63064	-12.04074	11.27051
2.63502	-12.04074	11.27051
2.63924	-12.04074	11.27051
2.64342	-12.06271	11.27051
2.64761	-12.08468	11.27051
2.65180	-12.10666	11.27051
2.65599	-12.12863	11.27051
2.66017	-12.12863	11.27051
2.66449	-12.15060	11.27051
2.66879	-12.19455	11.27051
2.67301	-12.21652	11.27051
2.67720	-12.23849	11.27051
2.68138	-12.26047	11.27051
2.68557	-12.26047	11.27051
2.68975	-12.28244	11.27051
2.69393	-12.30441	11.27051
2.69822	-12.32638	11.27051
2.70242	-12.37033	11.27051
2.70661	-12.39230	11.27051
2.71079	-12.39230	11.27051
2.71497	-12.41427	11.27051
2.71916	-12.45822	11.27051
2.72334	-12.48019	11.27051
2.72770	-12.50216	11.27051
2.73197	-12.52414	11.27051
2.73616	-12.52414	11.27051
2.74034	-12.56808	11.27051
2.74453	-12.59006	11.27051
2.74871	-12.63400	11.27051
2.75291	-12.65597	11.27051
2.75709	-12.67795	11.27051
2.76137	-12.67795	11.27051
2.76563	-12.72189	11.27051
2.76982	-12.74386	11.27051
2.77400	-12.78781	11.27051
2.77818	-12.83175	11.27051
2.78237	-12.85373	11.27051
2.78656	-12.85373	11.27051
2.79084	-12.89767	11.27051
2.79511	-12.91964	11.27051
2.79932	-12.96359	11.27051
2.80351	-12.98556	11.27051
2.80769	-13.02951	11.27051
2.81188	-13.07345	11.27051
2.81606	-13.07345	11.27051
2.82027	-13.11740	11.27051
2.82456	-13.13937	11.27051
2.82886	-13.16134	11.27051
2.83302	-13.20529	11.27051
2.83721	-13.20529	11.27051
2.84139	-13.27121	11.27051
2.84558	-13.27121	11.27051
2.84977	-13.33713	11.27051
2.85407	-13.35910	11.27051
2.85827	-13.40304	11.27051
2.86246	-13.44699	11.27051
2.86664	-13.44699	11.27051
2.87082	-13.46896	11.27051
2.87501	-13.51291	11.27051
2.87919	-13.55685	11.27051
2.88344	-13.57882	11.27051
2.88770	-13.62277	11.27051
2.89189	-13.66672	11.27051
2.89608	-13.66672	11.27051
2.90026	-13.71066	11.27051
2.90445	-13.75461	11.27051
2.90863	-13.79855	11.27051
2.91281	-13.82052	11.27051
2.91712	-13.86447	11.27051
2.92132	-13.86447	11.27051
2.92550	-13.90841	11.27051
2.92979	-13.95236	11.27051
2.93397	-13.99631	11.27051
2.93816	-14.04025	11.27051
2.94234	-14.08420	11.27051
2.94673	-14.10617	11.27051
2.95094	-14.10617	11.27051
2.95512	-14.15011	11.27051
2.95931	-14.19406	11.27051
2.96349	-14.23800	11.27051
2.96767	-14.28195	11.27051
2.97186	-14.28195	11.27051
2.97616	-14.32589	11.27051
2.98044	-14.36984	11.27051
2.98464	-14.41379	11.27051
2.98882	-14.45773	11.27051
2.99301	-14.50168	11.27051
2.99720	-14.50168	11.27051
3.00138	-14.54562	11.27051
3.00557	-14.58957	11.27051
3.00985	-14.63351	11.27051
3.01411	-14.67746	11.27051
3.01830	-14.72140	11.27051
3.02249	-14.72140	11.27051
3.02667	-14.76535	11.27051
3.03096	-14.80929	11.27051
3.03514	-14.83127	11.27051
3.03943	-14.89718	11.27051
3.04364	-14.91916	11.27051
3.04785	-14.91916	11.27051
3.05203	-14.96310	11.27051
3.05621	-15.00705	11.27051
3.06042	-15.05099	11.27051
3.06462	-15.09494	11.27051
3.06892	-15.13888	11.27051
3.07320	-15.18283	11.27051
3.07740	-15.18283	11.27051
3.08158	-15.22677	11.27051
3.08577	-15.27072	11.27051
3.08995	-15.31466	11.27051
3.09413	-15.35861	11.27051
3.09832	-15.40256	11.27051
3.10261	-15.42453	11.27051
3.10683	-15.42453	11.27051
3.11102	-15.49045	11.27051
3.11523	-15.51242	11.27051
3.11942	-15.55636	11.27051
3.12360	-15.60031	11.27051
3.12778	-15.60031	11.27051
3.13219	-15.64425	11.27051
3.13642	-15.68820	11.27051
3.14061	-15.73214	11.27051
3.14479	-15.75412	11.27051
3.14900	-15.82004	11.27051
3.15319	-15.86398	11.27051
3.15738	-15.86398	11.27051
3.16159	-15.90793	11.27051
3.16591	-15.92990	11.27051
3.17013	-15.97384	11.27051
3.17432	-16.01779	11.27051
3.17850	-16.06173	11.27051
3.18273	-16.10568	11.27051
3.18692	-16.10568	11.27051
3.19110	-16.12765	11.27051
3.19544	-16.19357	11.27051
3.19968	-16.21554	11.27051
3.20387	-16.25949	11.27051
3.20805	-16.30343	11.27051
3.21225	-16.30343	11.27051
3.21644	-16.32541	11.27051
3.22062	-16.39132	11.27051
3.22492	-16.41330	11.27051
3.22920	-16.45724	11.27051
3.23351	-16.45724	11.27051
3.23770	-16.50119	11.27051
3.24188	-16.54513	11.27051
3.24607	-16.58908	11.27051
3.25025	-16.61105	11.27051
3.25444	-16.65500	11.27051
3.25873	-16.65500	11.27051
3.26294	-16.69894	11.27051
3.26712	-16.72091	11.27051
3.27131	-16.76486	11.27051
3.27550	-16.80881	11.27051
3.27969	-16.83078	11.27051
3.28387	-16.87472	11.27051
3.28818	-16.87472	11.27051
3.29245	-16.91867	11.27051
3.29665	-16.94064	11.27051
3.30084	-16.98459	11.27051
3.30502	-17.02853	11.27051
3.30921	-17.05050	11.27051
3.31339	-17.05050	11.27051
3.31758	-17.09445	11.27051
3.32187	-17.11642	11.27051
3.32609	-17.16037	11.27051
3.33028	-17.18234	11.27051
3.33458	-17.22629	11.27051
3.33876	-17.22629	11.27051
3.34294	-17.27023	11.27051
3.34713	-17.29220	11.27051
3.35156	-17.33615	11.27051
3.35577	-17.35812	11.27051
3.35996	-17.40207	11.27051
3.36414	-17.42404	11.27051
3.36833	-17.42404	11.27051
3.37251	-17.44601	11.27051
3.37671	-17.48996	11.27051
3.38099	-17.51193	11.27051
3.38528	-17.55588	11.27051
3.38947	-17.57785	11.27051
3.39366	-17.59982	11.27051
3.39784	-17.59982	11.27051
3.40203	-17.62179	11.27051
3.40621	-17.66574	11.27051
3.41039	-17.68771	11.27051
3.41469	-17.70968	11.27051
3.41889	-17.75363	11.27051
3.42308	-17.75363	11.27051
3.42726	-17.77560	11.27051
3.43145	-17.79757	11.27051
3.43574	-17.84152	11.27051
3.43992	-17.84152	11.27051
3.44418	-17.88547	11.27051
3.44844	-17.88547	11.27051
3.45263	-17.90744	11.27051
3.45682	-17.92941	11.27051
3.46101	-17.95138	11.27051
3.46519	-17.99533	11.27051
3.46938	-17.99533	11.27051
3.47356	-17.99533	11.27051
3.47786	-18.03927	11.27051
3.48206	-18.06125	11.27051
3.48625	-18.08322	11.27051
3.49043	-18.08322	11.27051
3.49462	-18.08322	11.27051
3.49880	-18.10519	11.27051
3.50299	-18.12716	11.27051
3.50724	-18.17111	11.27051
3.51150	-18.17111	11.27051
3.51570	-18.21506	11.27051
3.51988	-18.21506	11.27051
3.52407	-18.21506	11.27051
3.52825	-18.23703	11.27051
3.53245	-18.25900	11.27051
3.53674	-18.25900	11.27051
3.54103	-18.28097	11.27051
3.54531	-18.30295	11.27051
3.54954	-18.30295	11.27051
3.55374	-18.32492	11.27051
3.55792	-18.32492	11.27051
3.56212	-18.34689	11.27051
3.56632	-18.36886	11.27051
3.57061	-18.36886	11.27051
3.57483	-18.39084	11.27051
3.57908	-18.39084	11.27051
3.58329	-18.41281	11.27051
3.58749	-18.41281	11.27051
3.59167	-18.43478	11.27051
3.59589	-18.43478	11.27051
3.60019	-18.45675	11.27051
3.60444	-18.45675	11.27051
3.60864	-18.45675	11.27051
3.61287	-18.47873	11.27051
3.61703	-18.47873	11.27051
3.62121	-18.50070	11.27051
3.62540	-18.50070	11.27051
3.62959	-18.50070	11.27051
3.63388	-18.52267	11.27051
3.63819	-18.52267	11.27051
3.64238	-18.50070	11.27051
3.64658	-18.52267	11.27051
3.65077	-18.54464	11.27051
3.65496	-18.54464	11.27051
3.65915	-18.54464	11.27051
3.66345	-18.54464	11.27051
3.66766	-18.54464	11.27051
3.67185	-18.56662	11.27051
3.67604	-18.56662	11.27051
3.68024	-18.56662	11.27051
3.68443	-18.56662	11.27051
3.68862	-18.56662	11.27051
3.69291	-18.56662	11.27051
3.69720	-18.58859	11.27051
3.70140	-18.56662	11.27051
3.70559	-18.56662	11.27051
3.70978	-18.56662	11.27051
3.71397	-18.56662	11.27051
3.71816	-18.56662	11.27051
3.72234	-18.56662	11.27051
3.72663	-18.56662	11.27051
3.73089	-18.56662	11.27051
3.73508	-18.56662	11.27051
3.73937	-18.56662	11.27051
3.74355	-18.56662	11.27051
3.74774	-18.56662	11.27051
3.75192	-18.56662	11.27051
3.75622	-18.54464	11.27051
3.76043	-18.54464	11.27051
3.76465	-18.54464	11.27051
3.76884	-18.54464	11.27051
3.77302	-18.54464	11.27051
3.77721	-18.52267	11.27051
3.78141	-18.54464	11.27051
3.78571	-18.52267	11.27051
3.78997	-18.52267	11.27051
3.79417	-18.52267	11.27051
3.79838	-18.52267	11.27051
3.80257	-18.50070	11.27051
3.80678	-18.47873	11.27051
3.81097	-18.47873	11.27051
3.81520	-18.47873	11.27051
3.81954	-18.47873	11.27051
3.82377	-18.47873	11.27051
3.82797	-18.45675	11.27051
3.83220	-18.43478	11.27051
3.83643	-18.43478	11.27051
3.84076	-18.43478	11.27051
3.84496	-18.41281	11.27051
3.84928	-18.41281	11.27051
3.85353	-18.39084	11.27051
3.85774	-18.39084	11.27051
3.86193	-18.36886	11.27051
3.86614	-18.34689	11.27051
3.87035	-18.34689	11.27051
3.87455	-18.34689	11.27051
3.87894	-18.32492	11.27051
3.88320	-18.32492	11.27051
3.88740	-18.30295	11.27051
3.89159	-18.28097	11.27051
3.89579	-18.28097	11.27051
3.89998	-18.28097	11.27051
3.90418	-18.25900	11.27051
3.90838	-18.25900	11.27051
3.91274	-18.21506	11.27051
3.91700	-18.21506	11.27051
3.92121	-18.19308	11.27051
3.92540	-18.19308	11.27051
3.92961	-18.17111	11.27051
3.93382	-18.14914	11.27051
3.93802	-18.12716	11.27051
3.94246	-18.10519	11.27051
3.94672	-18.10519	11.27051
3.95093	-18.08322	11.27051
3.95512	-18.08322	11.27051
3.95930	-18.06125	11.27051
3.96350	-18.03927	11.27051
3.96769	-18.01730	11.27051
3.97196	-17.99533	11.27051
3.97620	-17.99533	11.27051
3.98045	-17.99533	11.27051
3.98464	-17.97336	11.27051
3.98883	-17.95138	11.27051
3.99302	-17.92941	11.27051
3.99722	-17.90744	11.27051
4.00140	-17.90744	11.27051
4.00571	-17.88547	11.27051
4.00993	-17.86349	11.27051
4.01415	-17.84152	11.27051
4.01834	-17.81955	11.27051
4.02253	-17.79757	11.27051
4.02672	-17.79757	11.27051
4.03092	-17.77560	11.27051
4.03521	-17.75363	11.27051
4.03943	-17.73166	11.27051
4.04374	-17.70968	11.27051
4.04795	-17.68771	11.27051
4.05214	-17.66574	11.27051
4.05632	-17.66574	11.27051
4.06051	-17.64377	11.27051
4.06479	-17.62179	11.27051
4.06909	-17.59982	11.27051
4.07329	-17.57785	11.27051
4.07747	-17.55588	11.27051
4.08166	-17.53390	11.27051
4.08585	-17.53390	11.27051
4.09003	-17.51193	11.27051
4.09421	-17.46798	11.27051
4.09852	-17.46798	11.27051
4.10273	-17.42404	11.27051
4.10693	-17.42404	11.27051
4.11113	-17.42404	11.27051
4.11532	-17.38009	11.27051
4.11951	-17.35812	11.27051
4.12371	-17.33615	11.27051
4.12797	-17.31418	11.27051
4.13224	-17.29220	11.27051
4.13644	-17.29220	11.27051
4.14064	-17.27023	11.27051
4.14495	-17.24826	11.27051
4.14915	-17.22629	11.27051
4.15334	-17.20431	11.27051
4.15763	-17.16037	11.27051
4.16191	-17.13839	11.27051
4.16614	-17.13839	11.27051
4.17034	-17.11642	11.27051
4.17454	-17.09445	11.27051
4.17880	-17.07248	11.27051
4.18301	-17.05050	11.27051
4.18721	-17.00656	11.27051
4.19150	-17.00656	11.27051
4.19585	-16.98459	11.27051
4.20005	-16.96261	11.27051
4.20425	-16.94064	11.27051
4.20846	-16.91867	11.27051
4.21267	-16.89670	11.27051
4.21690	-16.87472	11.27051
4.22122	-16.87472	11.27051
4.22543	-16.83078	11.27051
4.22966	-16.80881	11.27051
4.23387	-16.78683	11.27051
4.23809	-16.76486	11.27051
4.24229	-16.74289	11.27051
4.24662	-16.74289	11.27051
4.25093	-16.69894	11.27051
4.25517	-16.67697	11.27051
4.25938	-16.65500	11.27051
4.26362	-16.63302	11.27051
4.26782	-16.58908	11.27051
4.27201	-16.58908	11.27051
4.27620	-16.56711	11.27051
4.28040	-16.52316	11.27051
4.28470	-16.50119	11.27051
4.28895	-16.47922	11.27051
4.29314	-16.45724	11.27051
4.29735	-16.45724	11.27051
4.30154	-16.43527	11.27051
4.30575	-16.39132	11.27051
4.30994	-16.36935	11.27051
4.31429	-16.34738	11.27051
4.31853	-16.30343	11.27051
4.32272	-16.30343	11.27051
4.32691	-16.28146	11.27051
4.33111	-16.25949	11.27051
4.33530	-16.23752	11.27051
4.33949	-16.19357	11.27051
4.34377	-16.17160	11.27051
4.34819	-16.14963	11.27051
4.35239	-16.14963	11.27051
4.35657	-16.10568	11.27051
4.36076	-16.08371	11.27051
4.36497	-16.03976	11.27051
4.36916	-16.01779	11.27051
4.37334	-15.99582	11.27051
4.37762	-15.95187	11.27051
4.38188	-15.95187	11.27051
4.38608	-15.92990	11.27051
4.39027	-15.90793	11.27051
4.39446	-15.88595	11.27051
4.39867	-15.84201	11.27051
4.40286	-15.84201	11.27051
4.40717	-15.82004	11.27051
4.41141	-15.77609	11.27051
4.41564	-15.75412	11.27051
4.41984	-15.73214	11.27051
4.42402	-15.71017	11.27051
4.42821	-15.66623	11.27051
4.43241	-15.66623	11.27051
4.43672	-15.64425	11.27051
4.44099	-15.62228	11.27051
4.44526	-15.57834	11.27051
4.44957	-15.55636	11.27051
4.45376	-15.51242	11.27051
4.45795	-15.51242	11.27051
4.46216	-15.49045	11.27051
4.46635	-15.44650	11.27051
4.47063	-15.42453	11.27051
4.47486	-15.40256	11.27051
4.47910	-15.35861	11.27051
4.48330	-15.33664	11.27051
4.48751	-15.33664	11.27051
4.49170	-15.31466	11.27051
4.49588	-15.29269	11.27051
4.50031	-15.24875	11.27051
4.50453	-15.22677	11.27051
4.50874	-15.20480	11.27051
4.51295	-15.20480	11.27051
4.51714	-15.16086	11.27051
4.52134	-15.13888	11.27051
4.52553	-15.09494	11.27051
4.52980	-15.07297	11.27051
4.53410	-15.05099	11.27051
4.53830	-15.05099	11.27051
4.54249	-15.00705	11.27051
4.54668	-14.98507	11.27051
4.55099	-14.96310	11.27051
4.55518	-14.94113	11.27051
4.55937	-14.89718	11.27051
4.56368	-14.89718	11.27051
4.56789	-14.87521	11.27051
4.57208	-14.85324	11.27051
4.57627	-14.83127	11.27051
4.58046	-14.78732	11.27051
4.58465	-14.76535	11.27051
4.58884	-14.74338	11.27051
4.59329	-14.74338	11.27051
4.59752	-14.72140	11.27051
4.60171	-14.67746	11.27051
4.60592	-14.65548	11.27051
4.61012	-14.63351	11.27051
4.61432	-14.61154	11.27051
4.61851	-14.61154	11.27051
4.62279	-14.56759	11.27051
4.62708	-14.54562	11.27051
4.63129	-14.52365	11.27051
4.63548	-14.50168	11.27051
4.63967	-14.45773	11.27051
4.64387	-14.43576	11.27051
4.64806	-14.43576	11.27051
4.65237	-14.41379	11.27051
4.65669	-14.39181	11.27051
4.66090	-14.36984	11.27051
4.66510	-14.32589	11.27051
4.66930	-14.30392	11.27051
4.67349	-14.28195	11.27051
4.67768	-14.28195	11.27051
4.68187	-14.25998	11.27051
4.68630	-14.23800	11.27051
4.69052	-14.21603	11.27051
4.69471	-14.19406	11.27051
4.69891	-14.19406	11.27051
4.70309	-14.15011	11.27051
4.70730	-14.12814	11.27051
4.71150	-14.12814	11.27051
4.71576	-14.08420	11.27051
4.72005	-14.06222	11.27051
4.72424	-14.04025	11.27051
4.72843	-14.04025	11.27051
4.73262	-14.01828	11.27051
4.73681	-13.99631	11.27051
4.74100	-13.97433	11.27051
4.74519	-13.93039	11.27051
4.74949	-13.93039	11.27051
4.75380	-13.93039	11.27051
4.75799	-13.90841	11.27051
4.76218	-13.86447	11.27051
4.76636	-13.86447	11.27051
4.77055	-13.84250	11.27051
4.77473	-13.84250	11.27051
4.77924	-13.82052	11.27051
4.78346	-13.79855	11.27051
4.78765	-13.77658	11.27051
4.79185	-13.75461	11.27051
4.79606	-13.73263	11.27051
4.80026	-13.73263	11.27051
4.80446	-13.68869	11.27051
4.80875	-13.68869	11.27051
4.81307	-13.66672	11.27051
4.81727	-13.64474	11.27051
4.82146	-13.62277	11.27051
4.82565	-13.62277	11.27051
4.82986	-13.62277	11.27051
4.83406	-13.60080	11.27051
4.83825	-13.57882	11.27051
4.84253	-13.55685	11.27051
4.84681	-13.55685	11.27051
4.85101	-13.53488	11.27051
4.85530	-13.51291	11.27051
4.85951	-13.51291	11.27051
4.86371	-13.49093	11.27051
4.86791	-13.46896	11.27051
4.87220	-13.44699	11.27051
4.87646	-13.44699	11.27051
4.88069	-13.42502	11.27051
4.88490	-13.42502	11.27051
4.88909	-13.40304	11.27051
4.89329	-13.40304	11.27051
4.89750	-13.38107	11.27051
4.90181	-13.35910	11.27051
4.90608	-13.33713	11.27051
4.91032	-13.33713	11.27051
4.91455	-13.33713	11.27051
4.91875	-13.33713	11.27051
4.92296	-13.31515	11.27051
4.92715	-13.29318	11.27051
4.93135	-13.27121	11.27051
4.93564	-13.27121	11.27051
4.93985	-13.27121	11.27051
4.94405	-13.27121	11.27051
4.94825	-13.24923	11.27051
4.95244	-13.22726	11.27051
4.95677	-13.22726	11.27051
4.96097	-13.20529	11.27051
4.96528	-13.20529	11.27051
4.96950	-13.20529	11.27051
4.97369	-13.20529	11.27051
4.97788	-13.18332	11.27051
4.98208	-13.18332	11.27051
4.98626	-13.16134	11.27051
4.99045	-13.16134	11.27051
4.99471	-13.16134	11.27051
4.99900	-13.16134	11.27051
5.00320	-13.13937	11.27051
5.00741	-13.13937	11.27051
5.01161	-13.13937	11.27051
5.01580	-13.11740	11.27051
5.01999	-13.11740	11.27051
5.02418	-13.11740	11.27051
5.02848	-13.11740	11.27051
5.03269	-13.11740	11.27051
5.03688	-13.09543	11.27051
5.04102	-13.09543	11.27051
5.04523	-13.09543	11.27051
5.04942	-13.09543	11.27051
5.05360	-13.09543	11.27051
5.05797	-13.07345	11.27051
5.06223	-13.07345	11.27051
5.06642	-13.09543	11.27051
5.07060	-13.09543	11.27051
5.07479	-13.09543	11.27051
5.07897	-13.09543	11.27051
5.08316	-13.07345	11.27051
5.08734	-13.09543	11.27051
5.09164	-13.07345	11.27051
5.09585	-13.07345	11.27051
5.10004	-13.07345	11.27051
5.10423	-13.09543	11.27051
5.10843	-13.09543	11.27051
5.11263	-13.09543	11.27051
5.11682	-13.07345	11.27051
5.12110	-13.07345	11.27051
5.12537	-13.07345	11.27051
5.12957	-13.09543	11.27051
5.13376	-13.09543	11.27051
5.13795	-13.09543	11.27051
5.14213	-13.09543	11.27051
5.14632	-13.09543	11.27051
5.15050	-13.09543	11.27051
5.15480	-13.11740	11.27051
5.15911	-13.11740	11.27051
5.16331	-13.11740	11.27051
5.16750	-13.11740	11.27051
5.17169	-13.11740	11.27051
5.17587	-13.11740	11.27051
5.18006	-13.13937	11.27051
5.18451	-13.13937	11.27051
5.18873	-13.13937	11.27051
5.19294	-13.16134	11.27051
5.19713	-13.16134	11.27051
5.20133	-13.16134	11.27051
5.20552	-13.16134	11.27051
5.20973	-13.16134	11.27051
5.21404	-13.18332	11.27051
5.21835	-13.18332	11.27051
5.22256	-13.20529	11.27051
5.22676	-13.20529	11.27051
5.23097	-13.20529	11.27051
5.23519	-13.20529	11.27051
5.23939	-13.22726	11.27051
5.24359	-13.22726	11.27051
5.24791	-13.24923	11.27051
5.25212	-13.24923	11.27051
5.25632	-13.27121	11.27051
5.26062	-13.27121	11.27051
5.26482	-13.27121	11.27051
5.26902	-13.29318	11.27051
5.27322	-13.29318	11.27051
5.27767	-13.29318	11.27051
5.28189	-13.31515	11.27051
5.28609	-13.31515	11.27051
5.29028	-13.33713	11.27051
5.29447	-13.33713	11.27051
5.29866	-13.35910	11.27051
5.30284	-13.35910	11.27051
5.30713	-13.35910	11.27051
5.31141	-13.38107	11.27051
5.31562	-13.38107	11.27051
5.31981	-13.40304	11.27051
5.32399	-13.40304	11.27051
5.32818	-13.42502	11.27051
5.33236	-13.42502	11.27051
5.33655	-13.42502	11.27051
5.34086	-13.44699	11.27051
5.34505	-13.46896	11.27051
5.34923	-13.46896	11.27051
5.35342	-13.49093	11.27051
5.35761	-13.49093	11.27051
5.36189	-13.51291	11.27051
5.36608	-13.51291	11.27051
5.37052	-13.51291	11.27051
5.37474	-13.53488	11.27051
5.37893	-13.55685	11.27051
5.38313	-13.55685	11.27051
5.38731	-13.57882	11.27051
5.39150	-13.57882	11.27051
5.39568	-13.60080	11.27051
5.39995	-13.60080	11.27051
5.40423	-13.62277	11.27051
5.40846	-13.64474	11.27051
5.41266	-13.64474	11.27051
5.41685	-13.66672	11.27051
5.42102	-13.66672	11.27051
5.42521	-13.68869	11.27051
5.42939	-13.68869	11.27051
5.43370	-13.71066	11.27051
5.43791	-13.71066	11.27051
5.44210	-13.73263	11.27051
5.44629	-13.73263	11.27051
5.45047	-13.75461	11.27051
5.45469	-13.75461	11.27051
5.45889	-13.77658	11.27051
5.46328	-13.79855	11.27051
5.46755	-13.79855	11.27051
5.47174	-13.79855	11.27051
5.47593	-13.82052	11.27051
5.48012	-13.84250	11.27051
5.48431	-13.84250	11.27051
5.48849	-13.86447	11.27051
5.49268	-13.88644	11.27051
5.49700	-13.90841	11.27051
5.50120	-13.90841	11.27051
5.50539	-13.90841	11.27051
5.50959	-13.93039	11.27051
5.51379	-13.95236	11.27051
5.51798	-13.97433	11.27051
5.52216	-13.97433	11.27051
5.52661	-13.97433	11.27051
5.53083	-13.99631	11.27051
5.53503	-14.01828	11.27051
5.53922	-14.01828	11.27051
5.54341	-14.04025	11.27051
5.54760	-14.04025	11.27051
5.55179	-14.06222	11.27051
5.55606	-14.08420	11.27051
5.56036	-14.08420	11.27051
5.56468	-14.10617	11.27051
5.56887	-14.12814	11.27051
5.57303	-14.12814	11.27051
5.57722	-14.12814	11.27051
5.58142	-14.15011	11.27051
5.58561	-14.17209	11.27051
5.58992	-14.17209	11.27051
5.59413	-14.19406	11.27051
5.59833	-14.21603	11.27051
5.60252	-14.21603	11.27051
5.60671	-14.23800	11.27051
5.61091	-14.23800	11.27051
5.61511	-14.25998	11.27051
5.61938	-14.28195	11.27051
5.62364	-14.28195	11.27051
5.62784	-14.30392	11.27051
5.63203	-14.30392	11.27051
5.63622	-14.32589	11.27051
5.64041	-14.32589	11.27051
5.64460	-14.34787	11.27051
5.64879	-14.36984	11.27051
5.65310	-14.36984	11.27051
5.65731	-14.39181	11.27051
5.66151	-14.39181	11.27051
5.66581	-14.41379	11.27051
5.67000	-14.41379	11.27051
5.67418	-14.43576	11.27051
5.67836	-14.45773	11.27051
5.68276	-14.45773	11.27051
5.68698	-14.45773	11.27051
5.69117	-14.47970	11.27051
5.69537	-14.50168	11.27051
5.69956	-14.50168	11.27051
5.70375	-14.52365	11.27051
5.70797	-14.52365	11.27051
5.71225	-14.52365	11.27051
5.71654	-14.54562	11.27051
5.72075	-14.56759	11.27051
5.72495	-14.58957	11.27051
5.72915	-14.58957	11.27051
5.73334	-14.61154	11.27051
5.73753	-14.61154	11.27051
5.74175	-14.61154	11.27051
5.74607	-14.63351	11.27051
5.75029	-14.63351	11.27051
5.75448	-14.65548	11.27051
5.75869	-14.65548	11.27051
5.76290	-14.65548	11.27051
5.76722	-14.67746	11.27051
5.77142	-14.69943	11.27051
5.77572	-14.69943	11.27051
5.77998	-14.72140	11.27051
5.78417	-14.72140	11.27051
5.78839	-14.72140	11.27051
5.79259	-14.74338	11.27051
5.79681	-14.76535	11.27051
5.80101	-14.76535	11.27051
5.80534	-14.78732	11.27051
5.80962	-14.80929	11.27051
5.81386	-14.80929	11.27051
5.81805	-14.80929	11.27051
5.82225	-14.80929	11.27051
5.82645	-14.83127	11.27051
5.83065	-14.83127	11.27051
5.83484	-14.85324	11.27051
5.83913	-14.85324	11.27051
5.84334	-14.85324	11.27051
5.84755	-14.87521	11.27051
5.85175	-14.87521	11.27051
5.85594	-14.89718	11.27051
5.86012	-14.89718	11.27051
5.86431	-14.89718	11.27051
5.86868	-14.91916	11.27051
5.87295	-14.91916	11.27051
5.87715	-14.91916	11.27051
5.88134	-14.94113	11.27051
5.88552	-14.96310	11.27051
5.88971	-14.96310	11.27051
5.89390	-14.96310	11.27051
5.89808	-14.96310	11.27051
5.90238	-14.96310	11.27051
5.90660	-14.98507	11.27051
5.91080	-14.98507	11.27051
5.91501	-15.00705	11.27051
5.91920	-15.00705	11.27051
5.92339	-15.00705	11.27051
5.92758	-15.00705	11.27051
5.93199	-15.02902	11.27051
5.93621	-15.02902	11.27051
5.94041	-15.02902	11.27051
5.94461	-15.05099	11.27051
5.94880	-15.05099	11.27051
5.95300	-15.05099	11.27051
5.95720	-15.05099	11.27051
5.96147	-15.05099	11.27051
5.96575	-15.07297	11.27051
5.97007	-15.07297	11.27051
5.97426	-15.07297	11.27051
5.97845	-15.07297	11.27051
5.98265	-15.09494	11.27051
5.98684	-15.07297	11.27051
5.99103	-15.09494	11.27051
5.99532	-15.09494	11.27051
5.99953	-15.09494	11.27051
6.00373	-15.09494	11.27051
6.00794	-15.09494	11.27051
6.01214	-15.09494	11.27051
6.01634	-15.09494	11.27051
6.02053	-15.09494	11.27051
6.02496	-15.09494	11.27051
6.02919	-15.09494	11.27051
6.03339	-15.09494	11.27051
6.03758	-15.11691	11.27051
6.04177	-15.11691	11.27051
6.04596	-15.11691	11.27051
6.05015	-15.11691	11.27051
6.05442	-15.11691	11.27051
6.05869	-15.11691	11.27051
6.06290	-15.11691	11.27051
6.06710	-15.11691	11.27051
6.07140	-15.11691	11.27051
6.07559	-15.11691	11.27051
6.07978	-15.11691	11.27051
6.08397	-15.11691	11.27051
6.08827	-15.11691	11.27051
6.09248	-15.11691	11.27051
6.09668	-15.11691	11.27051
6.10089	-15.09494	11.27051
6.10509	-15.11691	11.27051
6.10930	-15.11691	11.27051
6.11350	-15.11691	11.27051
6.11791	-15.11691	11.27051
6.12214	-15.11691	11.27051
6.12633	-15.09494	11.27051
6.13053	-15.11691	11.27051
6.13472	-15.09494	11.27051
6.13891	-15.09494	11.27051
6.14310	-15.09494	11.27051
6.14737	-15.09494	11.27051
6.15164	-15.09494	11.27051
6.15585	-15.09494	11.27051
6.16006	-15.09494	11.27051
6.16426	-15.07297	11.27051
6.16845	-15.07297	11.27051
6.17276	-15.07297	11.27051
6.17697	-15.07297	11.27051
6.18128	-15.07297	11.27051
6.18550	-15.07297	11.27051
6.18971	-15.07297	11.27051
6.19390	-15.05099	11.27051
6.19811	-15.07297	11.27051
6.20230	-15.05099	11.27051
6.20650	-15.05099	11.27051
6.21083	-15.05099	11.27051
6.21510	-15.05099	11.27051
6.21931	-15.05099	11.27051
6.22350	-15.02902	11.27051
6.22769	-15.02902	11.27051
6.23189	-15.02902	11.27051
6.23611	-15.02902	11.27051
6.24039	-15.00705	11.27051
6.24469	-15.00705	11.27051
6.24892	-15.00705	11.27051
6.25312	-15.00705	11.27051
6.25732	-15.00705	11.27051
6.26153	-15.00705	11.27051
6.26572	-14.98507	11.27051
6.26991	-14.98507	11.27051
6.27429	-14.98507	11.27051
6.27857	-14.98507	11.27051
6.28276	-14.98507	11.27051
6.28694	-14.96310	11.27051
6.29113	-14.96310	11.27051
6.29532	-14.96310	11.27051
6.29950	-14.94113	11.27051
6.30394	-14.96310	11.27051
6.30822	-14.94113	11.27051
6.31242	-14.91916	11.27051
6.31661	-14.94113	11.27051
6.32081	-14.94113	11.27051
6.32501	-14.91916	11.27051
6.32920	-14.91916	11.27051
6.33347	-14.91916	11.27051
6.33775	-14.91916	11.27051
6.34195	-14.91916	11.27051
6.34615	-14.89718	11.27051
6.35035	-14.89718	11.27051
6.35454	-14.89718	11.27051
6.35873	-14.89718	11.27051
6.36292	-14.87521	11.27051
6.36722	-14.87521	11.27051
6.37143	-14.87521	11.27051
6.37574	-14.87521	11.27051
6.37995	-14.87521	11.27051
6.38415	-14.85324	11.27051
6.38834	-14.85324	11.27051
6.39253	-14.85324	11.27051
6.39698	-14.85324	11.27051
6.40120	-14.83127	11.27051
6.40540	-14.83127	11.27051
6.40961	-14.83127	11.27051
6.41381	-14.83127	11.27051
6.41801	-14.83127	11.27051
6.42221	-14.80929	11.27051
6.42648	-14.80929	11.27051
6.43074	-14.80929	11.27051
6.43494	-14.80929	11.27051
6.43913	-14.78732	11.27051
6.44332	-14.78732	11.27051
6.44750	-14.78732	11.27051
6.45169	-14.76535	11.27051
6.45587	-14.76535	11.27051
6.46017	-14.76535	11.27051
6.46439	-14.76535	11.27051
6.46858	-14.76535	11.27051
6.47276	-14.74338	11.27051
6.47706	-14.74338	11.27051
6.48125	-14.74338	11.27051
6.48544	-14.74338	11.27051
6.48987	-14.72140	11.27051
6.49409	-14.72140	11.27051
6.49828	-14.72140	11.27051
6.50249	-14.69943	11.27051
6.50668	-14.69943	11.27051
6.51089	-14.69943	11.27051
6.51509	-14.69943	11.27051
6.51938	-14.69943	11.27051
6.52366	-14.69943	11.27051
6.52787	-14.67746	11.27051
6.53206	-14.67746	11.27051
6.53625	-14.65548	11.27051
6.54045	-14.65548	11.27051
6.54464	-14.65548	11.27051
6.54883	-14.65548	11.27051
6.55314	-14.63351	11.27051
6.55735	-14.63351	11.27051
6.56155	-14.63351	11.27051
6.56574	-14.63351	11.27051
6.56993	-14.61154	11.27051
6.57412	-14.61154	11.27051
6.57842	-14.61154	11.27051
6.58283	-14.58957	11.27051
6.58705	-14.58957	11.27051
6.59124	-14.58957	11.27051
6.59543	-14.58957	11.27051
6.59962	-14.56759	11.27051
6.60381	-14.56759	11.27051
6.60800	-14.56759	11.27051
6.61227	-14.54562	11.27051
6.61653	-14.54562	11.27051
6.62073	-14.54562	11.27051
6.62493	-14.54562	11.27051
6.62912	-14.52365	11.27051
6.63331	-14.52365	11.27051
6.63749	-14.52365	11.27051
6.64168	-14.50168	11.27051
6.64596	-14.50168	11.27051
6.65017	-14.50168	11.27051
6.65436	-14.50168	11.27051
6.65855	-14.47970	11.27051
6.66273	-14.47970	11.27051
6.66692	-14.47970	11.27051
6.67111	-14.47970	11.27051
6.67536	-14.47970	11.27051
6.67973	-14.45773	11.27051
6.68393	-14.45773	11.27051
6.68812	-14.45773	11.27051
6.69231	-14.43576	11.27051
6.69649	-14.43576	11.27051
6.70068	-14.45773	11.27051
6.70487	-14.43576	11.27051
6.70915	-14.43576	11.27051
6.71337	-14.41379	11.27051
6.71756	-14.41379	11.27051
6.72174	-14.41379	11.27051
6.72593	-14.41379	11.27051
6.73011	-14.41379	11.27051
6.73431	-14.39181	11.27051
6.73857	-14.39181	11.27051
6.74281	-14.39181	11.27051
6.74703	-14.39181	11.27051
6.75122	-14.39181	11.27051
6.75541	-14.39181	11.27051
6.75959	-14.36984	11.27051
6.76379	-14.36984	11.27051
6.76797	-14.36984	11.27051
6.77225	-14.36984	11.27051
6.77647	-14.36984	11.27051
6.78078	-14.34787	11.27051
6.78498	-14.34787	11.27051
6.78916	-14.34787	11.27051
6.79335	-14.34787	11.27051
6.79753	-14.32589	11.27051
6.80194	-14.32589	11.27051
6.80616	-14.32589	11.27051
6.81038	-14.32589	11.27051
6.81458	-14.32589	11.27051
6.81878	-14.32589	11.27051
6.82297	-14.32589	11.27051
6.82716	-14.32589	11.27051
6.83143	-14.32589	11.27051
6.83571	-14.30392	11.27051
6.83992	-14.30392	11.27051
6.84411	-14.30392	11.27051
6.84832	-14.30392	11.27051
6.85252	-14.30392	11.27051
6.85672	-14.30392	11.27051
6.86092	-14.30392	11.27051
6.86528	-14.30392	11.27051
6.86949	-14.30392	11.27051
6.87369	-14.28195	11.27051
6.87790	-14.28195	11.27051
6.88220	-14.28195	11.27051
6.88639	-14.28195	11.27051
6.89058	-14.28195	11.27051
6.89539	-14.28195	11.27051
6.89960	-14.28195	11.27051
6.90378	-14.28195	11.27051
6.90798	-14.28195	11.27051
6.91219	-14.28195	11.27051
6.91638	-14.28195	11.27051
6.92057	-14.28195	11.27051
6.92483	-14.28195	11.27051
6.92918	-14.25998	11.27051
6.93341	-14.25998	11.27051
6.93762	-14.28195	11.27051
6.94183	-14.28195	11.27051
6.94605	-14.28195	11.27051
6.95026	-14.25998	11.27051
6.95609	-14.28195	11.27051
6.96041	-14.28195	11.27051
6.96463	-14.28195	11.27051
6.96884	-14.28195	11.27051
6.97305	-14.28195	11.27051
6.97725	-14.28195	11.27051
6.98145	-14.28195	11.27051
6.98590	-14.28195	11.27051
6.99019	-14.28195	11.27051
6.99440	-14.28195	11.27051
6.99861	-14.28195	11.27051
7.00280	-14.28195	11.27051
7.00699	-14.28195	11.27051
7.01119	-14.28195	11.27051
7.01537	-14.28195	11.27051
7.01972	-14.28195	11.27051
7.02393	-14.28195	11.27051
7.02814	-14.28195	11.27051
7.03234	-14.28195	11.27051
7.03653	-14.28195	11.27051
7.04072	-14.28195	11.27051
7.04493	-14.28195	11.27051
7.04922	-14.28195	11.27051
7.05344	-14.30392	11.27051
7.05763	-14.30392	11.27051
7.06184	-14.28195	11.27051
7.06607	-14.30392	11.27051
7.07028	-14.30392	11.27051
7.07449	-14.30392	11.27051
7.07944	-14.30392	11.27051
7.08375	-14.30392	11.27051
7.08811	-14.30392	11.27051
7.09234	-14.30392	11.27051
7.09657	-14.30392	11.27051
7.10081	-14.30392	11.27051
7.10505	-14.30392	11.27051
7.10947	-14.32589	11.27051
7.11382	-14.30392	11.27051
7.11804	-14.30392	11.27051
7.12224	-14.30392	11.27051
7.12643	-14.30392	11.27051
7.13064	-14.32589	11.27051
7.13486	-14.32589	11.27051
7.13906	-14.32589	11.27051
7.14336	-14.32589	11.27051
7.14767	-14.32589	11.27051
7.15187	-14.32589	11.27051
7.15605	-14.32589	11.27051
7.16024	-14.32589	11.27051
7.16446	-14.32589	11.27051
7.16866	-14.32589	11.27051
7.17324	-14.34787	11.27051
7.17751	-14.32589	11.27051
7.18171	-14.34787	11.27051
7.18591	-14.34787	11.27051
7.19022	-14.34787	11.27051
7.19441	-14.34787	11.27051
7.19860	-14.34787	11.27051
7.20286	-14.34787	11.27051
7.20713	-14.34787	11.27051
7.21134	-14.34787	11.27051
7.21553	-14.36984	11.27051
7.21972	-14.36984	11.27051
7.22390	-14.36984	11.27051
7.22809	-14.34787	11.27051
7.23227	-14.36984	11.27051
7.23658	-14.36984	11.27051
7.24079	-14.36984	11.27051
7.24498	-14.36984	11.27051
7.24917	-14.36984	11.27051
7.25336	-14.36984	11.27051
7.25754	-14.36984	11.27051
7.26173	-14.36984	11.27051
7.26599	-14.36984	11.27051
7.27026	-14.36984	11.27051
7.27446	-14.36984	11.27051
7.27865	-14.39181	11.27051
7.28284	-14.39181	11.27051
7.28702	-14.36984	11.27051
7.29132	-14.36984	11.27051
7.29551	-14.36984	11.27051
7.29983	-14.36984	11.27051
7.30404	-14.36984	11.27051
7.30822	-14.36984	11.27051
7.31242	-14.36984	11.27051
7.31661	-14.36984	11.27051
7.32079	-14.36984	11.27051
7.32499	-14.36984	11.27051
7.32925	-14.36984	11.27051
7.33352	-14.36984	11.27051
7.33772	-14.36984	11.27051
7.34190	-14.36984	11.27051
7.34609	-14.36984	11.27051
7.35028	-14.36984	11.27051
7.35449	-14.36984	11.27051
7.35869	-14.36984	11.27051
7.36300	-14.36984	11.27051
7.36721	-14.36984	11.27051
7.37140	-14.36984	11.27051
7.37558	-14.36984	11.27051
7.37977	-14.36984	11.27051
7.38396	-14.36984	11.27051
7.38814	-14.36984	11.27051
7.39270	-14.36984	11.27051
7.39692	-14.36984	11.27051
7.40111	-14.34787	11.27051
7.40531	-14.36984	11.27051
7.40951	-14.36984	11.27051
7.41370	-14.36984	11.27051
7.41788	-14.36984	11.27051
7.42214	-14.34787	11.27051
7.42641	-14.34787	11.27051
7.43061	-14.34787	11.27051
7.43480	-14.34787	11.27051
7.43898	-14.34787	11.27051
7.44317	-14.34787	11.27051
7.44735	-14.34787	11.27051
7.45156	-14.34787	11.27051
7.45585	-14.34787	11.27051
7.46006	-14.34787	11.27051
7.46428	-14.34787	11.27051
7.46847	-14.34787	11.27051
7.47266	-14.32589	11.27051
7.47684	-14.34787	11.27051
7.48102	-14.34787	11.27051
7.48547	-14.34787	11.27051
7.48968	-14.34787	11.27051
7.49398	-14.34787	11.27051
7.49817	-14.32589	11.27051
7.50236	-14.32589	11.27051
7.50654	-14.32589	11.27051
7.51073	-14.32589	11.27051
7.51499	-14.32589	11.27051
7.51926	-14.32589	11.27051
7.52345	-14.32589	11.27051
7.52764	-14.32589	11.27051
7.53183	-14.32589	11.27051
7.53601	-14.32589	11.27051
7.54019	-14.32589	11.27051
7.54438	-14.32589	11.27051
7.54868	-14.32589	11.27051
7.55289	-14.32589	11.27051
7.55708	-14.30392	11.27051
7.56127	-14.32589	11.27051
7.56545	-14.30392	11.27051
7.56964	-14.30392	11.27051
7.57382	-14.32589	11.27051
7.57807	-14.30392	11.27051
7.58234	-14.30392	11.27051
7.58653	-14.30392	11.27051
7.59072	-14.30392	11.27051
7.59501	-14.30392	11.27051
7.59920	-14.30392	11.27051
7.60338	-14.30392	11.27051
7.60757	-14.30392	11.27051
7.61187	-14.28195	11.27051
7.61607	-14.28195	11.27051
7.62026	-14.28195	11.27051
7.62444	-14.28195	11.27051
7.62863	-14.28195	11.27051
7.63282	-14.28195	11.27051
7.63701	-14.28195	11.27051
7.64126	-14.28195	11.27051
7.64553	-14.28195	11.27051
7.64973	-14.25998	11.27051
7.65391	-14.25998	11.27051
7.65810	-14.25998	11.27051
7.66228	-14.25998	11.27051
7.66647	-14.25998	11.27051
7.67065	-14.25998	11.27051
7.67495	-14.25998	11.27051
7.67916	-14.25998	11.27051
7.68335	-14.23800	11.27051
7.68754	-14.23800	11.27051
7.69172	-14.23800	11.27051
7.69601	-14.23800	11.27051
7.70020	-14.23800	11.27051
7.70464	-14.23800	11.27051
7.70885	-14.23800	11.27051
7.71309	-14.21603	11.27051
7.71731	-14.23800	11.27051
7.72151	-14.21603	11.27051
7.72572	-14.21603	11.27051
7.72993	-14.21603	11.27051
7.73478	-14.21603	11.27051
7.73908	-14.21603	11.27051
7.74330	-14.21603	11.27051
7.74751	-14.19406	11.27051
7.75173	-14.19406	11.27051
7.75594	-14.19406	11.27051
7.76016	-14.19406	11.27051
7.76517	-14.19406	11.27051
7.76948	-14.19406	11.27051
7.77372	-14.19406	11.27051
7.77794	-14.17209	11.27051
7.78215	-14.17209	11.27051
7.78634	-14.17209	11.27051
7.79054	-14.17209	11.27051
7.79473	-14.17209	11.27051
7.79913	-14.17209	11.27051
7.80336	-14.17209	11.27051
7.80756	-14.17209	11.27051
7.81175	-14.17209	11.27051
7.81594	-14.17209	11.27051
7.82013	-14.15011	11.27051
7.82431	-14.17209	11.27051
7.82874	-14.15011	11.27051
7.83296	-14.15011	11.27051
7.83715	-14.15011	11.27051
7.84134	-14.15011	11.27051
7.84553	-14.15011	11.27051
7.84972	-14.15011	11.27051
7.85390	-14.12814	11.27051
7.85816	-14.12814	11.27051
7.86244	-14.12814	11.27051
7.86664	-14.12814	11.27051
7.87082	-14.12814	11.27051
7.87501	-14.12814	11.27051
7.87919	-14.12814	11.27051
7.88338	-14.12814	11.27051
7.88756	-14.12814	11.27051
7.89186	-14.12814	11.27051
7.89607	-14.12814	11.27051
7.90036	-14.12814	11.27051
7.90455	-14.12814	11.27051
7.90873	-14.12814	11.27051
7.91292	-14.12814	11.27051
7.91711	-14.10617	11.27051
7.92136	-14.10617	11.27051
7.92562	-14.10617	11.27051
7.92981	-14.10617	11.27051
7.93400	-14.10617	11.27051
7.93818	-14.10617	11.27051
7.94237	-14.10617	11.27051
7.94655	-14.10617	11.27051
7.95073	-14.10617	11.27051
7.95502	-14.10617	11.27051
7.95923	-14.10617	11.27051
7.96341	-14.10617	11.27051
7.96760	-14.10617	11.27051
7.97178	-14.10617	11.27051
7.97596	-14.10617	11.27051
7.98015	-14.10617	11.27051
7.98440	-14.10617	11.27051
7.98866	-14.10617	11.27051
7.99285	-14.10617	11.27051
7.99702	-14.10617	11.27051
8.00131	-14.10617	11.27051
8.00550	-14.10617	11.27051
8.00968	-14.10617	11.27051
8.01388	-14.10617	11.27051
8.01817	-14.10617	11.27051
8.02238	-14.10617	11.27051
8.02656	-14.10617	11.27051
8.03075	-14.10617	11.27051
8.03493	-14.10617	11.27051
8.03912	-14.10617	11.27051
8.04330	-14.10617	11.27051
8.04755	-14.10617	11.27051
8.05181	-14.10617	11.27051
8.05601	-14.10617	11.27051
8.06019	-14.12814	11.27051
8.06438	-14.10617	11.27051
8.06856	-14.12814	11.27051
8.07274	-14.12814	11.27051
8.07694	-14.12814	11.27051
8.08124	-14.12814	11.27051
8.08544	-14.12814	11.27051
8.08963	-14.12814	11.27051
8.09381	-14.12814	11.27051
8.09800	-14.12814	11.27051
8.10229	-14.12814	11.27051
8.10647	-14.12814	11.27051
8.11089	-14.12814	11.27051
8.11510	-14.12814	11.27051
8.11929	-14.15011	11.27051
8.12347	-14.12814	11.27051
8.12766	-14.12814	11.27051
8.13184	-14.15011	11.27051
8.13602	-14.15011	11.27051
8.14027	-14.15011	11.27051
8.14455	-14.17209	11.27051
8.14875	-14.17209	11.27051
8.15295	-14.17209	11.27051
8.15713	-14.17209	11.27051
8.16132	-14.17209	11.27051
8.16551	-14.17209	11.27051
8.16970	-14.17209	11.27051
8.17400	-14.19406	11.27051
8.17821	-14.19406	11.27051
8.18240	-14.19406	11.27051
8.18658	-14.19406	11.27051
8.19077	-14.19406	11.27051
8.19495	-14.19406	11.27051
8.19913	-14.21603	11.27051
8.20351	-14.21603	11.27051
8.20776	-14.21603	11.27051
8.21195	-14.21603	11.27051
8.21615	-14.21603	11.27051
8.22034	-14.23800	11.27051
8.22452	-14.23800	11.27051
8.22871	-14.23800	11.27051
8.23290	-14.23800	11.27051
8.23721	-14.23800	11.27051
8.24141	-14.25998	11.27051
8.24560	-14.25998	11.27051
8.24978	-14.25998	11.27051
8.25397	-14.25998	11.27051
8.25815	-14.25998	11.27051
8.26234	-14.25998	11.27051
8.26659	-14.28195	11.27051
8.27086	-14.28195	11.27051
8.27505	-14.30392	11.27051
8.27924	-14.30392	11.27051
8.28342	-14.30392	11.27051
8.28761	-14.30392	11.27051
8.29182	-14.30392	11.27051
8.29601	-14.30392	11.27051
8.30031	-14.32589	11.27051
8.30462	-14.32589	11.27051
8.30881	-14.34787	11.27051
8.31300	-14.34787	11.27051
8.31719	-14.34787	11.27051
8.32137	-14.34787	11.27051
8.32556	-14.36984	11.27051
8.32998	-14.36984	11.27051
8.33418	-14.36984	11.27051
8.33837	-14.36984	11.27051
8.34255	-14.39181	11.27051
8.34673	-14.39181	11.27051
8.35092	-14.39181	11.27051
8.35510	-14.41379	11.27051
8.35935	-14.41379	11.27051
8.36363	-14.41379	11.27051
8.36783	-14.41379	11.27051
8.37201	-14.43576	11.27051
8.37620	-14.43576	11.27051
8.38038	-14.45773	11.27051
8.38457	-14.45773	11.27051
8.38875	-14.45773	11.27051
8.39306	-14.45773	11.27051
8.39726	-14.47970	11.27051
8.40145	-14.47970	11.27051
8.40574	-14.50168	11.27051
8.40992	-14.50168	11.27051
8.41410	-14.50168	11.27051
8.41829	-14.50168	11.27051
8.42254	-14.52365	11.27051
8.42680	-14.52365	11.27051
8.43099	-14.52365	11.27051
8.43518	-14.54562	11.27051
8.43936	-14.54562	11.27051
8.44355	-14.54562	11.27051
8.44773	-14.56759	11.27051
8.45191	-14.56759	11.27051
8.45621	-14.56759	11.27051
8.46041	-14.58957	11.27051
8.46460	-14.58957	11.27051
8.46878	-14.58957	11.27051
8.47298	-14.61154	11.27051
8.47716	-14.61154	11.27051
8.48135	-14.63351	11.27051
8.48559	-14.63351	11.27051
8.48986	-14.63351	11.27051
8.49406	-14.63351	11.27051
8.49825	-14.65548	11.27051
8.50243	-14.65548	11.27051
8.50672	-14.67746	11.27051
8.51091	-14.69943	11.27051
8.51509	-14.67746	11.27051
8.51939	-14.69943	11.27051
8.52359	-14.69943	11.27051
8.52778	-14.69943	11.27051
8.53197	-14.69943	11.27051
8.53615	-14.72140	11.27051
8.54034	-14.72140	11.27051
8.54452	-14.74338	11.27051
8.54877	-14.74338	11.27051
8.55305	-14.74338	11.27051
8.55724	-14.74338	11.27051
8.56143	-14.76535	11.27051
8.56561	-14.76535	11.27051
8.56980	-14.78732	11.27051
8.57398	-14.78732	11.27051
8.57817	-14.78732	11.27051
8.58246	-14.78732	11.27051
8.58666	-14.80929	11.27051
8.59084	-14.80929	11.27051
8.59503	-14.83127	11.27051
8.59921	-14.83127	11.27051
8.60340	-14.83127	11.27051
8.60769	-14.83127	11.27051
8.61213	-14.83127	11.27051
8.61633	-14.85324	11.27051
8.62053	-14.85324	11.27051
8.62472	-14.85324	11.27051
8.62891	-14.87521	11.27051
8.63310	-14.87521	11.27051
8.63728	-14.87521	11.27051
8.64160	-14.89718	11.27051
8.64588	-14.89718	11.27051
8.65008	-14.89718	11.27051
8.65427	-14.89718	11.27051
8.65845	-14.91916	11.27051
8.66264	-14.91916	11.27051
8.66683	-14.91916	11.27051
8.67101	-14.91916	11.27051
8.67531	-14.94113	11.27051
8.67952	-14.94113	11.27051
8.68371	-14.94113	11.27051
8.68790	-14.94113	11.27051
8.69208	-14.96310	11.27051
8.69626	-14.96310	11.27051
8.70045	-14.96310	11.27051
8.70470	-14.96310	11.27051
8.70908	-14.98507	11.27051
8.71328	-14.98507	11.27051
8.71746	-14.98507	11.27051
8.72165	-14.98507	11.27051
8.72583	-15.00705	11.27051
8.73001	-15.00705	11.27051
8.73420	-15.00705	11.27051
8.73849	-15.00705	11.27051
8.74269	-15.00705	11.27051
8.74688	-15.02902	11.27051
8.75107	-15.02902	11.27051
8.75525	-15.02902	11.27051
8.75944	-15.02902	11.27051
8.76362	-15.02902	11.27051
8.76787	-15.02902	11.27051
8.77214	-15.05099	11.27051
8.77633	-15.02902	11.27051
8.78052	-15.07297	11.27051
8.78471	-15.07297	11.27051
8.78891	-15.05099	11.27051
8.79309	-15.05099	11.27051
8.79728	-15.07297	11.27051
8.80158	-15.05099	11.27051
8.80578	-15.07297	11.27051
8.81008	-15.07297	11.27051
8.81426	-15.07297	11.27051
8.81845	-15.07297	11.27051
8.82263	-15.07297	11.27051
8.82682	-15.07297	11.27051
8.83126	-15.09494	11.27051
8.83547	-15.07297	11.27051
8.83965	-15.07297	11.27051
8.84384	-15.09494	11.27051
8.84802	-15.09494	11.27051
8.85221	-15.09494	11.27051
8.85639	-15.09494	11.27051
8.86065	-15.09494	11.27051
8.86495	-15.09494	11.27051
8.86915	-15.09494	11.27051
8.87333	-15.09494	11.27051
8.87752	-15.09494	11.27051
8.88170	-15.09494	11.27051
8.88589	-15.09494	11.27051
8.89007	-15.11691	11.27051
8.89437	-15.09494	11.27051
8.89857	-15.09494	11.27051
8.90275	-15.11691	11.27051
8.90694	-15.09494	11.27051
8.91123	-15.11691	11.27051
8.91541	-15.11691	11.27051
8.91960	-15.11691	11.27051
8.92385	-15.09494	11.27051
8.92812	-15.11691	11.27051
8.93231	-15.09494	11.27051
8.93650	-15.11691	11.27051
8.94068	-15.09494	11.27051
8.94486	-15.09494	11.27051
8.94902	-15.11691	11.27051
8.95320	-15.11691	11.27051
8.95751	-15.09494	11.27051
8.96171	-15.11691	11.27051
8.96590	-15.11691	11.27051
8.97008	-15.09494	11.27051
8.97427	-15.09494	11.27051
8.97845	-15.09494	11.27051
8.98264	-15.09494	11.27051
8.98689	-15.09494	11.27051
8.99115	-15.09494	11.27051
8.99535	-15.09494	11.27051
8.99953	-15.09494	11.27051
9.00372	-15.09494	11.27051
9.00790	-15.09494	11.27051
9.01219	-15.09494	11.27051
9.01638	-15.07297	11.27051
9.02068	-15.07297	11.27051
9.02490	-15.09494	11.27051
9.02909	-15.07297	11.27051
9.03328	-15.07297	11.27051
9.03746	-15.07297	11.27051
9.04165	-15.07297	11.27051
9.04584	-15.07297	11.27051
9.05026	-15.07297	11.27051
9.05447	-15.07297	11.27051
9.05866	-15.07297	11.27051
9.06285	-15.05099	11.27051
9.06703	-15.05099	11.27051
9.07122	-15.05099	11.27051
9.07540	-15.05099	11.27051
9.07966	-15.05099	11.27051
9.08394	-15.05099	11.27051
9.08814	-15.02902	11.27051
9.09232	-15.02902	11.27051
9.09651	-15.02902	11.27051
9.10070	-15.02902	11.27051
9.10488	-15.02902	11.27051
9.10907	-15.02902	11.27051
9.11347	-15.00705	11.27051
9.11767	-15.00705	11.27051
9.12185	-15.00705	11.27051
9.12604	-15.00705	11.27051
9.13023	-15.00705	11.27051
9.13441	-15.00705	11.27051
9.13860	-15.00705	11.27051
9.14284	-14.98507	11.27051
9.14710	-14.98507	11.27051
9.15130	-14.98507	11.27051
9.15548	-14.98507	11.27051
9.15967	-14.96310	11.27051
9.16386	-14.98507	11.27051
9.16805	-14.96310	11.27051
9.17224	-14.96310	11.27051
9.17654	-14.96310	11.27051
9.18074	-14.96310	11.27051
9.18494	-14.94113	11.27051
9.18913	-14.94113	11.27051
9.19331	-14.94113	11.27051
9.19750	-14.94113	11.27051
9.20168	-14.94113	11.27051
9.20610	-14.91916	11.27051
9.21032	-14.94113	11.27051
9.21461	-14.91916	11.27051
9.21880	-14.91916	11.27051
9.22298	-14.91916	11.27051
9.22716	-14.91916	11.27051
9.23135	-14.89718	11.27051
9.23560	-14.89718	11.27051
9.23987	-14.89718	11.27051
9.24407	-14.89718	11.27051
9.24826	-14.87521	11.27051
9.25244	-14.87521	11.27051
9.25662	-14.87521	11.27051
9.26081	-14.87521	11.27051
9.26500	-14.85324	11.27051
9.26930	-14.87521	11.27051
9.27349	-14.85324	11.27051
9.27767	-14.85324	11.27051
9.28186	-14.83127	11.27051
9.28604	-14.83127	11.27051
9.29026	-14.83127	11.27051
9.29445	-14.83127	11.27051
9.29883	-14.83127	11.27051
9.30304	-14.80929	11.27051
9.30723	-14.80929	11.27051
9.31141	-14.80929	11.27051
9.31570	-14.80929	11.27051
9.31989	-14.78732	11.27051
9.32407	-14.78732	11.27051
9.32834	-14.78732	11.27051
9.33263	-14.78732	11.27051
9.33682	-14.78732	11.27051
9.34102	-14.78732	11.27051
9.34521	-14.76535	11.27051
9.34939	-14.76535	11.27051
9.35358	-14.76535	11.27051
9.35776	-14.74338	11.27051
9.36206	-14.74338	11.27051
9.36626	-14.74338	11.27051
9.37044	-14.74338	11.27051
9.37463	-14.74338	11.27051
9.37881	-14.74338	11.27051
9.38299	-14.72140	11.27051
9.38717	-14.72140	11.27051
9.39142	-14.72140	11.27051
9.39569	-14.72140	11.27051
9.39988	-14.69943	11.27051
9.40406	-14.72140	11.27051
9.40825	-14.72140	11.27051
9.41243	-14.69943	11.27051
9.41672	-14.69943	11.27051
9.42090	-14.69943	11.27051
9.42520	-14.67746	11.27051
9.42941	-14.67746	11.27051
9.43359	-14.67746	11.27051
9.43778	-14.67746	11.27051
9.44196	-14.67746	11.27051
9.44615	-14.67746	11.27051
9.45033	-14.67746	11.27051
9.45458	-14.65548	11.27051
9.45885	-14.65548	11.27051
9.46305	-14.65548	11.27051
9.46723	-14.65548	11.27051
9.47141	-14.65548	11.27051
9.47560	-14.63351	11.27051
9.47978	-14.63351	11.27051
9.48397	-14.63351	11.27051
9.48826	-14.63351	11.27051
9.49246	-14.63351	11.27051
9.49664	-14.61154	11.27051
9.50083	-14.61154	11.27051
9.50502	-14.61154	11.27051
9.50920	-14.61154	11.27051
9.51339	-14.61154	11.27051
9.51775	-14.61154	11.27051
9.52200	-14.61154	11.27051
9.52621	-14.58957	11.27051
9.53039	-14.58957	11.27051
9.53458	-14.58957	11.27051
9.53876	-14.58957	11.27051
9.54294	-14.58957	11.27051
9.54713	-14.58957	11.27051
9.55142	-14.58957	11.27051
9.55562	-14.56759	11.27051
9.55980	-14.56759	11.27051
9.56399	-14.56759	11.27051
9.56817	-14.56759	11.27051
9.57235	-14.56759	11.27051
9.57654	-14.56759	11.27051
9.58078	-14.56759	11.27051
9.58505	-14.54562	11.27051
9.58924	-14.54562	11.27051
9.59343	-14.54562	11.27051
9.59761	-14.54562	11.27051
9.60180	-14.54562	11.27051
9.60598	-14.54562	11.27051
9.61016	-14.52365	11.27051
9.61445	-14.52365	11.27051
9.61876	-14.52365	11.27051
9.62294	-14.52365	11.27051
9.62712	-14.52365	11.27051
9.63131	-14.52365	11.27051
9.63549	-14.52365	11.27051
9.63968	-14.52365	11.27051
9.64407	-14.52365	11.27051
9.64828	-14.52365	11.27051
9.65246	-14.50168	11.27051
9.65665	-14.50168	11.27051
9.66083	-14.50168	11.27051
9.66502	-14.50168	11.27051
9.66920	-14.50168	11.27051
9.67344	-14.50168	11.27051
9.67772	-14.50168	11.27051
9.68192	-14.50168	11.27051
9.68611	-14.50168	11.27051
9.69029	-14.47970	11.27051
9.69447	-14.47970	11.27051
9.69866	-14.47970	11.27051
9.70284	-14.47970	11.27051
9.70723	-14.47970	11.27051
9.71145	-14.47970	11.27051
9.71563	-14.47970	11.27051
9.71992	-14.47970	11.27051
9.72410	-14.47970	11.27051
9.72829	-14.47970	11.27051
9.73248	-14.47970	11.27051
9.73671	-14.47970	11.27051
9.74100	-14.45773	11.27051
9.74520	-14.45773	11.27051
9.74938	-14.45773	11.27051
9.75356	-14.45773	11.27051
9.75775	-14.45773	11.27051
9.76193	-14.45773	11.27051
9.76611	-14.45773	11.27051
9.77047	-14.45773	11.27051
9.77469	-14.45773	11.27051
9.77888	-14.45773	11.27051
9.78306	-14.45773	11.27051
9.78725	-14.45773	11.27051
9.79143	-14.45773	11.27051
9.79561	-14.45773	11.27051
9.79987	-14.43576	11.27051
9.80415	-14.45773	11.27051
9.80835	-14.45773	11.27051
9.81253	-14.43576	11.27051
9.81672	-14.43576	11.27051
9.82102	-14.43576	11.27051
9.82521	-14.45773	11.27051
9.82939	-14.45773	11.27051
9.83369	-14.43576	11.27051
9.83789	-14.43576	11.27051
9.84207	-14.43576	11.27051
9.84626	-14.43576	11.27051
9.85044	-14.45773	11.27051
9.85462	-14.43576	11.27051
9.85881	-14.43576	11.27051
9.86305	-14.45773	11.27051
9.86732	-14.45773	11.27051
9.87151	-14.45773	11.27051
9.87569	-14.45773	11.27051
9.87988	-14.45773	11.27051
9.88406	-14.45773	11.27051
9.88825	-14.45773	11.27051
9.89243	-14.45773	11.27051
9.89672	-14.45773	11.27051
9.90093	-14.45773	11.27051
9.90512	-14.45773	11.27051
9.90930	-14.45773	11.27051
9.91349	-14.47970	11.27051
9.91767	-14.45773	11.27051
9.92196	-14.47970	11.27051
9.92633	-14.47970	11.27051
9.93054	-14.47970	11.27051
9.93473	-14.47970	11.27051
9.93891	-14.47970	11.27051
9.94310	-14.47970	11.27051
9.94728	-14.50168	11.27051
9.95147	-14.50168	11.27051
9.95572	-14.52365	11.27051
9.96001	-14.52365	11.27051
9.96421	-14.52365	11.27051
9.96840	-14.52365	11.27051
9.97258	-14.52365	11.27051
9.97677	-14.52365	11.27051
9.98096	-14.54562	11.27051
9.98514	-14.54562	11.27051
9.98944	-14.54562	11.27051
9.99365	-14.56759	11.27051
9.99784	-14.56759	11.27051
10.00202	-14.56759	11.27051
10.00620	-14.58957	11.27051
10.01039	-14.58957	11.27051
10.01457	-14.58957	11.27051
10.01883	-14.61154	11.27051
10.02320	-14.61154	11.27051
10.02739	-14.63351	11.27051
10.03159	-14.63351	11.27051
10.03577	-14.63351	11.27051
10.03996	-14.63351	11.27051
10.04414	-14.65548	11.27051
10.04833	-14.65548	11.27051
10.05262	-14.67746	11.27051
10.05683	-14.67746	11.27051
10.06103	-14.69943	11.27051
10.06521	-14.69943	11.27051
10.06940	-14.69943	11.27051
10.07358	-14.72140	11.27051
10.07776	-14.72140	11.27051
10.08201	-14.74338	11.27051
10.08628	-14.74338	11.27051
10.09047	-14.74338	11.27051
10.09465	-14.76535	11.27051
10.09884	-14.78732	11.27051
10.10302	-14.78732	11.27051
10.10721	-14.80929	11.27051
10.11139	-14.83127	11.27051
10.11568	-14.83127	11.27051
10.11988	-14.83127	11.27051
10.12417	-14.85324	11.27051
10.12836	-14.85324	11.27051
10.13255	-14.87521	11.27051
10.13673	-14.89718	11.27051
10.14093	-14.91916	11.27051
10.14534	-14.91916	11.27051
10.14955	-14.91916	11.27051
10.15373	-14.94113	11.27051
10.15792	-14.96310	11.27051
10.16211	-14.96310	11.27051
10.16629	-14.96310	11.27051
10.17048	-14.98507	11.27051
10.17473	-15.00705	11.27051
10.17901	-15.02902	11.27051
10.18321	-15.02902	11.27051
10.18739	-15.05099	11.27051
10.19158	-15.07297	11.27051
10.19576	-15.07297	11.27051
10.19995	-15.09494	11.27051
10.20413	-15.09494	11.27051
10.20843	-15.11691	11.27051
10.21264	-15.13888	11.27051
10.21683	-15.16086	11.27051
10.22102	-15.16086	11.27051
10.22532	-15.16086	11.27051
10.22952	-15.18283	11.27051
10.23377	-15.20480	11.27051
10.23824	-15.22677	11.27051
10.24250	-15.24875	11.27051
10.24671	-15.24875	11.27051
10.25090	-15.24875	11.27051
10.25510	-15.27072	11.27051
10.25929	-15.29269	11.27051
10.26348	-15.31466	11.27051
10.26778	-15.31466	11.27051
10.27207	-15.33664	11.27051
10.27628	-15.35861	11.27051
10.28048	-15.35861	11.27051
10.28467	-15.38058	11.27051
10.28886	-15.40256	11.27051
10.29306	-15.40256	11.27051
10.29725	-15.42453	11.27051
10.30157	-15.44650	11.27051
10.30578	-15.46847	11.27051
10.30998	-15.46847	11.27051
10.31418	-15.49045	11.27051
10.31837	-15.49045	11.27051
10.32255	-15.53439	11.27051
10.32685	-15.53439	11.27051
10.33127	-15.55636	11.27051
10.33548	-15.55636	11.27051
10.33967	-15.57834	11.27051
10.34386	-15.60031	11.27051
10.34805	-15.62228	11.27051
10.35223	-15.62228	11.27051
10.35642	-15.64425	11.27051
10.36067	-15.64425	11.27051
10.36497	-15.66623	11.27051
10.36917	-15.68820	11.27051
10.37335	-15.68820	11.27051
10.37754	-15.73214	11.27051
10.38173	-15.75412	11.27051
10.38592	-15.75412	11.27051
10.39010	-15.77609	11.27051
10.39439	-15.77609	11.27051
10.39860	-15.79806	11.27051
10.40278	-15.82004	11.27051
10.40697	-15.82004	11.27051
10.41115	-15.84201	11.27051
10.41534	-15.86398	11.27051
10.41953	-15.88595	11.27051
10.42378	-15.88595	11.27051
10.42815	-15.90793	11.27051
10.43234	-15.90793	11.27051
10.43654	-15.92990	11.27051
10.44073	-15.95187	11.27051
10.44492	-15.97384	11.27051
10.44911	-15.99582	11.27051
10.45329	-16.01779	11.27051
10.45759	-16.01779	11.27051
10.46180	-16.01779	11.27051
10.46598	-16.03976	11.27051
10.47017	-16.06173	11.27051
10.47436	-16.08371	11.27051
10.47854	-16.10568	11.27051
10.48272	-16.12765	11.27051
10.48699	-16.14963	11.27051
10.49125	-16.14963	11.27051
10.49545	-16.14963	11.27051
10.49964	-16.17160	11.27051
10.50383	-16.19357	11.27051
10.50801	-16.21554	11.27051
10.51220	-16.21554	11.27051
10.51638	-16.23752	11.27051
10.52068	-16.23752	11.27051
10.52489	-16.25949	11.27051
10.52919	-16.28146	11.27051
10.53338	-16.30343	11.27051
10.53756	-16.32541	11.27051
10.54175	-16.32541	11.27051
10.54593	-16.34738	11.27051
10.55034	-16.36935	11.27051
10.55455	-16.39132	11.27051
10.55874	-16.39132	11.27051
10.56292	-16.41330	11.27051
10.56711	-16.43527	11.27051
10.57129	-16.43527	11.27051
10.57547	-16.45724	11.27051
10.57973	-16.45724	11.27051
10.58401	-16.47922	11.27051
10.58821	-16.50119	11.27051
10.59239	-16.52316	11.27051
10.59658	-16.52316	11.27051
10.60076	-16.54513	11.27051
10.60495	-16.54513	11.27051
10.60914	-16.56711	11.27051
10.61343	-16.58908	11.27051
10.61764	-16.58908	11.27051
10.62182	-16.58908	11.27051
10.62601	-16.61105	11.27051
10.63030	-16.63302	11.27051
10.63449	-16.65500	11.27051
10.63868	-16.65500	11.27051
10.64293	-16.67697	11.27051
10.64720	-16.67697	11.27051
10.65139	-16.69894	11.27051
10.65558	-16.69894	11.27051
10.65976	-16.72091	11.27051
10.66395	-16.74289	11.27051
10.66813	-16.74289	11.27051
10.67232	-16.76486	11.27051
10.67661	-16.76486	11.27051
10.68081	-16.78683	11.27051
10.68501	-16.80881	11.27051
10.68919	-16.80881	11.27051
10.69338	-16.83078	11.27051
10.69756	-16.83078	11.27051
10.70174	-16.83078	11.27051
10.70600	-16.87472	11.27051
10.71026	-16.85275	11.27051
10.71446	-16.87472	11.27051
10.71864	-16.89670	11.27051
10.72283	-16.89670	11.27051
10.72702	-16.89670	11.27051
10.73130	-16.91867	11.27051
10.73549	-16.94064	11.27051
10.73979	-16.94064	11.27051
10.74399	-16.96261	11.27051
10.74818	-16.96261	11.27051
10.75237	-16.96261	11.27051
10.75655	-16.98459	11.27051
10.76074	-16.98459	11.27051
10.76493	-17.00656	11.27051
10.76919	-17.00656	11.27051
10.77346	-17.00656	11.27051
10.77766	-17.02853	11.27051
10.78185	-17.05050	11.27051
10.78603	-17.05050	11.27051
10.79021	-17.07248	11.27051
10.79439	-17.07248	11.27051
10.79858	-17.09445	11.27051
10.80288	-17.09445	11.27051
10.80707	-17.09445	11.27051
10.81126	-17.09445	11.27051
10.81544	-17.13839	11.27051
10.81963	-17.13839	11.27051
10.82381	-17.13839	11.27051
10.82799	-17.16037	11.27051
10.83236	-17.16037	11.27051
10.83662	-17.16037	11.27051
10.84081	-17.18234	11.27051
10.84501	-17.18234	11.27051
10.84919	-17.18234	11.27051
10.85337	-17.18234	11.27051
10.85756	-17.18234	11.27051
10.86174	-17.20431	11.27051
10.86604	-17.20431	11.27051
10.87024	-17.20431	11.27051
10.87442	-17.22629	11.27051
10.87861	-17.22629	11.27051
10.88279	-17.22629	11.27051
10.88698	-17.24826	11.27051
10.89116	-17.24826	11.27051
10.89541	-17.24826	11.27051
10.89968	-17.27023	11.27051
10.90388	-17.27023	11.27051
10.90806	-17.27023	11.27051
10.91225	-17.27023	11.27051
10.91643	-17.27023	11.27051
10.92062	-17.29220	11.27051
10.92480	-17.29220	11.27051
10.92912	-17.29220	11.27051
10.93342	-17.29220	11.27051
10.93760	-17.29220	11.27051
10.94179	-17.31418	11.27051
10.94597	-17.31418	11.27051
10.95015	-17.31418	11.27051
10.95434	-17.31418	11.27051
10.95871	-17.31418	11.27051
10.96293	-17.31418	11.27051
10.96711	-17.31418	11.27051
10.97130	-17.33615	11.27051
10.97548	-17.33615	11.27051
10.97966	-17.33615	11.27051
10.98384	-17.33615	11.27051
10.98810	-17.33615	11.27051
10.99238	-17.33615	11.27051
10.99658	-17.35812	11.27051
11.00076	-17.33615	11.27051
11.00496	-17.35812	11.27051
11.00914	-17.35812	11.27051
11.01333	-17.35812	11.27051
11.01751	-17.35812	11.27051
11.02181	-17.35812	11.27051
11.02601	-17.35812	11.27051
11.03020	-17.35812	11.27051
11.03449	-17.33615	11.27051
11.03867	-17.33615	11.27051
11.04285	-17.35812	11.27051
11.04704	-17.35812	11.27051
11.05130	-17.35812	11.27051
11.05556	-17.35812	11.27051
11.05976	-17.35812	11.27051
11.06395	-17.35812	11.27051
11.06815	-17.35812	11.27051
11.07234	-17.33615	11.27051
11.07653	-17.33615	11.27051
11.08071	-17.33615	11.27051
11.08503	-17.33615	11.27051
11.08923	-17.33615	11.27051
11.09342	-17.33615	11.27051
11.09761	-17.33615	11.27051
11.10179	-17.33615	11.27051
11.10598	-17.33615	11.27051
11.11016	-17.33615	11.27051
11.11442	-17.33615	11.27051
11.11869	-17.31418	11.27051
11.12288	-17.31418	11.27051
11.12707	-17.31418	11.27051
11.13125	-17.31418	11.27051
11.13554	-17.31418	11.27051
11.13972	-17.29220	11.27051
11.14391	-17.29220	11.27051
11.14821	-17.29220	11.27051
11.15241	-17.31418	11.27051
11.15659	-17.29220	11.27051
11.16079	-17.29220	11.27051
11.16499	-17.29220	11.27051
11.16917	-17.29220	11.27051
11.17336	-17.27023	11.27051
11.17762	-17.24826	11.27051
11.18189	-17.24826	11.27051
11.18609	-17.24826	11.27051
11.19027	-17.24826	11.27051
11.19446	-17.24826	11.27051
11.19864	-17.24826	11.27051
11.20283	-17.22629	11.27051
11.20701	-17.22629	11.27051
11.21131	-17.22629	11.27051
11.21551	-17.20431	11.27051
11.21970	-17.20431	11.27051
11.22389	-17.20431	11.27051
11.22808	-17.18234	11.27051
11.23227	-17.18234	11.27051
11.23656	-17.18234	11.27051
11.24099	-17.16037	11.27051
11.24522	-17.16037	11.27051
11.24941	-17.16037	11.27051
11.25359	-17.13839	11.27051
11.25778	-17.16037	11.27051
11.26196	-17.13839	11.27051
11.26615	-17.13839	11.27051
11.27042	-17.11642	11.27051
11.27470	-17.11642	11.27051
11.27890	-17.09445	11.27051
11.28309	-17.09445	11.27051
11.28727	-17.07248	11.27051
11.29149	-17.09445	11.27051
11.29568	-17.07248	11.27051
11.29987	-17.07248	11.27051
11.30417	-17.05050	11.27051
11.30837	-17.05050	11.27051
11.31256	-17.02853	11.27051
11.31674	-17.02853	11.27051
11.32094	-17.00656	11.27051
11.32513	-17.00656	11.27051
11.32931	-17.00656	11.27051
11.33357	-16.98459	11.27051
11.33794	-16.98459	11.27051
11.34213	-16.98459	11.27051
11.34631	-16.96261	11.27051
11.35050	-16.96261	11.27051
11.35468	-16.96261	11.27051
11.35887	-16.94064	11.27051
11.36305	-16.94064	11.27051
11.36735	-16.91867	11.27051
11.37156	-16.89670	11.27051
11.37574	-16.89670	11.27051
11.37993	-16.87472	11.27051
11.38411	-16.87472	11.27051
11.38829	-16.87472	11.27051
11.39248	-16.85275	11.27051
11.39673	-16.85275	11.27051
11.40106	-16.83078	11.27051
11.40527	-16.83078	11.27051
11.40947	-16.80881	11.27051
11.41366	-16.80881	11.27051
11.41786	-16.78683	11.27051
11.42206	-16.76486	11.27051
11.42625	-16.76486	11.27051
11.43056	-16.76486	11.27051
11.43477	-16.74289	11.27051
11.43906	-16.74289	11.27051
11.44326	-16.74289	11.27051
11.44745	-16.72091	11.27051
11.45164	-16.69894	11.27051
11.45582	-16.69894	11.27051
11.46027	-16.67697	11.27051
11.46449	-16.67697	11.27051
11.46869	-16.65500	11.27051
11.47288	-16.65500	11.27051
11.47703	-16.63302	11.27051
11.48122	-16.63302	11.27051
11.48541	-16.63302	11.27051
11.48969	-16.61105	11.27051
11.49399	-16.61105	11.27051
11.49820	-16.58908	11.27051
11.50239	-16.56711	11.27051
11.50658	-16.56711	11.27051
11.51077	-16.56711	11.27051
11.51496	-16.54513	11.27051
11.51917	-16.54513	11.27051
11.52349	-16.50119	11.27051
11.52772	-16.50119	11.27051
11.53191	-16.50119	11.27051
11.53612	-16.50119	11.27051
11.54043	-16.47922	11.27051
11.54462	-16.45724	11.27051
11.54880	-16.45724	11.27051
11.55326	-16.43527	11.27051
11.55748	-16.43527	11.27051
11.56168	-16.41330	11.27051
11.56587	-16.41330	11.27051
11.57006	-16.41330	11.27051
11.57426	-16.39132	11.27051
11.57845	-16.36935	11.27051
11.58272	-16.34738	11.27051
11.58701	-16.34738	11.27051
11.59122	-16.32541	11.27051
11.59541	-16.32541	11.27051
11.59960	-16.30343	11.27051
11.60380	-16.30343	11.27051
11.60799	-16.28146	11.27051
11.61218	-16.28146	11.27051
11.61650	-16.28146	11.27051
11.62073	-16.28146	11.27051
11.62495	-16.25949	11.27051
11.62915	-16.25949	11.27051
11.63334	-16.23752	11.27051
11.63754	-16.23752	11.27051
11.64184	-16.21554	11.27051
11.64626	-16.19357	11.27051
11.65048	-16.19357	11.27051
11.65467	-16.19357	11.27051
11.65886	-16.17160	11.27051
11.66305	-16.17160	11.27051
11.66724	-16.14963	11.27051
11.67143	-16.14963	11.27051
11.67569	-16.14963	11.27051
11.67996	-16.12765	11.27051
11.68416	-16.10568	11.27051
11.68835	-16.10568	11.27051
11.69253	-16.08371	11.27051
11.69672	-16.08371	11.27051
11.70092	-16.08371	11.27051
11.70510	-16.06173	11.27051
11.70941	-16.06173	11.27051
11.71361	-16.03976	11.27051
11.71782	-16.03976	11.27051
11.72201	-16.01779	11.27051
11.72621	-16.01779	11.27051
11.73040	-16.01779	11.27051
11.73458	-16.01779	11.27051
11.73904	-15.99582	11.27051
11.74337	-15.97384	11.27051
11.74757	-15.97384	11.27051
11.75177	-15.97384	11.27051
11.75596	-15.95187	11.27051
11.76015	-15.95187	11.27051
11.76434	-15.92990	11.27051
11.76861	-15.92990	11.27051
11.77287	-15.90793	11.27051
11.77704	-15.90793	11.27051
11.78123	-15.88595	11.27051
11.78543	-15.88595	11.27051
11.78962	-15.86398	11.27051
11.79381	-15.86398	11.27051
11.79801	-15.86398	11.27051
11.80232	-15.84201	11.27051
11.80653	-15.84201	11.27051
11.81072	-15.82004	11.27051
11.81492	-15.82004	11.27051
11.81914	-15.79806	11.27051
11.82333	-15.77609	11.27051
11.82752	-15.77609	11.27051
11.83196	-15.77609	11.27051
11.83618	-15.77609	11.27051
11.84038	-15.75412	11.27051
11.84468	-15.75412	11.27051
11.84888	-15.73214	11.27051
11.85302	-15.73214	11.27051
11.85721	-15.71017	11.27051
11.86147	-15.71017	11.27051
11.86574	-15.71017	11.27051
11.86994	-15.68820	11.27051
11.87412	-15.68820	11.27051
11.87831	-15.68820	11.27051
11.88250	-15.68820	11.27051
11.88668	-15.64425	11.27051
11.89087	-15.64425	11.27051
11.89517	-15.64425	11.27051
11.89937	-15.62228	11.27051
11.90356	-15.62228	11.27051
11.90774	-15.60031	11.27051
11.91193	-15.60031	11.27051
11.91613	-15.60031	11.27051
11.92033	-15.57834	11.27051
11.92479	-15.57834	11.27051
11.92902	-15.57834	11.27051
11.93321	-15.55636	11.27051
11.93739	-15.55636	11.27051
11.94158	-15.55636	11.27051
11.94587	-15.53439	11.27051
11.95005	-15.53439	11.27051
11.95431	-15.51242	11.27051
11.95859	-15.51242	11.27051
11.96279	-15.51242	11.27051
11.96698	-15.49045	11.27051
11.97117	-15.49045	11.27051
11.97535	-15.49045	11.27051
11.97954	-15.46847	11.27051
11.98372	-15.46847	11.27051
11.98802	-15.46847	11.27051
11.99222	-15.44650	11.27051
11.99641	-15.44650	11.27051
12.00060	-15.44650	11.27051
12.00478	-15.42453	11.27051
12.00898	-15.42453	11.27051
12.01316	-15.40256	11.27051
12.01744	-15.40256	11.27051
12.02172	-15.40256	11.27051
12.02593	-15.40256	11.27051
12.03011	-15.38058	11.27051
12.03430	-15.38058	11.27051
12.03849	-15.35861	11.27051
12.04267	-15.35861	11.27051
12.04696	-15.35861	11.27051
12.05126	-15.35861	11.27051
12.05546	-15.35861	11.27051
12.05965	-15.33664	11.27051
12.06384	-15.31466	11.27051
12.06802	-15.31466	11.27051
12.07222	-15.33664	11.27051
12.07640	-15.31466	11.27051
12.08084	-15.29269	11.27051
12.08505	-15.29269	11.27051
12.08923	-15.29269	11.27051
12.09342	-15.29269	11.27051
12.09760	-15.29269	11.27051
12.10179	-15.27072	11.27051
12.10598	-15.27072	11.27051
12.11023	-15.27072	11.27051
12.11452	-15.27072	11.27051
12.11873	-15.24875	11.27051
12.12293	-15.24875	11.27051
12.12712	-15.24875	11.27051
12.13130	-15.24875	11.27051
12.13549	-15.22677	11.27051
12.13967	-15.20480	11.27051
12.14398	-15.20480	11.27051
12.14829	-15.20480	11.27051
12.15248	-15.20480	11.27051
12.15666	-15.20480	11.27051
12.16085	-15.18283	11.27051
12.16503	-15.18283	11.27051
12.16922	-15.18283	11.27051
12.17348	-15.16086	11.27051
12.17777	-15.16086	11.27051
12.18197	-15.16086	11.27051
12.18615	-15.16086	11.27051
12.19034	-15.16086	11.27051
12.19453	-15.13888	11.27051
12.19871	-15.13888	11.27051
12.20290	-15.13888	11.27051
12.20720	-15.13888	11.27051
12.21141	-15.13888	11.27051
12.21559	-15.11691	11.27051
12.21979	-15.11691	11.27051
12.22398	-15.11691	11.27051
12.22817	-15.11691	11.27051
12.23235	-15.09494	11.27051
12.23681	-15.09494	11.27051
12.24107	-15.09494	11.27051
12.24526	-15.09494	11.27051
12.24958	-15.09494	11.27051
12.25377	-15.09494	11.27051
12.25795	-15.07297	11.27051
12.26214	-15.07297	11.27051
12.26640	-15.07297	11.27051
12.27067	-15.07297	11.27051
12.27487	-15.05099	11.27051
12.27906	-15.05099	11.27051
12.28325	-15.05099	11.27051
12.28744	-15.05099	11.27051
12.29162	-15.05099	11.27051
12.29581	-15.05099	11.27051
12.30011	-15.02902	11.27051
12.30432	-15.02902	11.27051
12.30850	-15.05099	11.27051
12.31269	-15.02902	11.27051
12.31690	-15.02902	11.27051
12.32110	-15.02902	11.27051
12.32529	-15.02902	11.27051
12.32976	-15.02902	11.27051
12.33398	-15.02902	11.27051
12.33817	-15.02902	11.27051
12.34236	-15.02902	11.27051
12.34656	-15.02902	11.27051
12.35088	-15.02902	11.27051
12.35507	-15.02902	11.27051
12.35934	-15.00705	11.27051
12.36362	-15.00705	11.27051
12.36782	-15.00705	11.27051
12.37201	-15.00705	11.27051
12.37620	-15.00705	11.27051
12.38039	-15.00705	11.27051
12.38459	-15.00705	11.27051
12.38878	-15.00705	11.27051
12.39310	-15.00705	11.27051
12.39730	-15.00705	11.27051
12.40150	-15.00705	11.27051
12.40569	-15.00705	11.27051
12.40988	-15.00705	11.27051
12.41407	-15.00705	11.27051
12.41828	-15.00705	11.27051
12.42271	-15.00705	11.27051
12.42693	-15.00705	11.27051
12.43113	-15.00705	11.27051
12.43532	-15.00705	11.27051
12.43951	-15.00705	11.27051
12.44371	-15.02902	11.27051
12.44790	-15.02902	11.27051
12.45239	-15.02902	11.27051
12.45668	-15.00705	11.27051
12.46090	-15.02902	11.27051
12.46509	-15.02902	11.27051
12.46927	-15.02902	11.27051
12.47346	-15.02902	11.27051
12.47765	-15.02902	11.27051
12.48183	-15.02902	11.27051
12.48614	-15.02902	11.27051
12.49034	-15.05099	11.27051
12.49453	-15.05099	11.27051
12.49871	-15.05099	11.27051
12.50290	-15.05099	11.27051
12.50708	-15.05099	11.27051
12.51127	-15.07297	11.27051
12.51552	-15.05099	11.27051
12.51981	-15.05099	11.27051
12.52402	-15.07297	11.27051
12.52821	-15.07297	11.27051
12.53240	-15.07297	11.27051
12.53658	-15.07297	11.27051
12.54077	-15.07297	11.27051
12.54497	-15.07297	11.27051
12.54927	-15.07297	11.27051
12.55359	-15.09494	11.27051
12.55778	-15.09494	11.27051
12.56196	-15.09494	11.27051
12.56615	-15.09494	11.27051
12.57033	-15.09494	11.27051
12.57452	-15.09494	11.27051
12.57894	-15.09494	11.27051
12.58315	-15.11691	11.27051
12.58735	-15.11691	11.27051
12.59154	-15.11691	11.27051
12.59574	-15.11691	11.27051
12.59993	-15.11691	11.27051
12.60412	-15.11691	11.27051
12.60839	-15.13888	11.27051
12.61269	-15.11691	11.27051
12.61692	-15.13888	11.27051
12.62112	-15.13888	11.27051
12.62532	-15.13888	11.27051
12.62952	-15.13888	11.27051
12.63371	-15.16086	11.27051
12.63790	-15.13888	11.27051
12.64223	-15.16086	11.27051
12.64645	-15.16086	11.27051
12.65065	-15.16086	11.27051
12.65497	-15.16086	11.27051
12.65916	-15.16086	11.27051
12.66335	-15.16086	11.27051
12.66754	-15.16086	11.27051
12.67199	-15.16086	11.27051
12.67623	-15.18283	11.27051
12.68043	-15.18283	11.27051
12.68462	-15.18283	11.27051
12.68880	-15.18283	11.27051
12.69300	-15.18283	11.27051
12.69718	-15.18283	11.27051
12.70144	-15.18283	11.27051
12.70571	-15.18283	11.27051
12.70991	-15.18283	11.27051
12.71409	-15.20480	11.27051
12.71830	-15.20480	11.27051
12.72249	-15.20480	11.27051
12.72667	-15.20480	11.27051
12.73086	-15.20480	11.27051
12.73517	-15.20480	11.27051
12.73937	-15.22677	11.27051
12.74356	-15.20480	11.27051
12.74775	-15.22677	11.27051
12.75193	-15.22677	11.27051
12.75623	-15.22677	11.27051
12.76042	-15.22677	11.27051
12.76485	-15.22677	11.27051
12.76904	-15.22677	11.27051
12.77323	-15.24875	11.27051
12.77742	-15.22677	11.27051
12.78160	-15.24875	11.27051
12.78579	-15.24875	11.27051
12.78997	-15.24875	11.27051
12.79423	-15.24875	11.27051
12.79852	-15.24875	11.27051
12.80271	-15.24875	11.27051
12.80690	-15.27072	11.27051
12.81109	-15.27072	11.27051
12.81527	-15.27072	11.27051
12.81948	-15.27072	11.27051
12.82367	-15.27072	11.27051
12.82799	-15.27072	11.27051
12.83220	-15.27072	11.27051
12.83639	-15.27072	11.27051
12.84058	-15.27072	11.27051
12.84476	-15.29269	11.27051
12.84895	-15.27072	11.27051
12.85315	-15.29269	11.27051
12.85753	-15.29269	11.27051
12.86179	-15.29269	11.27051
12.86600	-15.29269	11.27051
12.87019	-15.29269	11.27051
12.87437	-15.29269	11.27051
12.87856	-15.29269	11.27051
12.88275	-15.29269	11.27051
12.88693	-15.31466	11.27051
12.89124	-15.31466	11.27051
12.89545	-15.31466	11.27051
12.89963	-15.31466	11.27051
12.90382	-15.31466	11.27051
12.90800	-15.31466	11.27051
12.91219	-15.31466	11.27051
12.91637	-15.31466	11.27051
12.92065	-15.31466	11.27051
12.92494	-15.31466	11.27051
12.92914	-15.31466	11.27051
12.93333	-15.33664	11.27051
12.93752	-15.33664	11.27051
12.94170	-15.33664	11.27051
12.94589	-15.33664	11.27051
12.95008	-15.33664	11.27051
12.95438	-15.33664	11.27051
12.95870	-15.33664	11.27051
12.96289	-15.33664	11.27051
12.96707	-15.33664	11.27051
12.97126	-15.33664	11.27051
12.97544	-15.35861	11.27051
12.97962	-15.33664	11.27051
12.98406	-15.35861	11.27051
12.98828	-15.35861	11.27051
12.99247	-15.35861	11.27051
12.99666	-15.35861	11.27051
13.00085	-15.35861	11.27051
13.00503	-15.35861	11.27051
13.00922	-15.35861	11.27051
13.01349	-15.35861	11.27051
13.01780	-15.35861	11.27051
13.02201	-15.35861	11.27051
13.02621	-15.35861	11.27051
13.03040	-15.35861	11.27051
13.03460	-15.35861	11.27051
13.03879	-15.35861	11.27051
13.04298	-15.35861	11.27051
13.04730	-15.35861	11.27051
13.05152	-15.35861	11.27051
13.05572	-15.35861	11.27051
13.06003	-15.35861	11.27051
13.06422	-15.35861	11.27051
13.06841	-15.38058	11.27051
13.07260	-15.38058	11.27051
13.07706	-15.35861	11.27051
13.08127	-15.38058	11.27051
13.08547	-15.35861	11.27051
13.08966	-15.38058	11.27051
13.09385	-15.38058	11.27051
13.09804	-15.35861	11.27051
13.10223	-15.35861	11.27051
13.10651	-15.35861	11.27051
13.11079	-15.38058	11.27051
13.11499	-15.38058	11.27051
13.11919	-15.38058	11.27051
13.12339	-15.38058	11.27051
13.12758	-15.38058	11.27051
13.13178	-15.38058	11.27051
13.13597	-15.38058	11.27051
13.14027	-15.38058	11.27051
13.14448	-15.38058	11.27051
13.14866	-15.38058	11.27051
13.15285	-15.38058	11.27051
13.15702	-15.38058	11.27051
13.16132	-15.38058	11.27051
13.16551	-15.38058	11.27051
13.16999	-15.38058	11.27051
13.17421	-15.38058	11.27051
13.17841	-15.38058	11.27051
13.18261	-15.38058	11.27051
13.18680	-15.38058	11.27051
13.19099	-15.38058	11.27051
13.19518	-15.38058	11.27051
13.19947	-15.40256	11.27051
13.20376	-15.40256	11.27051
13.20797	-15.40256	11.27051
13.21216	-15.40256	11.27051
13.21635	-15.40256	11.27051
13.22056	-15.40256	11.27051
13.22477	-15.40256	11.27051
13.22898	-15.40256	11.27051
13.23330	-15.40256	11.27051
13.23751	-15.40256	11.27051
13.24173	-15.40256	11.27051
13.24593	-15.40256	11.27051
13.25013	-15.40256	11.27051
13.25432	-15.40256	11.27051
13.25851	-15.40256	11.27051
13.26291	-15.40256	11.27051
13.26717	-15.40256	11.27051
13.27136	-15.40256	11.27051
13.27556	-15.40256	11.27051
13.27975	-15.42453	11.27051
13.28394	-15.40256	11.27051
13.28813	-15.40256	11.27051
13.29233	-15.40256	11.27051
13.29664	-15.40256	11.27051
13.30084	-15.42453	11.27051
13.30502	-15.42453	11.27051
13.30921	-15.42453	11.27051
13.31340	-15.42453	11.27051
13.31763	-15.42453	11.27051
13.32182	-15.42453	11.27051
13.32629	-15.40256	11.27051
13.33050	-15.42453	11.27051
13.33470	-15.40256	11.27051
13.33889	-15.42453	11.27051
13.34308	-15.42453	11.27051
13.34728	-15.42453	11.27051
13.35147	-15.42453	11.27051
13.35574	-15.42453	11.27051
13.36004	-15.42453	11.27051
13.36436	-15.42453	11.27051
13.36855	-15.42453	11.27051
13.37274	-15.42453	11.27051
13.37694	-15.42453	11.27051
13.38113	-15.42453	11.27051
13.38532	-15.42453	11.27051
13.38963	-15.42453	11.27051
13.39384	-15.42453	11.27051
13.39803	-15.42453	11.27051
13.40222	-15.40256	11.27051
13.40641	-15.42453	11.27051
13.41060	-15.42453	11.27051
13.41479	-15.42453	11.27051
13.41924	-15.40256	11.27051
13.42346	-15.42453	11.27051
13.42766	-15.42453	11.27051
13.43185	-15.40256	11.27051
13.43604	-15.40256	11.27051
13.44023	-15.40256	11.27051
13.44442	-15.40256	11.27051
13.44867	-15.40256	11.27051
13.45298	-15.40256	11.27051
13.45718	-15.40256	11.27051
13.46138	-15.40256	11.27051
13.46567	-15.40256	11.27051
13.46985	-15.40256	11.27051
13.47404	-15.40256	11.27051
13.47822	-15.40256	11.27051
13.48252	-15.38058	11.27051
13.48673	-15.38058	11.27051
13.49092	-15.38058	11.27051
13.49510	-15.38058	11.27051
13.49929	-15.38058	11.27051
13.50347	-15.38058	11.27051
13.50765	-15.38058	11.27051
13.51191	-15.38058	11.27051
13.51618	-15.38058	11.27051
13.52040	-15.38058	11.27051
13.52459	-15.35861	11.27051
13.52879	-15.35861	11.27051
13.53299	-15.35861	11.27051
13.53718	-15.35861	11.27051
13.54136	-15.35861	11.27051
13.54570	-15.33664	11.27051
13.54992	-15.35861	11.27051
13.55412	-15.33664	11.27051
13.55831	-15.33664	11.27051
13.56250	-15.33664	11.27051
13.56679	-15.33664	11.27051
13.57098	-15.33664	11.27051
13.57541	-15.33664	11.27051
13.57963	-15.31466	11.27051
13.58382	-15.31466	11.27051
13.58801	-15.31466	11.27051
13.59221	-15.31466	11.27051
13.59641	-15.29269	11.27051
13.60060	-15.29269	11.27051
13.60487	-15.29269	11.27051
13.60917	-15.29269	11.27051
13.61337	-15.29269	11.27051
13.61756	-15.29269	11.27051
13.62177	-15.27072	11.27051
13.62597	-15.27072	11.27051
13.63016	-15.27072	11.27051
13.63435	-15.27072	11.27051
13.63866	-15.27072	11.27051
13.64287	-15.27072	11.27051
13.64707	-15.24875	11.27051
13.65127	-15.24875	11.27051
13.65546	-15.24875	11.27051
13.65966	-15.24875	11.27051
13.66386	-15.24875	11.27051
13.66824	-15.22677	11.27051
13.67251	-15.22677	11.27051
13.67672	-15.22677	11.27051
13.68092	-15.22677	11.27051
13.68512	-15.22677	11.27051
13.68931	-15.22677	11.27051
13.69350	-15.22677	11.27051
13.69776	-15.20480	11.27051
13.70204	-15.20480	11.27051
13.70624	-15.20480	11.27051
13.71043	-15.20480	11.27051
13.71462	-15.20480	11.27051
13.71882	-15.18283	11.27051
13.72302	-15.18283	11.27051
13.72721	-15.18283	11.27051
13.73151	-15.18283	11.27051
13.73572	-15.16086	11.27051
13.73991	-15.16086	11.27051
13.74409	-15.16086	11.27051
13.74828	-15.16086	11.27051
13.75246	-15.16086	11.27051
13.75665	-15.16086	11.27051
13.76092	-15.13888	11.27051
13.76520	-15.13888	11.27051
13.76950	-15.13888	11.27051
13.77369	-15.13888	11.27051
13.77787	-15.13888	11.27051
13.78206	-15.13888	11.27051
13.78624	-15.11691	11.27051
13.79043	-15.11691	11.27051
13.79472	-15.11691	11.27051
13.79893	-15.11691	11.27051
13.80311	-15.11691	11.27051
13.80730	-15.11691	11.27051
13.81148	-15.09494	11.27051
13.81567	-15.09494	11.27051
13.81987	-15.09494	11.27051
13.82432	-15.09494	11.27051
13.82855	-15.09494	11.27051
13.83275	-15.09494	11.27051
13.83695	-15.07297	11.27051
13.84115	-15.07297	11.27051
13.84534	-15.07297	11.27051
13.84953	-15.07297	11.27051
13.85381	-15.05099	11.27051
13.85809	-15.05099	11.27051
13.86230	-15.05099	11.27051
13.86650	-15.05099	11.27051
13.87081	-15.05099	11.27051
13.87500	-15.05099	11.27051
13.87919	-15.05099	11.27051
13.88338	-15.02902	11.27051
13.88769	-15.02902	11.27051
13.89190	-15.02902	11.27051
13.89610	-15.02902	11.27051
13.90029	-15.02902	11.27051
13.90448	-15.02902	11.27051
13.90867	-15.02902	11.27051
13.91286	-15.02902	11.27051
13.91728	-15.00705	11.27051
13.92151	-15.00705	11.27051
13.92571	-15.00705	11.27051
13.92990	-15.00705	11.27051
13.93408	-15.00705	11.27051
13.93827	-15.00705	11.27051
13.94245	-15.00705	11.27051
13.94671	-15.00705	11.27051
13.95098	-15.00705	11.27051
13.95518	-15.00705	11.27051
13.95937	-15.00705	11.27051
13.96356	-15.00705	11.27051
13.96775	-15.00705	11.27051
13.97204	-15.00705	11.27051
13.97623	-15.00705	11.27051
13.98053	-15.00705	11.27051
13.98473	-15.00705	11.27051
13.98893	-15.00705	11.27051
13.99312	-15.00705	11.27051
13.99731	-15.00705	11.27051
14.00149	-15.00705	11.27051
14.00568	-15.00705	11.27051
14.01010	-15.00705	11.27051
14.01431	-15.00705	11.27051
14.01855	-15.00705	11.27051
14.02276	-15.00705	11.27051
14.02696	-15.00705	11.27051
14.03115	-15.00705	11.27051
14.03534	-15.00705	11.27051
14.03962	-15.00705	11.27051
14.04391	-15.00705	11.27051
14.04811	-15.00705	11.27051
14.05231	-15.00705	11.27051
14.05650	-15.00705	11.27051
14.06069	-15.02902	11.27051
14.06489	-15.02902	11.27051
14.06908	-15.02902	11.27051
14.07351	-15.02902	11.27051
14.07772	-15.02902	11.27051
14.08191	-15.02902	11.27051
14.08610	-15.02902	11.27051
14.09029	-15.02902	11.27051
14.09448	-15.02902	11.27051
14.09867	-15.02902	11.27051
14.10309	-15.05099	11.27051
14.10730	-15.05099	11.27051
14.11149	-15.05099	11.27051
14.11568	-15.05099	11.27051
14.11989	-15.05099	11.27051
14.12408	-15.05099	11.27051
14.12827	-15.07297	11.27051
14.13253	-15.07297	11.27051
14.13680	-15.07297	11.27051
14.14101	-15.07297	11.27051
14.14520	-15.07297	11.27051
14.14938	-15.07297	11.27051
14.15357	-15.09494	11.27051
14.15775	-15.09494	11.27051
14.16195	-15.09494	11.27051
14.16625	-15.09494	11.27051
14.17046	-15.11691	11.27051
14.17476	-15.11691	11.27051
14.17895	-15.11691	11.27051
14.18313	-15.13888	11.27051
14.18732	-15.13888	11.27051
14.19150	-15.13888	11.27051
14.19596	-15.13888	11.27051
14.20017	-15.13888	11.27051
14.20437	-15.13888	11.27051
14.20856	-15.16086	11.27051
14.21276	-15.16086	11.27051
14.21698	-15.16086	11.27051
14.22119	-15.16086	11.27051
14.22549	-15.16086	11.27051
14.22979	-15.18283	11.27051
14.23399	-15.18283	11.27051
14.23818	-15.18283	11.27051
14.24240	-15.18283	11.27051
14.24661	-15.18283	11.27051
14.25080	-15.18283	11.27051
14.25500	-15.20480	11.27051
14.25938	-15.20480	11.27051
14.26362	-15.20480	11.27051
14.26783	-15.22677	11.27051
14.27203	-15.22677	11.27051
14.27640	-15.22677	11.27051
14.28063	-15.22677	11.27051
14.28486	-15.22677	11.27051
14.28940	-15.22677	11.27051
14.29365	-15.24875	11.27051
14.29785	-15.24875	11.27051
14.30204	-15.24875	11.27051
14.30623	-15.24875	11.27051
14.31043	-15.24875	11.27051
14.31461	-15.27072	11.27051
14.31892	-15.27072	11.27051
14.32321	-15.27072	11.27051
14.32742	-15.29269	11.27051
14.33160	-15.29269	11.27051
14.33579	-15.29269	11.27051
14.33998	-15.29269	11.27051
14.34416	-15.29269	11.27051
14.34835	-15.29269	11.27051
14.35266	-15.29269	11.27051
14.35687	-15.29269	11.27051
14.36104	-15.31466	11.27051
14.36523	-15.31466	11.27051
14.36942	-15.31466	11.27051
14.37361	-15.31466	11.27051
14.37790	-15.31466	11.27051
14.38228	-15.31466	11.27051
14.38652	-15.33664	11.27051
14.39071	-15.33664	11.27051
14.39490	-15.33664	11.27051
14.39908	-15.35861	11.27051
14.40327	-15.35861	11.27051
14.40746	-15.35861	11.27051
14.41171	-15.35861	11.27051
14.41600	-15.35861	11.27051
14.42024	-15.35861	11.27051
14.42444	-15.38058	11.27051
14.42863	-15.35861	11.27051
14.43282	-15.38058	11.27051
14.43701	-15.38058	11.27051
14.44120	-15.38058	11.27051
14.44550	-15.38058	11.27051
14.44970	-15.38058	11.27051
14.45388	-15.40256	11.27051
14.45807	-15.40256	11.27051
14.46225	-15.40256	11.27051
14.46644	-15.40256	11.27051
14.47063	-15.40256	11.27051
14.47489	-15.40256	11.27051
14.47927	-15.42453	11.27051
14.48346	-15.42453	11.27051
14.48765	-15.42453	11.27051
14.49185	-15.42453	11.27051
14.49604	-15.44650	11.27051
14.50022	-15.42453	11.27051
14.50441	-15.44650	11.27051
14.50871	-15.44650	11.27051
14.51293	-15.44650	11.27051
14.51711	-15.44650	11.27051
14.52132	-15.44650	11.27051
14.52551	-15.46847	11.27051
14.52970	-15.46847	11.27051
14.53389	-15.46847	11.27051
14.53815	-15.46847	11.27051
14.54242	-15.46847	11.27051
14.54662	-15.46847	11.27051
14.55081	-15.49045	11.27051
14.55499	-15.49045	11.27051
14.55918	-15.49045	11.27051
14.56336	-15.49045	11.27051
14.56755	-15.49045	11.27051
14.57185	-15.51242	11.27051
14.57606	-15.51242	11.27051
14.58035	-15.51242	11.27051
14.58453	-15.51242	11.27051
14.58872	-15.51242	11.27051
14.59291	-15.51242	11.27051
14.59709	-15.53439	11.27051
14.60149	-15.53439	11.27051
14.60571	-15.53439	11.27051
14.60990	-15.53439	11.27051
14.61408	-15.53439	11.27051
14.61827	-15.55636	11.27051
14.62247	-15.55636	11.27051
14.62665	-15.55636	11.27051
14.63091	-15.55636	11.27051
14.63521	-15.55636	11.27051
14.63942	-15.57834	11.27051
14.64360	-15.57834	11.27051
14.64779	-15.57834	11.27051
14.65197	-15.57834	11.27051
14.65616	-15.57834	11.27051
14.66034	-15.60031	11.27051
14.66465	-15.60031	11.27051
14.66885	-15.60031	11.27051
14.67302	-15.60031	11.27051
14.67720	-15.60031	11.27051
14.68149	-15.60031	11.27051
14.68568	-15.60031	11.27051
14.68986	-15.62228	11.27051
14.69412	-15.62228	11.27051
14.69838	-15.62228	11.27051
14.70257	-15.64425	11.27051
14.70676	-15.64425	11.27051
14.71094	-15.64425	11.27051
14.71513	-15.64425	11.27051
14.71936	-15.64425	11.27051
14.72355	-15.64425	11.27051
14.72786	-15.64425	11.27051
14.73206	-15.66623	11.27051
14.73625	-15.66623	11.27051
14.74044	-15.66623	11.27051
14.74462	-15.66623	11.27051
14.74882	-15.66623	11.27051
14.75301	-15.68820	11.27051
14.75726	-15.66623	11.27051
14.76154	-15.68820	11.27051
14.76573	-15.68820	11.27051
14.76992	-15.68820	11.27051
14.77411	-15.68820	11.27051
14.77832	-15.71017	11.27051
14.78262	-15.71017	11.27051
14.78680	-15.71017	11.27051
14.79115	-15.71017	11.27051
14.79539	-15.73214	11.27051
14.79958	-15.73214	11.27051
14.80378	-15.73214	11.27051
14.80797	-15.73214	11.27051
14.81216	-15.73214	11.27051
14.81635	-15.75412	11.27051
14.82064	-15.75412	11.27051
14.82495	-15.75412	11.27051
14.82916	-15.75412	11.27051
14.83335	-15.75412	11.27051
14.83754	-15.75412	11.27051
14.84173	-15.75412	11.27051
14.84592	-15.77609	11.27051
14.85011	-15.77609	11.27051
14.85442	-15.77609	11.27051
14.85862	-15.77609	11.27051
14.86281	-15.79806	11.27051
14.86700	-15.77609	11.27051
14.87119	-15.79806	11.27051
14.87538	-15.79806	11.27051
14.87957	-15.82004	11.27051
14.88415	-15.82004	11.27051
14.88835	-15.82004	11.27051
14.89254	-15.82004	11.27051
14.89674	-15.82004	11.27051
14.90094	-15.84201	11.27051
14.90513	-15.84201	11.27051
14.90932	-15.84201	11.27051
14.91358	-15.84201	11.27051
14.91786	-15.84201	11.27051
14.92208	-15.86398	11.27051
14.92628	-15.86398	11.27051
14.93048	-15.88595	11.27051
14.93467	-15.88595	11.27051
14.93887	-15.88595	11.27051
14.94305	-15.88595	11.27051
14.94735	-15.88595	11.27051
14.95156	-15.88595	11.27051
14.95574	-15.90793	11.27051
14.95993	-15.90793	11.27051
14.96412	-15.90793	11.27051
14.96830	-15.90793	11.27051
14.97249	-15.90793	11.27051
14.97696	-15.92990	11.27051
14.98118	-15.92990	11.27051
14.98550	-15.95187	11.27051
14.98969	-15.95187	11.27051
14.99388	-15.95187	11.27051
14.99808	-15.95187	11.27051
15.00267	-15.97384	1.54348
15.00693	-15.95187	1.54348
15.01122	-15.97384	1.54348
15.01541	-15.97384	1.54348
15.01960	-15.97384	1.54348
15.02380	-15.97384	1.54348
15.02800	-15.99582	1.54348
15.03219	-15.99582	1.54348
15.03638	-15.99582	1.54348
15.04069	-15.99582	1.54348
15.04494	-16.01779	1.54348
15.04914	-16.01779	1.54348
15.05334	-16.01779	1.54348
15.05753	-16.01779	1.54348
15.06172	-16.03976	1.54348
15.06591	-16.01779	1.54348
15.07043	-16.03976	1.54348
15.07465	-16.03976	1.54348
15.07884	-16.03976	1.54348
15.08304	-16.03976	1.54348
15.08722	-16.01779	1.54348
15.09141	-16.01779	1.54348
15.09559	-16.03976	1.54348
15.09984	-16.03976	1.54348
15.10422	-16.01779	1.54348
15.10841	-16.03976	1.54348
15.11260	-16.01779	1.54348
15.11678	-16.01779	1.54348
15.12099	-16.01779	1.54348
15.12519	-16.01779	1.54348
15.12937	-15.99582	1.54348
15.13367	-15.99582	1.54348
15.13787	-15.99582	1.54348
15.14207	-15.99582	1.54348
15.14626	-15.97384	1.54348
15.15045	-15.97384	1.54348
15.15463	-15.95187	1.54348
15.15882	-15.95187	1.54348
15.16330	-15.92990	1.54348
15.16753	-15.92990	1.54348
15.17173	-15.90793	1.54348
15.17592	-15.88595	1.54348
15.18013	-15.88595	1.54348
15.18432	-15.86398	1.54348
15.18851	-15.84201	1.54348
15.19279	-15.82004	1.54348
15.19710	-15.79806	1.54348
15.20130	-15.77609	1.54348
15.20561	-15.77609	1.54348
15.20980	-15.75412	1.54348
15.21399	-15.71017	1.54348
15.21818	-15.71017	1.54348
15.22239	-15.66623	1.54348
15.22671	-15.62228	1.54348
15.23092	-15.60031	1.54348
15.23512	-15.60031	1.54348
15.23931	-15.57834	1.54348
15.24353	-15.53439	1.54348
15.24772	-15.51242	1.54348
15.25191	-15.46847	1.54348
15.25634	-15.42453	1.54348
15.26056	-15.42453	1.54348
15.26475	-15.40256	1.54348
15.26895	-15.35861	1.54348
15.27315	-15.31466	1.54348
15.27734	-15.27072	1.54348
15.28153	-15.27072	1.54348
15.28580	-15.22677	1.54348
15.29013	-15.20480	1.54348
15.29434	-15.16086	1.54348
15.29853	-15.09494	1.54348
15.30272	-15.07297	1.54348
15.30700	-15.00705	1.54348
15.31119	-15.00705	1.54348
15.31537	-14.96310	1.54348
15.31967	-14.91916	1.54348
15.32389	-14.87521	1.54348
15.32808	-14.80929	1.54348
15.33227	-14.76535	1.54348
15.33646	-14.76535	1.54348
15.34065	-14.69943	1.54348
15.34484	-14.65548	1.54348
15.34910	-14.58957	1.54348
15.35336	-14.54562	1.54348
15.35756	-14.47970	1.54348
15.36174	-14.41379	1.54348
15.36593	-14.41379	1.54348
15.37011	-14.36984	1.54348
15.37430	-14.28195	1.54348
15.37848	-14.23800	1.54348
15.38277	-14.17209	1.54348
15.38698	-14.10617	1.54348
15.39117	-14.04025	1.54348
15.39535	-14.04025	1.54348
15.39954	-13.97433	1.54348
15.40372	-13.90841	1.54348
15.40801	-13.84250	1.54348
15.41242	-13.75461	1.54348
15.41665	-13.75461	1.54348
15.42087	-13.68869	1.54348
15.42504	-13.62277	1.54348
15.42923	-13.55685	1.54348
15.43342	-13.46896	1.54348
15.43761	-13.40304	1.54348
15.44189	-13.31515	1.54348
15.44617	-13.31515	1.54348
15.45038	-13.24923	1.54348
15.45457	-13.16134	1.54348
15.45876	-13.09543	1.54348
15.46295	-13.00754	1.54348
15.46714	-12.91964	1.54348
15.47133	-12.85373	1.54348
15.47563	-12.85373	1.54348
15.47984	-12.76584	1.54348
15.48405	-12.67795	1.54348
15.48824	-12.59006	1.54348
15.49243	-12.50216	1.54348
15.49662	-12.41427	1.54348
15.50081	-12.41427	1.54348
15.50510	-12.32638	1.54348
15.50945	-12.23849	1.54348
15.51364	-12.15060	1.54348
15.51783	-12.06271	1.54348
15.52203	-12.06271	1.54348
15.52622	-11.97482	1.54348
15.53041	-11.86496	1.54348
15.53467	-11.77707	1.54348
15.53894	-11.68918	1.54348
15.54315	-11.60129	1.54348
15.54734	-11.60129	1.54348
15.55152	-11.49142	1.54348
15.55571	-11.38156	1.54348
15.55989	-11.31564	1.54348
15.56408	-11.22775	1.54348
15.56836	-11.11789	1.54348
15.57257	-11.00802	1.54348
15.57676	-11.00802	1.54348
15.58096	-10.92013	1.54348
15.58515	-10.81027	1.54348
15.58934	-10.70041	1.54348
15.59352	-10.61252	1.54348
15.59777	-10.52463	1.54348
15.60202	-10.52463	1.54348
15.60622	-10.41476	1.54348
15.61051	-10.32687	1.54348
15.61470	-10.21701	1.54348
15.61888	-10.10714	1.54348
15.62308	-9.99728	1.54348
15.62727	-9.99728	1.54348
15.63157	-9.88742	1.54348
15.63578	-9.77756	1.54348
15.63996	-9.66769	1.54348
15.64416	-9.57980	1.54348
15.64834	-9.49191	1.54348
15.65253	-9.36007	1.54348
15.65671	-9.36007	1.54348
15.66099	-9.25021	1.54348
15.66525	-9.16232	1.54348
15.66945	-9.03048	1.54348
15.67364	-8.92062	1.54348
15.67782	-8.92062	1.54348
15.68201	-8.72287	1.54348
15.68620	-8.72287	1.54348
15.69038	-8.61300	1.54348
15.69467	-8.50314	1.54348
15.69888	-8.39328	1.54348
15.70306	-8.26144	1.54348
15.70725	-8.26144	1.54348
15.71153	-8.15158	1.54348
15.71571	-8.04172	1.54348
15.71990	-7.93185	1.54348
15.72432	-7.80002	1.54348
15.72855	-7.71213	1.54348
15.73275	-7.60226	1.54348
15.73695	-7.60226	1.54348
15.74113	-7.49240	1.54348
15.74532	-7.36056	1.54348
15.74950	-7.25070	1.54348
15.75377	-7.14084	1.54348
15.75805	-7.03097	1.54348
15.76225	-7.03097	1.54348
15.76643	-6.89914	1.54348
15.77061	-6.78927	1.54348
15.77480	-6.67941	1.54348
15.77898	-6.56955	1.54348
15.78316	-6.56955	1.54348
15.78745	-6.43771	1.54348
15.79166	-6.32785	1.54348
15.79585	-6.21798	1.54348
15.80003	-6.10812	1.54348
15.80422	-5.97629	1.54348
15.80840	-5.97629	1.54348
15.81268	-5.86642	1.54348
15.81695	-5.77853	1.54348
15.82122	-5.66867	1.54348
15.82544	-5.53683	1.54348
15.82963	-5.42697	1.54348
15.83383	-5.29513	1.54348
15.83811	-5.29513	1.54348
15.84232	-5.20724	1.54348
15.84652	-5.09738	1.54348
15.85083	-4.96554	1.54348
15.85505	-4.87765	1.54348
15.85925	-4.76779	1.54348
15.86344	-4.65793	1.54348
15.86763	-4.65793	1.54348
15.87182	-4.52609	1.54348
15.87601	-4.41623	1.54348
15.88042	-4.30636	1.54348
15.88464	-4.19650	1.54348
15.88883	-4.08664	1.54348
15.89302	-4.08664	1.54348
15.89720	-3.97677	1.54348
15.90139	-3.88888	1.54348
15.90557	-3.77902	1.54348
15.90983	-3.64718	1.54348
15.91420	-3.53732	1.54348
15.91839	-3.53732	1.54348
15.92259	-3.42746	1.54348
15.92679	-3.31759	1.54348
15.93098	-3.22970	1.54348
15.93518	-3.09787	1.54348
15.93936	-3.00998	1.54348
15.94365	-2.90011	1.54348
15.94786	-2.90011	1.54348
15.95205	-2.81222	1.54348
15.95624	-2.70236	1.54348
15.96043	-2.59250	1.54348
15.96462	-2.46066	1.54348
15.96880	-2.37277	1.54348
15.97307	-2.37277	1.54348
15.97733	-2.26291	1.54348
15.98153	-2.15304	1.54348
15.98571	-2.06515	1.54348
15.98990	-1.95529	1.54348
15.99408	-1.84543	1.54348
15.99826	-1.84543	1.54348
16.00245	-1.75754	1.54348
16.00673	-1.64767	1.54348
16.01094	-1.53781	1.54348
16.01523	-1.42795	1.54348
16.01942	-1.34006	1.54348
16.02362	-1.34006	1.54348
16.02781	-1.23019	1.54348
16.03201	-1.14230	1.54348
16.03645	-1.03244	1.54348
16.04067	-0.94455	1.54348
16.04487	-0.83468	1.54348
16.04903	-0.83468	1.54348
16.05323	-0.74679	1.54348
16.05742	-0.63693	1.54348
16.06161	-0.54904	1.54348
16.06588	-0.43918	1.54348
16.07016	-0.37326	1.54348
16.07436	-0.26339	1.54348
16.07856	-0.26339	1.54348
16.08275	-0.17550	1.54348
16.08694	-0.06564	1.54348
16.09113	0.02225	1.54348
16.09532	0.11014	1.54348
16.09962	0.11014	1.54348
16.10383	0.19803	1.54348
16.10803	0.28592	1.54348
16.11222	0.37381	1.54348
16.11652	0.46170	1.54348
16.12071	0.54959	1.54348
16.12492	0.63748	1.54348
16.12934	0.63748	1.54348
16.13356	0.72537	1.54348
16.13777	0.81327	1.54348
16.14197	0.90116	1.54348
16.14617	0.96707	1.54348
16.15036	1.07694	1.54348
16.15455	1.14286	1.54348
16.15885	1.14286	1.54348
16.16314	1.20877	1.54348
16.16735	1.29666	1.54348
16.17154	1.38455	1.54348
16.17573	1.47244	1.54348
16.17992	1.53836	1.54348
16.18411	1.53836	1.54348
16.18829	1.62625	1.54348
16.19259	1.69217	1.54348
16.19681	1.75809	1.54348
16.20101	1.82401	1.54348
16.20520	1.88993	1.54348
16.20939	1.97782	1.54348
16.21357	1.97782	1.54348
16.21786	2.04373	1.54348
16.22233	2.10965	1.54348
16.22657	2.17557	1.54348
16.23076	2.24149	1.54348
16.23496	2.30741	1.54348
16.23915	2.37332	1.54348
16.24350	2.37332	1.54348
16.24770	2.43924	1.54348
16.25198	2.50516	1.54348
16.25626	2.54911	1.54348
16.26047	2.61502	1.54348
16.26466	2.68094	1.54348
16.26886	2.68094	1.54348
16.27303	2.72489	1.54348
16.27722	2.79080	1.54348
16.28141	2.83475	1.54348
16.28570	2.90067	1.54348
16.28992	2.90067	1.54348
16.29412	2.96659	1.54348
16.29832	3.01053	1.54348
16.30251	3.05448	1.54348
16.30670	3.12039	1.54348
16.31089	3.16434	1.54348
16.31530	3.16434	1.54348
16.31963	3.20828	1.54348
16.32384	3.25223	1.54348
16.32805	3.29618	1.54348
16.33224	3.34012	1.54348
16.33644	3.38407	1.54348
16.34063	3.42801	1.54348
16.34493	3.42801	1.54348
16.34919	3.47196	1.54348
16.35340	3.51590	1.54348
16.35759	3.55985	1.54348
16.36178	3.58182	1.54348
16.36597	3.62577	1.54348
16.37015	3.64774	1.54348
16.37434	3.64774	1.54348
16.37863	3.69168	1.54348
16.38284	3.71366	1.54348
16.38702	3.75760	1.54348
16.39121	3.80155	1.54348
16.39540	3.80155	1.54348
16.39958	3.82352	1.54348
16.40377	3.86746	1.54348
16.40802	3.88944	1.54348
16.41227	3.91141	1.54348
16.41647	3.93338	1.54348
16.42076	3.95536	1.54348
16.42498	3.95536	1.54348
16.42917	3.97733	1.54348
16.43336	3.99930	1.54348
16.43755	4.02127	1.54348
16.44187	4.04325	1.54348
16.44608	4.06522	1.54348
16.45027	4.08719	1.54348
16.45446	4.08719	1.54348
16.45864	4.10916	1.54348
16.46282	4.13114	1.54348
16.46701	4.13114	1.54348
16.47143	4.15311	1.54348
16.47565	4.15311	1.54348
16.47985	4.15311	1.54348
16.48404	4.17508	1.54348
16.48824	4.19705	1.54348
16.49243	4.19705	1.54348
16.49662	4.19705	1.54348
16.50090	4.19705	1.54348
16.50519	4.19705	1.54348
16.50940	4.21903	1.54348
16.51359	4.21903	1.54348
16.51778	4.21903	1.54348
16.52212	4.21903	1.54348
16.52631	4.21903	1.54348
16.53051	4.21903	1.54348
16.53481	4.21903	1.54348
16.53903	4.24100	1.54348
16.54322	4.24100	1.54348
16.54741	4.21903	1.54348
16.55160	4.21903	1.54348
16.55580	4.21903	1.54348
16.55998	4.21903	1.54348
16.56440	4.21903	1.54348
16.56862	4.21903	1.54348
16.57281	4.19705	1.54348
16.57702	4.19705	1.54348
16.58121	4.19705	1.54348
16.58540	4.19705	1.54348
16.58959	4.17508	1.54348
16.59386	4.15311	1.54348
16.59813	4.15311	1.54348
16.60233	4.13114	1.54348
16.60652	4.13114	1.54348
16.61070	4.13114	1.54348
16.61489	4.10916	1.54348
16.61908	4.08719	1.54348
16.62340	4.06522	1.54348
16.62770	4.04325	1.54348
16.63191	4.02127	1.54348
16.63610	4.02127	1.54348
16.64028	4.02127	1.54348
16.64448	3.97733	1.54348
16.64867	3.97733	1.54348
16.65287	3.93338	1.54348
16.65711	3.91141	1.54348
16.66138	3.91141	1.54348
16.66558	3.88944	1.54348
16.66977	3.86746	1.54348
16.67395	3.84549	1.54348
16.67814	3.80155	1.54348
16.68233	3.75760	1.54348
16.68652	3.75760	1.54348
16.69081	3.73563	1.54348
16.69502	3.69168	1.54348
16.69921	3.66971	1.54348
16.70340	3.62577	1.54348
16.70758	3.60379	1.54348
16.71177	3.55985	1.54348
16.71595	3.55985	1.54348
16.72021	3.53787	1.54348
16.72461	3.49393	1.54348
16.72880	3.44998	1.54348
16.73301	3.40604	1.54348
16.73719	3.38407	1.54348
16.74138	3.38407	1.54348
16.74556	3.34012	1.54348
16.74975	3.29618	1.54348
16.75404	3.25223	1.54348
16.75825	3.20828	1.54348
16.76244	3.16434	1.54348
16.76662	3.09842	1.54348
16.77081	3.09842	1.54348
16.77499	3.05448	1.54348
16.77918	3.01053	1.54348
16.78343	2.96659	1.54348
16.78768	2.90067	1.54348
16.79190	2.90067	1.54348
16.79609	2.85672	1.54348
16.80027	2.81278	1.54348
16.80446	2.74686	1.54348
16.80864	2.70291	1.54348
16.81283	2.63700	1.54348
16.81712	2.63700	1.54348
16.82133	2.59305	1.54348
16.82565	2.52713	1.54348
16.82983	2.48319	1.54348
16.83403	2.41727	1.54348
16.83822	2.37332	1.54348
16.84241	2.30741	1.54348
16.84686	2.30741	1.54348
16.85108	2.26346	1.54348
16.85527	2.19754	1.54348
16.85947	2.13162	1.54348
16.86366	2.06571	1.54348
16.86785	1.99979	1.54348
16.87204	1.99979	1.54348
16.87632	1.93387	1.54348
16.88060	1.86795	1.54348
16.88482	1.82401	1.54348
16.88902	1.73612	1.54348
16.89322	1.67020	1.54348
16.89741	1.67020	1.54348
16.90160	1.60428	1.54348
16.90579	1.53836	1.54348
16.91011	1.47244	1.54348
16.91432	1.40653	1.54348
16.91852	1.34061	1.54348
16.92273	1.27469	1.54348
16.92705	1.27469	1.54348
16.93124	1.20877	1.54348
16.93544	1.12088	1.54348
16.93985	1.05496	1.54348
16.94409	0.96707	1.54348
16.94829	0.90116	1.54348
16.95248	0.90116	1.54348
16.95667	0.83524	1.54348
16.96086	0.74735	1.54348
16.96502	0.70340	1.54348
16.96931	0.61551	1.54348
16.97361	0.54959	1.54348
16.97782	0.46170	1.54348
16.98201	0.46170	1.54348
16.98619	0.37381	1.54348
16.99037	0.30789	1.54348
16.99456	0.22000	1.54348
16.99874	0.15409	1.54348
17.00304	0.06619	1.54348
17.00724	0.00028	1.54348
17.01143	0.00028	1.54348
17.01562	-0.08761	1.54348
17.01980	-0.17550	1.54348
17.02400	-0.26339	1.54348
17.02832	-0.32931	1.54348
17.03258	-0.32931	1.54348
17.03686	-0.41720	1.54348
17.04104	-0.48312	1.54348
17.04522	-0.57101	1.54348
17.04941	-0.65890	1.54348
17.05359	-0.74679	1.54348
17.05778	-0.74679	1.54348
17.06196	-0.83468	1.54348
17.06626	-0.90060	1.54348
17.07046	-0.98849	1.54348
17.07465	-1.07638	1.54348
17.07883	-1.16427	1.54348
17.08302	-1.16427	1.54348
17.08720	-1.25216	1.54348
17.09138	-1.34006	1.54348
17.09564	-1.40597	1.54348
17.09991	-1.49386	1.54348
17.10410	-1.58175	1.54348
17.10829	-1.58175	1.54348
17.11247	-1.64767	1.54348
17.11666	-1.73556	1.54348
17.12084	-1.82345	1.54348
17.12504	-1.91134	1.54348
17.12947	-1.99923	1.54348
17.13367	-2.08713	1.54348
17.13785	-2.08713	1.54348
17.14204	-2.15304	1.54348
17.14622	-2.24093	1.54348
17.15041	-2.32882	1.54348
17.15459	-2.41672	1.54348
17.15899	-2.50461	1.54348
17.16323	-2.50461	1.54348
17.16742	-2.59250	1.54348
17.17160	-2.68039	1.54348
17.17579	-2.76828	1.54348
17.17998	-2.83420	1.54348
17.18417	-2.92209	1.54348
17.18845	-3.00998	1.54348
17.19274	-3.00998	1.54348
17.19697	-3.09787	1.54348
17.20115	-3.18576	1.54348
17.20534	-3.27365	1.54348
17.20952	-3.33957	1.54348
17.21371	-3.33957	1.54348
17.21789	-3.42746	1.54348
17.22220	-3.49338	1.54348
17.22643	-3.58127	1.54348
17.23077	-3.66916	1.54348
17.23496	-3.75705	1.54348
17.23915	-3.84494	1.54348
17.24334	-3.84494	1.54348
17.24754	-3.93283	1.54348
17.25199	-4.02072	1.54348
17.25621	-4.08664	1.54348
17.26040	-4.17453	1.54348
17.26459	-4.24045	1.54348
17.26878	-4.32834	1.54348
17.27298	-4.32834	1.54348
17.27716	-4.41623	1.54348
17.28143	-4.48214	1.54348
17.28572	-4.59201	1.54348
17.28992	-4.65793	1.54348
17.29411	-4.74582	1.54348
17.29829	-4.74582	1.54348
17.30248	-4.81173	1.54348
17.30666	-4.89963	1.54348
17.31085	-4.96554	1.54348
17.31515	-5.05343	1.54348
17.31935	-5.05343	1.54348
17.32356	-5.14132	1.54348
17.32775	-5.20724	1.54348
17.33204	-5.29513	1.54348
17.33622	-5.38302	1.54348
17.34041	-5.44894	1.54348
17.34467	-5.44894	1.54348
17.34900	-5.53683	1.54348
17.35326	-5.58078	1.54348
17.35748	-5.66867	1.54348
17.36169	-5.73459	1.54348
17.36589	-5.82248	1.54348
17.37009	-5.88839	1.54348
17.37436	-5.88839	1.54348
17.37865	-5.97629	1.54348
17.38289	-6.04220	1.54348
17.38708	-6.10812	1.54348
17.39127	-6.17404	1.54348
17.39546	-6.23996	1.54348
17.39966	-6.30588	1.54348
17.40384	-6.30588	1.54348
17.40815	-6.39377	1.54348
17.41235	-6.45968	1.54348
17.41654	-6.52560	1.54348
17.42072	-6.59152	1.54348
17.42492	-6.65744	1.54348
17.42911	-6.65744	1.54348
17.43340	-6.74533	1.54348
17.43766	-6.78927	1.54348
17.44193	-6.85519	1.54348
17.44612	-6.92111	1.54348
17.45031	-6.98703	1.54348
17.45450	-6.98703	1.54348
17.45868	-7.05295	1.54348
17.46286	-7.14084	1.54348
17.46709	-7.18478	1.54348
17.47139	-7.25070	1.54348
17.47560	-7.31662	1.54348
17.47979	-7.36056	1.54348
17.48398	-7.36056	1.54348
17.48816	-7.42648	1.54348
17.49235	-7.49240	1.54348
17.49653	-7.55832	1.54348
17.50099	-7.62423	1.54348
17.50520	-7.66818	1.54348
17.50939	-7.66818	1.54348
17.51358	-7.75607	1.54348
17.51776	-7.80002	1.54348
17.52195	-7.84396	1.54348
17.52613	-7.90988	1.54348
17.53052	-7.95382	1.54348
17.53494	-8.01974	1.54348
17.53914	-8.01974	1.54348
17.54332	-8.06369	1.54348
17.54751	-8.12961	1.54348
17.55170	-8.17355	1.54348
17.55588	-8.23947	1.54348
17.56006	-8.28341	1.54348
17.56437	-8.28341	1.54348
17.56857	-8.32736	1.54348
17.57276	-8.39328	1.54348
17.57696	-8.43722	1.54348
17.58114	-8.50314	1.54348
17.58533	-8.50314	1.54348
17.58951	-8.54709	1.54348
17.59377	-8.59103	1.54348
17.59803	-8.63498	1.54348
17.60223	-8.67892	1.54348
17.60642	-8.72287	1.54348
17.61060	-8.76681	1.54348
17.61479	-8.76681	1.54348
17.61897	-8.81076	1.54348
17.62316	-8.85470	1.54348
17.62745	-8.89865	1.54348
17.63166	-8.92062	1.54348
17.63595	-8.96457	1.54348
17.64013	-8.96457	1.54348
17.64434	-9.00851	1.54348
17.64853	-9.05246	1.54348
17.65272	-9.07443	1.54348
17.65718	-9.11838	1.54348
17.66139	-9.16232	1.54348
17.66558	-9.18429	1.54348
17.66976	-9.18429	1.54348
17.67395	-9.22824	1.54348
17.67814	-9.25021	1.54348
17.68232	-9.29416	1.54348
17.68658	-9.31613	1.54348
17.69087	-9.33810	1.54348
17.69506	-9.33810	1.54348
17.69925	-9.36007	1.54348
17.70344	-9.40402	1.54348
17.70763	-9.42599	1.54348
17.71182	-9.46994	1.54348
17.71600	-9.49191	1.54348
17.72030	-9.49191	1.54348
17.72451	-9.51388	1.54348
17.72870	-9.53586	1.54348
17.73290	-9.55783	1.54348
17.73719	-9.57980	1.54348
17.74137	-9.60177	1.54348
17.74556	-9.62375	1.54348
17.74981	-9.62375	1.54348
17.75408	-9.62375	1.54348
17.75827	-9.64572	1.54348
17.76246	-9.66769	1.54348
17.76665	-9.68966	1.54348
17.77083	-9.68966	1.54348
17.77501	-9.71164	1.54348
17.77920	-9.71164	1.54348
17.78349	-9.71164	1.54348
17.78769	-9.73361	1.54348
17.79188	-9.75558	1.54348
17.79606	-9.75558	1.54348
17.80025	-9.75558	1.54348
17.80444	-9.77756	1.54348
17.80862	-9.77756	1.54348
17.81288	-9.77756	1.54348
17.81714	-9.79953	1.54348
17.82133	-9.79953	1.54348
17.82552	-9.79953	1.54348
17.82970	-9.79953	1.54348
17.83389	-9.79953	1.54348
17.83818	-9.79953	1.54348
17.84237	-9.82150	1.54348
17.84667	-9.82150	1.54348
17.85088	-9.79953	1.54348
17.85507	-9.79953	1.54348
17.85925	-9.79953	1.54348
17.86344	-9.79953	1.54348
17.86763	-9.79953	1.54348
17.87181	-9.79953	1.54348
17.87606	-9.79953	1.54348
17.88033	-9.79953	1.54348
17.88453	-9.79953	1.54348
17.88871	-9.77756	1.54348
17.89291	-9.77756	1.54348
17.89710	-9.77756	1.54348
17.90128	-9.75558	1.54348
17.90547	-9.75558	1.54348
17.90977	-9.75558	1.54348
17.91397	-9.75558	1.54348
17.91815	-9.73361	1.54348
17.92234	-9.71164	1.54348
17.92652	-9.71164	1.54348
17.93071	-9.71164	1.54348
17.93489	-9.68966	1.54348
17.93925	-9.66769	1.54348
17.94351	-9.66769	1.54348
17.94770	-9.64572	1.54348
17.95189	-9.62375	1.54348
17.95608	-9.62375	1.54348
17.96026	-9.62375	1.54348
17.96444	-9.60177	1.54348
17.96863	-9.57980	1.54348
17.97294	-9.55783	1.54348
17.97714	-9.53586	1.54348
17.98133	-9.53586	1.54348
17.98552	-9.51388	1.54348
17.98970	-9.49191	1.54348
17.99389	-9.46994	1.54348
17.99807	-9.44797	1.54348
18.00232	-9.42599	1.54348
18.00659	-9.40402	1.54348
18.01078	-9.40402	1.54348
18.01497	-9.38205	1.54348
18.01915	-9.36007	1.54348
18.02334	-9.33810	1.54348
18.02752	-9.29416	1.54348
18.03172	-9.27218	1.54348
18.03604	-9.27218	1.54348
18.04035	-9.25021	1.54348
18.04454	-9.22824	1.54348
18.04873	-9.20627	1.54348
18.05293	-9.16232	1.54348
18.05712	-9.14035	1.54348
18.06131	-9.14035	1.54348
18.06575	-9.11838	1.54348
18.06996	-9.07443	1.54348
18.07415	-9.05246	1.54348
18.07834	-9.03048	1.54348
18.08252	-8.98654	1.54348
18.08671	-8.98654	1.54348
18.09089	-8.94259	1.54348
18.09516	-8.92062	1.54348
18.09944	-8.89865	1.54348
18.10364	-8.85470	1.54348
18.10783	-8.85470	1.54348
18.11202	-8.81076	1.54348
18.11621	-8.78879	1.54348
18.12039	-8.76681	1.54348
18.12458	-8.72287	1.54348
18.12889	-8.67892	1.54348
18.13309	-8.65695	1.54348
18.13728	-8.65695	1.54348
18.14157	-8.61300	1.54348
18.14576	-8.56906	1.54348
18.14994	-8.54709	1.54348
18.15413	-8.50314	1.54348
18.15838	-8.48117	1.54348
18.16267	-8.43722	1.54348
18.16687	-8.43722	1.54348
18.17106	-8.39328	1.54348
18.17525	-8.34933	1.54348
18.17944	-8.32736	1.54348
18.18363	-8.28341	1.54348
18.18781	-8.23947	1.54348
18.19211	-8.23947	1.54348
18.19632	-8.19552	1.54348
18.20051	-8.15158	1.54348
18.20469	-8.12961	1.54348
18.20890	-8.08566	1.54348
18.21309	-8.04172	1.54348
18.21727	-8.04172	1.54348
18.22173	-7.99777	1.54348
18.22594	-7.95382	1.54348
18.23013	-7.90988	1.54348
18.23432	-7.88791	1.54348
18.23850	-7.82199	1.54348
18.24279	-7.80002	1.54348
18.24698	-7.80002	1.54348
18.25124	-7.75607	1.54348
18.25590	-7.69015	1.54348
18.26011	-7.64621	1.54348
18.26430	-7.60226	1.54348
18.26848	-7.58029	1.54348
18.27267	-7.58029	1.54348
18.27685	-7.51437	1.54348
18.28111	-7.47043	1.54348
18.28539	-7.42648	1.54348
18.28959	-7.38254	1.54348
18.29379	-7.33859	1.54348
18.29798	-7.29464	1.54348
18.30216	-7.29464	1.54348
18.30635	-7.25070	1.54348
18.31053	-7.20675	1.54348
18.31484	-7.16281	1.54348
18.31904	-7.11886	1.54348
18.32323	-7.07492	1.54348
18.32741	-7.07492	1.54348
18.33160	-7.00900	1.54348
18.33578	-6.96506	1.54348
18.33997	-6.92111	1.54348
18.34433	-6.87716	1.54348
18.34858	-6.81125	1.54348
18.35277	-6.81125	1.54348
18.35697	-6.76730	1.54348
18.36116	-6.72336	1.54348
18.36534	-6.67941	1.54348
18.36952	-6.61349	1.54348
18.37371	-6.59152	1.54348
18.37803	-6.59152	1.54348
18.38223	-6.52560	1.54348
18.38641	-6.48166	1.54348
18.39060	-6.43771	1.54348
18.39479	-6.37179	1.54348
18.39897	-6.32785	1.54348
18.40315	-6.32785	1.54348
18.40741	-6.28390	1.54348
18.41171	-6.21798	1.54348
18.41590	-6.19601	1.54348
18.42009	-6.13009	1.54348
18.42427	-6.08615	1.54348
18.42846	-6.04220	1.54348
18.43265	-6.04220	1.54348
18.43683	-5.97629	1.54348
18.44116	-5.93234	1.54348
18.44546	-5.88839	1.54348
18.44965	-5.82248	1.54348
18.45384	-5.82248	1.54348
18.45802	-5.77853	1.54348
18.46220	-5.73459	1.54348
18.46639	-5.66867	1.54348
18.47087	-5.62472	1.54348
18.47509	-5.58078	1.54348
18.47929	-5.51486	1.54348
18.48348	-5.51486	1.54348
18.48769	-5.47091	1.54348
18.49188	-5.42697	1.54348
18.49606	-5.38302	1.54348
18.50033	-5.31711	1.54348
18.50459	-5.27316	1.54348
18.50880	-5.20724	1.54348
18.51300	-5.20724	1.54348
18.51718	-5.16330	1.54348
18.52137	-5.11935	1.54348
18.52555	-5.07541	1.54348
18.52974	-5.00949	1.54348
18.53406	-4.96554	1.54348
18.53827	-4.96554	1.54348
18.54246	-4.92160	1.54348
18.54675	-4.87765	1.54348
18.55094	-4.81173	1.54348
18.55512	-4.76779	1.54348
18.55931	-4.70187	1.54348
18.56375	-4.65793	1.54348
18.56796	-4.65793	1.54348
18.57215	-4.61398	1.54348
18.57634	-4.57004	1.54348
18.58052	-4.50412	1.54348
18.58471	-4.46017	1.54348
18.58890	-4.46017	1.54348
18.59315	-4.41623	1.54348
18.59743	-4.35031	1.54348
18.60163	-4.30636	1.54348
18.60581	-4.26242	1.54348
18.61000	-4.19650	1.54348
18.61418	-4.19650	1.54348
18.61837	-4.15256	1.54348
18.62255	-4.08664	1.54348
18.62685	-4.04269	1.54348
18.63105	-4.02072	1.54348
18.63527	-3.95480	1.54348
18.63946	-3.91086	1.54348
18.64365	-3.91086	1.54348
18.64793	-3.86691	1.54348
18.65211	-3.82297	1.54348
18.65637	-3.75705	1.54348
18.66064	-3.71310	1.54348
18.66483	-3.71310	1.54348
18.66903	-3.66916	1.54348
18.67321	-3.62521	1.54348
18.67740	-3.58127	1.54348
18.68158	-3.53732	1.54348
18.68577	-3.47140	1.54348
18.69006	-3.42746	1.54348
18.69427	-3.42746	1.54348
18.69846	-3.38351	1.54348
18.70264	-3.33957	1.54348
18.70683	-3.29562	1.54348
18.71102	-3.25168	1.54348
18.71521	-3.20773	1.54348
18.71946	-3.16379	1.54348
18.72373	-3.16379	1.54348
18.72793	-3.11984	1.54348
18.73212	-3.07589	1.54348
18.73633	-3.03195	1.54348
18.74053	-2.98800	1.54348
18.74474	-2.98800	1.54348
18.74976	-2.94406	1.54348
18.75414	-2.85617	1.54348
18.75837	-2.85617	1.54348
18.76258	-2.81222	1.54348
18.76679	-2.76828	1.54348
18.77100	-2.72433	1.54348
18.77520	-2.68039	1.54348
18.77942	-2.68039	1.54348
18.78402	-2.63644	1.54348
18.78825	-2.59250	1.54348
18.79245	-2.54855	1.54348
18.79665	-2.50461	1.54348
18.80084	-2.48263	1.54348
18.80503	-2.43869	1.54348
18.80922	-2.43869	1.54348
18.81352	-2.39474	1.54348
18.81778	-2.35080	1.54348
18.82196	-2.30685	1.54348
18.82612	-2.28488	1.54348
18.83029	-2.21896	1.54348
18.83445	-2.21896	1.54348
18.83861	-2.19699	1.54348
18.84278	-2.15304	1.54348
18.84717	-2.10910	1.54348
18.85144	-2.06515	1.54348
18.85561	-2.04318	1.54348
18.85977	-2.04318	1.54348
18.86393	-1.99923	1.54348
18.86810	-1.95529	1.54348
18.87226	-1.91134	1.54348
18.87651	-1.86740	1.54348
18.88077	-1.86740	1.54348
18.88495	-1.84543	1.54348
18.88912	-1.80148	1.54348
18.89328	-1.77951	1.54348
18.89744	-1.73556	1.54348
18.90160	-1.69162	1.54348
18.90577	-1.66964	1.54348
18.91015	-1.66964	1.54348
18.91433	-1.64767	1.54348
18.91852	-1.60373	1.54348
18.92270	-1.55978	1.54348
18.92688	-1.51584	1.54348
18.93107	-1.49386	1.54348
18.93525	-1.49386	1.54348
18.93950	-1.44992	1.54348
18.94378	-1.42795	1.54348
18.94798	-1.38400	1.54348
18.95227	-1.36203	1.54348
18.95645	-1.31808	1.54348
18.96064	-1.31808	1.54348
18.96482	-1.29611	1.54348
18.96901	-1.25216	1.54348
18.97331	-1.23019	1.54348
18.97752	-1.20822	1.54348
18.98170	-1.16427	1.54348
18.98589	-1.12033	1.54348
18.99007	-1.12033	1.54348
18.99425	-1.09836	1.54348
18.99844	-1.07638	1.54348
19.00269	-1.03244	1.54348
19.00696	-1.01047	1.54348
19.01115	-0.98849	1.54348
19.01533	-0.94455	1.54348
19.01952	-0.94455	1.54348
19.02370	-0.94455	1.54348
19.02789	-0.90060	1.54348
19.03209	-0.87863	1.54348
19.03641	-0.85666	1.54348
19.04062	-0.85666	1.54348
19.04481	-0.81271	1.54348
19.04900	-0.79074	1.54348
19.05329	-0.76877	1.54348
19.05747	-0.74679	1.54348
19.06166	-0.72482	1.54348
19.06606	-0.68088	1.54348
19.07028	-0.68088	1.54348
19.07450	-0.68088	1.54348
19.07869	-0.63693	1.54348
19.08288	-0.61496	1.54348
19.08706	-0.59298	1.54348
19.09125	-0.57101	1.54348
19.09552	-0.57101	1.54348
19.09981	-0.54904	1.54348
19.10400	-0.50509	1.54348
19.10819	-0.50509	1.54348
19.11238	-0.46115	1.54348
19.11656	-0.46115	1.54348
19.12075	-0.46115	1.54348
19.12496	-0.41720	1.54348
19.12927	-0.41720	1.54348
19.13348	-0.37326	1.54348
19.13767	-0.35129	1.54348
19.14185	-0.32931	1.54348
19.14603	-0.32931	1.54348
19.15022	-0.30734	1.54348
19.15451	-0.30734	1.54348
19.15876	-0.28537	1.54348
19.16304	-0.26339	1.54348
19.16724	-0.24142	1.54348
19.17143	-0.24142	1.54348
19.17561	-0.21945	1.54348
19.17980	-0.19748	1.54348
19.18398	-0.19748	1.54348
19.18817	-0.17550	1.54348
19.19247	-0.15353	1.54348
19.19668	-0.13156	1.54348
19.20086	-0.13156	1.54348
19.20502	-0.13156	1.54348
19.20921	-0.10959	1.54348
19.21339	-0.08761	1.54348
19.21758	-0.06564	1.54348
19.22183	-0.06564	1.54348
19.22611	-0.04367	1.54348
19.23030	-0.04367	1.54348
19.23449	-0.02170	1.54348
19.23867	0.00028	1.54348
19.24286	0.00028	1.54348
19.24704	0.02225	1.54348
19.25123	0.02225	1.54348
19.25564	0.02225	1.54348
19.25985	0.04422	1.54348
19.26403	0.04422	1.54348
19.26822	0.04422	1.54348
19.27240	0.06619	1.54348
19.27658	0.08817	1.54348
19.28077	0.08817	1.54348
19.28521	0.08817	1.54348
19.28942	0.11014	1.54348
19.29362	0.11014	1.54348
19.29780	0.13211	1.54348
19.30199	0.15409	1.54348
19.30617	0.15409	1.54348
19.31035	0.15409	1.54348
19.31460	0.15409	1.54348
19.31889	0.15409	1.54348
19.32309	0.17606	1.54348
19.32727	0.17606	1.54348
19.33146	0.17606	1.54348
19.33564	0.17606	1.54348
19.33982	0.19803	1.54348
19.34401	0.19803	1.54348
19.34844	0.19803	1.54348
19.35265	0.19803	1.54348
19.35695	0.19803	1.54348
19.36114	0.22000	1.54348
19.36532	0.22000	1.54348
19.36950	0.22000	1.54348
19.37368	0.22000	1.54348
19.37794	0.22000	1.54348
19.38220	0.22000	1.54348
19.38640	0.24198	1.54348
19.39058	0.22000	1.54348
19.39476	0.22000	1.54348
19.39895	0.22000	1.54348
19.40313	0.22000	1.54348
19.40731	0.22000	1.54348
19.41161	0.24198	1.54348
19.41581	0.22000	1.54348
19.42000	0.22000	1.54348
19.42418	0.22000	1.54348
19.42836	0.22000	1.54348
19.43255	0.22000	1.54348
19.43673	0.22000	1.54348
19.44100	0.22000	1.54348
19.44527	0.22000	1.54348
19.44946	0.22000	1.54348
19.45364	0.19803	1.54348
19.45793	0.17606	1.54348
19.46211	0.17606	1.54348
19.46629	0.19803	1.54348
19.47049	0.19803	1.54348
19.47480	0.17606	1.54348
19.47900	0.17606	1.54348
19.48319	0.15409	1.54348
19.48738	0.15409	1.54348
19.49156	0.15409	1.54348
19.49575	0.15409	1.54348
19.49993	0.13211	1.54348
19.50420	0.13211	1.54348
19.50848	0.11014	1.54348
19.51267	0.11014	1.54348
19.51687	0.08817	1.54348
19.52102	0.08817	1.54348
19.52520	0.06619	1.54348
19.52939	0.04422	1.54348
19.53359	0.04422	1.54348
19.53791	0.04422	1.54348
19.54212	0.04422	1.54348
19.54631	0.02225	1.54348
19.55050	0.00028	1.54348
19.55468	-0.02170	1.54348
19.55897	-0.02170	1.54348
19.56315	-0.04367	1.54348
19.56757	-0.06564	1.54348
19.57179	-0.06564	1.54348
19.57597	-0.08761	1.54348
19.58016	-0.08761	1.54348
19.58434	-0.13156	1.54348
19.58853	-0.13156	1.54348
19.59271	-0.13156	1.54348
19.59696	-0.15353	1.54348
19.60125	-0.17550	1.54348
19.60545	-0.19748	1.54348
19.60964	-0.21945	1.54348
19.61382	-0.24142	1.54348
19.61801	-0.24142	1.54348
19.62219	-0.26339	1.54348
19.62637	-0.28537	1.54348
19.63067	-0.30734	1.54348
19.63487	-0.32931	1.54348
19.63905	-0.35129	1.54348
19.64323	-0.35129	1.54348
19.64742	-0.37326	1.54348
19.65160	-0.39523	1.54348
19.65578	-0.41720	1.54348
19.66014	-0.43918	1.54348
19.66440	-0.46115	1.54348
19.66860	-0.50509	1.54348
19.67278	-0.50509	1.54348
19.67697	-0.52707	1.54348
19.68115	-0.54904	1.54348
19.68534	-0.57101	1.54348
19.68952	-0.59298	1.54348
19.69382	-0.61496	1.54348
19.69802	-0.61496	1.54348
19.70220	-0.63693	1.54348
19.70638	-0.65890	1.54348
19.71057	-0.70285	1.54348
19.71475	-0.72482	1.54348
19.71895	-0.74679	1.54348
19.72320	-0.74679	1.54348
19.72747	-0.76877	1.54348
19.73167	-0.81271	1.54348
19.73585	-0.83468	1.54348
19.74004	-0.85666	1.54348
19.74423	-0.87863	1.54348
19.74841	-0.87863	1.54348
19.75260	-0.90060	1.54348
19.75691	-0.94455	1.54348
19.76122	-0.96652	1.54348
19.76540	-0.98849	1.54348
19.76959	-1.03244	1.54348
19.77377	-1.03244	1.54348
19.77795	-1.05441	1.54348
19.78214	-1.07638	1.54348
19.78653	-1.09836	1.54348
19.79075	-1.14230	1.54348
19.79494	-1.16427	1.54348
19.79912	-1.18625	1.54348
19.80331	-1.18625	1.54348
19.80749	-1.23019	1.54348
19.81167	-1.25216	1.54348
19.81592	-1.27414	1.54348
19.82021	-1.31808	1.54348
19.82441	-1.34006	1.54348
19.82859	-1.36203	1.54348
19.83278	-1.36203	1.54348
19.83698	-1.40597	1.54348
19.84117	-1.42795	1.54348
19.84535	-1.44992	1.54348
19.84965	-1.49386	1.54348
19.85385	-1.49386	1.54348
19.85804	-1.51584	1.54348
19.86232	-1.55978	1.54348
19.86651	-1.58175	1.54348
19.87069	-1.60373	1.54348
19.87487	-1.64767	1.54348
19.87913	-1.64767	1.54348
19.88340	-1.69162	1.54348
19.88759	-1.71359	1.54348
19.89177	-1.73556	1.54348
19.89596	-1.75754	1.54348
19.90014	-1.80148	1.54348
19.90432	-1.80148	1.54348
19.90850	-1.82345	1.54348
19.91280	-1.84543	1.54348
19.91700	-1.88937	1.54348
19.92119	-1.91134	1.54348
19.92538	-1.95529	1.54348
19.92956	-1.95529	1.54348
19.93374	-1.97726	1.54348
19.93793	-2.02121	1.54348
19.94217	-2.04318	1.54348
19.94644	-2.08713	1.54348
19.95063	-2.10910	1.54348
19.95482	-2.13107	1.54348
19.95900	-2.13107	1.54348
19.96328	-2.17502	1.54348
19.96747	-2.19699	1.54348
19.97165	-2.24093	1.54348
19.97595	-2.26291	1.54348
19.98015	-2.28488	1.54348
19.98433	-2.28488	1.54348
19.98851	-2.30685	1.54348
19.99270	-2.35080	1.54348
19.99689	-2.39474	1.54348
20.00107	-2.41672	1.54348
20.00532	-2.46066	1.54348
20.00959	-2.46066	1.54348
20.01379	-2.46066	1.54348
20.01797	-2.50461	1.54348
20.02216	-2.54855	1.54348
20.02634	-2.57052	1.54348
20.03053	-2.59250	1.54348
20.03473	-2.63644	1.54348
20.03905	-2.63644	1.54348
20.04326	-2.65841	1.54348
20.04745	-2.68039	1.54348
20.05164	-2.72433	1.54348
20.05582	-2.74631	1.54348
20.06001	-2.76828	1.54348
20.06429	-2.76828	1.54348
20.06871	-2.81222	1.54348
20.07293	-2.83420	1.54348
20.07712	-2.85617	1.54348
20.08130	-2.87814	1.54348
20.08549	-2.92209	1.54348
20.08967	-2.94406	1.54348
20.09386	-2.94406	1.54348
20.09811	-2.96603	1.54348
20.10239	-3.00998	1.54348
20.10659	-3.03195	1.54348
20.11077	-3.05392	1.54348
20.11496	-3.05392	1.54348
20.11914	-3.07589	1.54348
20.12332	-3.11984	1.54348
20.12751	-3.14181	1.54348
20.13192	-3.18576	1.54348
20.13613	-3.20773	1.54348
20.14032	-3.20773	1.54348
20.14450	-3.22970	1.54348
20.14868	-3.25168	1.54348
20.15287	-3.29562	1.54348
20.15702	-3.31759	1.54348
20.16129	-3.33957	1.54348
20.16573	-3.36154	1.54348
20.16993	-3.36154	1.54348
20.17413	-3.38351	1.54348
20.17832	-3.40548	1.54348
20.18251	-3.42746	1.54348
20.18671	-3.44943	1.54348
20.19090	-3.49338	1.54348
20.19521	-3.49338	1.54348
20.19941	-3.51535	1.54348
20.20360	-3.53732	1.54348
20.20780	-3.55929	1.54348
20.21199	-3.58127	1.54348
20.21618	-3.60324	1.54348
20.22037	-3.60324	1.54348
20.22465	-3.62521	1.54348
20.22895	-3.64718	1.54348
20.23316	-3.66916	1.54348
20.23735	-3.69113	1.54348
20.24161	-3.71310	1.54348
20.24583	-3.71310	1.54348
20.25004	-3.75705	1.54348
20.25439	-3.75705	1.54348
20.25869	-3.77902	1.54348
20.26289	-3.80099	1.54348
20.26719	-3.82297	1.54348
20.27138	-3.84494	1.54348
20.27557	-3.84494	1.54348
20.27976	-3.86691	1.54348
20.28395	-3.88888	1.54348
20.28825	-3.91086	1.54348
20.29247	-3.93283	1.54348
20.29666	-3.95480	1.54348
20.30085	-3.95480	1.54348
20.30502	-3.95480	1.54348
20.30920	-3.99875	1.54348
20.31339	-4.02072	1.54348
20.31779	-4.04269	1.54348
20.32200	-4.04269	1.54348
20.32619	-4.06466	1.54348
20.33037	-4.06466	1.54348
20.33456	-4.08664	1.54348
20.33874	-4.08664	1.54348
20.34293	-4.10861	1.54348
20.34719	-4.13058	1.54348
20.35148	-4.15256	1.54348
20.35567	-4.15256	1.54348
20.35986	-4.17453	1.54348
20.36404	-4.19650	1.54348
20.36832	-4.19650	1.54348
20.37250	-4.21847	1.54348
20.37669	-4.24045	1.54348
20.38100	-4.24045	1.54348
20.38520	-4.26242	1.54348
20.38938	-4.26242	1.54348
20.39357	-4.28439	1.54348
20.39775	-4.30636	1.54348
20.40193	-4.32834	1.54348
20.40612	-4.32834	1.54348
20.41037	-4.32834	1.54348
20.41469	-4.35031	1.54348
20.41890	-4.37228	1.54348
20.42310	-4.37228	1.54348
20.42732	-4.39425	1.54348
20.43152	-4.41623	1.54348
20.43571	-4.41623	1.54348
20.43990	-4.41623	1.54348
20.44421	-4.43820	1.54348
20.44843	-4.43820	1.54348
20.45263	-4.46017	1.54348
20.45682	-4.46017	1.54348
20.46102	-4.48214	1.54348
20.46521	-4.48214	1.54348
20.46950	-4.50412	1.54348
20.47396	-4.50412	1.54348
20.47817	-4.52609	1.54348
20.48237	-4.52609	1.54348
20.48656	-4.52609	1.54348
20.49075	-4.54806	1.54348
20.49494	-4.54806	1.54348
20.49913	-4.57004	1.54348
20.50341	-4.57004	1.54348
20.50771	-4.59201	1.54348
20.51192	-4.59201	1.54348
20.51611	-4.59201	1.54348
20.52030	-4.61398	1.54348
20.52451	-4.61398	1.54348
20.52872	-4.63595	1.54348
20.53293	-4.63595	1.54348
20.53725	-4.63595	1.54348
20.54147	-4.63595	1.54348
20.54567	-4.63595	1.54348
20.54986	-4.65793	1.54348
20.55406	-4.65793	1.54348
20.55825	-4.65793	1.54348
20.56244	-4.67990	1.54348
20.56671	-4.67990	1.54348
20.57110	-4.67990	1.54348
20.57530	-4.67990	1.54348
20.57950	-4.70187	1.54348
20.58369	-4.70187	1.54348
20.58788	-4.70187	1.54348
20.59207	-4.70187	1.54348
20.59626	-4.70187	1.54348
20.60057	-4.70187	1.54348
20.60477	-4.72384	1.54348
20.60897	-4.72384	1.54348
20.61315	-4.72384	1.54348
20.61734	-4.72384	1.54348
20.62153	-4.72384	1.54348
20.62572	-4.72384	1.54348
20.63019	-4.74582	1.54348
20.63441	-4.74582	1.54348
20.63861	-4.74582	1.54348
20.64282	-4.74582	1.54348
20.64703	-4.74582	1.54348
20.65123	-4.74582	1.54348
20.65542	-4.74582	1.54348
20.65973	-4.74582	1.54348
20.66403	-4.74582	1.54348
20.66824	-4.74582	1.54348
20.67256	-4.74582	1.54348
20.67675	-4.74582	1.54348
20.68096	-4.74582	1.54348
20.68515	-4.74582	1.54348
20.68934	-4.74582	1.54348
20.69365	-4.74582	1.54348
20.69786	-4.74582	1.54348
20.70206	-4.74582	1.54348
20.70625	-4.74582	1.54348
20.71044	-4.74582	1.54348
20.71463	-4.74582	1.54348
20.71882	-4.74582	1.54348
20.72324	-4.74582	1.54348
20.72753	-4.72384	1.54348
20.73173	-4.72384	1.54348
20.73593	-4.72384	1.54348
20.74012	-4.74582	1.54348
20.74432	-4.72384	1.54348
20.74851	-4.72384	1.54348
20.75278	-4.72384	1.54348
20.75706	-4.72384	1.54348
20.76126	-4.72384	1.54348
20.76544	-4.72384	1.54348
20.76963	-4.72384	1.54348
20.77392	-4.70187	1.54348
20.77810	-4.70187	1.54348
20.78236	-4.70187	1.54348
20.78664	-4.70187	1.54348
20.79084	-4.70187	1.54348
20.79503	-4.67990	1.54348
20.79921	-4.67990	1.54348
20.80340	-4.67990	1.54348
20.80758	-4.67990	1.54348
20.81177	-4.67990	1.54348
20.81607	-4.65793	1.54348
20.82027	-4.65793	1.54348
20.82446	-4.65793	1.54348
20.82867	-4.63595	1.54348
20.83286	-4.63595	1.54348
20.83702	-4.63595	1.54348
20.84121	-4.61398	1.54348
20.84547	-4.61398	1.54348
20.84974	-4.61398	1.54348
20.85394	-4.59201	1.54348
20.85812	-4.59201	1.54348
20.86231	-4.59201	1.54348
20.86650	-4.57004	1.54348
20.87068	-4.57004	1.54348
20.87497	-4.54806	1.54348
20.87928	-4.54806	1.54348
20.88348	-4.52609	1.54348
20.88766	-4.52609	1.54348
20.89185	-4.52609	1.54348
20.89604	-4.50412	1.54348
20.90022	-4.50412	1.54348
20.90441	-4.48214	1.54348
20.90883	-4.48214	1.54348
20.91304	-4.48214	1.54348
20.91723	-4.46017	1.54348
20.92142	-4.46017	1.54348
20.92560	-4.43820	1.54348
20.92981	-4.43820	1.54348
20.93400	-4.41623	1.54348
20.93826	-4.41623	1.54348
20.94255	-4.39425	1.54348
20.94675	-4.39425	1.54348
20.95094	-4.37228	1.54348
20.95512	-4.35031	1.54348
20.95931	-4.35031	1.54348
20.96349	-4.35031	1.54348
20.96768	-4.32834	1.54348
20.97198	-4.32834	1.54348
20.97629	-4.30636	1.54348
20.98048	-4.28439	1.54348
20.98467	-4.28439	1.54348
20.98885	-4.26242	1.54348
20.99302	-4.26242	1.54348
20.99720	-4.24045	1.54348
21.00146	-4.21847	1.54348
21.00573	-4.21847	1.54348
21.00993	-4.19650	1.54348
21.01412	-4.19650	1.54348
21.01830	-4.17453	1.54348
21.02249	-4.17453	1.54348
21.02667	-4.15256	1.54348
21.03087	-4.13058	1.54348
21.03519	-4.10861	1.54348
21.03939	-4.10861	1.54348
21.04358	-4.10861	1.54348
21.04776	-4.08664	1.54348
21.05195	-4.06466	1.54348
21.05614	-4.04269	1.54348
21.06032	-4.04269	1.54348
21.06476	-4.02072	1.54348
21.06898	-3.99875	1.54348
21.07317	-3.99875	1.54348
21.07747	-3.97677	1.54348
21.08165	-3.97677	1.54348
21.08583	-3.95480	1.54348
21.09002	-3.93283	1.54348
21.09427	-3.91086	1.54348
21.09855	-3.91086	1.54348
21.10274	-3.88888	1.54348
21.10693	-3.88888	1.54348
21.11111	-3.86691	1.54348
21.11530	-3.84494	1.54348
21.11948	-3.82297	1.54348
21.12366	-3.82297	1.54348
21.12797	-3.80099	1.54348
21.13219	-3.80099	1.54348
21.13638	-3.77902	1.54348
21.14057	-3.75705	1.54348
21.14476	-3.73507	1.54348
21.14896	-3.73507	1.54348
21.15314	-3.71310	1.54348
21.15758	-3.69113	1.54348
21.16181	-3.66916	1.54348
21.16602	-3.66916	1.54348
21.17021	-3.64718	1.54348
21.17441	-3.64718	1.54348
21.17871	-3.62521	1.54348
21.18290	-3.62521	1.54348
21.18718	-3.58127	1.54348
21.19147	-3.58127	1.54348
21.19567	-3.58127	1.54348
21.19987	-3.53732	1.54348
21.20406	-3.53732	1.54348
21.20825	-3.53732	1.54348
21.21244	-3.51535	1.54348
21.21663	-3.49338	1.54348
21.22096	-3.47140	1.54348
21.22517	-3.44943	1.54348
21.22940	-3.44943	1.54348
21.23360	-3.44943	1.54348
21.23780	-3.42746	1.54348
21.24199	-3.40548	1.54348
21.24618	-3.38351	1.54348
21.25069	-3.38351	1.54348
21.25492	-3.36154	1.54348
21.25913	-3.36154	1.54348
21.26332	-3.36154	1.54348
21.26752	-3.33957	1.54348
21.27171	-3.31759	1.54348
21.27590	-3.29562	1.54348
21.28027	-3.27365	1.54348
21.28454	-3.27365	1.54348
21.28874	-3.27365	1.54348
21.29297	-3.25168	1.54348
21.29718	-3.25168	1.54348
21.30137	-3.22970	1.54348
21.30555	-3.20773	1.54348
21.30982	-3.20773	1.54348
21.31411	-3.18576	1.54348
21.31830	-3.18576	1.54348
21.32249	-3.16379	1.54348
21.32668	-3.16379	1.54348
21.33089	-3.14181	1.54348
21.33509	-3.11984	1.54348
21.33928	-3.11984	1.54348
21.34359	-3.11984	1.54348
21.34780	-3.09787	1.54348
21.35199	-3.07589	1.54348
21.35617	-3.05392	1.54348
21.36036	-3.03195	1.54348
21.36455	-3.03195	1.54348
21.36873	-3.03195	1.54348
21.37300	-3.03195	1.54348
21.37727	-3.00998	1.54348
21.38157	-2.98800	1.54348
21.38575	-2.96603	1.54348
21.38994	-2.96603	1.54348
21.39413	-2.96603	1.54348
21.39831	-2.94406	1.54348
21.40250	-2.94406	1.54348
21.40679	-2.92209	1.54348
21.41099	-2.90011	1.54348
21.41518	-2.90011	1.54348
21.41937	-2.87814	1.54348
21.42355	-2.85617	1.54348
21.42773	-2.85617	1.54348
21.43194	-2.83420	1.54348
21.43621	-2.83420	1.54348
21.44048	-2.83420	1.54348
21.44468	-2.81222	1.54348
21.44887	-2.81222	1.54348
21.45303	-2.79025	1.54348
21.45721	-2.76828	1.54348
21.46140	-2.74631	1.54348
21.46558	-2.74631	1.54348
21.46988	-2.74631	1.54348
21.47409	-2.72433	1.54348
21.47828	-2.70236	1.54348
21.48257	-2.70236	1.54348
21.48675	-2.68039	1.54348
21.49093	-2.68039	1.54348
21.49512	-2.68039	1.54348
21.49954	-2.65841	1.54348
21.50376	-2.63644	1.54348
21.50796	-2.63644	1.54348
21.51215	-2.61447	1.54348
21.51634	-2.59250	1.54348
21.52052	-2.59250	1.54348
21.52470	-2.59250	1.54348
21.52902	-2.57052	1.54348
21.53330	-2.57052	1.54348
21.53751	-2.54855	1.54348
21.54170	-2.52658	1.54348
21.54589	-2.52658	1.54348
21.55008	-2.52658	1.54348
21.55426	-2.50461	1.54348
21.55845	-2.48263	1.54348
21.56274	-2.48263	1.54348
21.56695	-2.46066	1.54348
21.57114	-2.46066	1.54348
21.57532	-2.46066	1.54348
21.57952	-2.43869	1.54348
21.58381	-2.41672	1.54348
21.58800	-2.41672	1.54348
21.59225	-2.39474	1.54348
21.59651	-2.37277	1.54348
21.60071	-2.37277	1.54348
21.60491	-2.37277	1.54348
21.60910	-2.35080	1.54348
21.61329	-2.32882	1.54348
21.61747	-2.32882	1.54348
21.62167	-2.30685	1.54348
21.62596	-2.30685	1.54348
21.63020	-2.30685	1.54348
21.63441	-2.28488	1.54348
21.63860	-2.26291	1.54348
21.64280	-2.26291	1.54348
21.64698	-2.24093	1.54348
21.65117	-2.21896	1.54348
21.65562	-2.21896	1.54348
21.65985	-2.21896	1.54348
21.66404	-2.19699	1.54348
21.66824	-2.19699	1.54348
21.67243	-2.17502	1.54348
21.67662	-2.17502	1.54348
21.68081	-2.17502	1.54348
21.68523	-2.15304	1.54348
21.68951	-2.13107	1.54348
21.69372	-2.13107	1.54348
21.69791	-2.10910	1.54348
21.70210	-2.08713	1.54348
21.70629	-2.08713	1.54348
21.71048	-2.08713	1.54348
21.71467	-2.06515	1.54348
21.71897	-2.06515	1.54348
21.72318	-2.04318	1.54348
21.72737	-2.04318	1.54348
21.73158	-2.04318	1.54348
21.73580	-2.02121	1.54348
21.74000	-1.99923	1.54348
21.74419	-1.99923	1.54348
21.74861	-1.99923	1.54348
21.75283	-1.97726	1.54348
21.75703	-1.97726	1.54348
21.76123	-1.97726	1.54348
21.76542	-1.95529	1.54348
21.76961	-1.93332	1.54348
21.77380	-1.93332	1.54348
21.77807	-1.91134	1.54348
21.78235	-1.91134	1.54348
21.78666	-1.88937	1.54348
21.79085	-1.88937	1.54348
21.79504	-1.88937	1.54348
21.79922	-1.86740	1.54348
21.80341	-1.84543	1.54348
21.80759	-1.84543	1.54348
21.81189	-1.84543	1.54348
21.81610	-1.84543	1.54348
21.82029	-1.82345	1.54348
21.82447	-1.82345	1.54348
21.82866	-1.80148	1.54348
21.83286	-1.80148	1.54348
21.83703	-1.80148	1.54348
21.84129	-1.80148	1.54348
21.84555	-1.77951	1.54348
21.84975	-1.77951	1.54348
21.85394	-1.75754	1.54348
21.85813	-1.75754	1.54348
21.86232	-1.73556	1.54348
21.86651	-1.73556	1.54348
21.87070	-1.73556	1.54348
21.87499	-1.71359	1.54348
21.87920	-1.71359	1.54348
21.88339	-1.71359	1.54348
21.88768	-1.69162	1.54348
21.89186	-1.69162	1.54348
21.89605	-1.69162	1.54348
21.90024	-1.66964	1.54348
21.90464	-1.66964	1.54348
21.90887	-1.66964	1.54348
21.91303	-1.64767	1.54348
21.91722	-1.64767	1.54348
21.92141	-1.64767	1.54348
21.92560	-1.64767	1.54348
21.92981	-1.62570	1.54348
21.93411	-1.62570	1.54348
21.93839	-1.62570	1.54348
21.94262	-1.62570	1.54348
21.94681	-1.60373	1.54348
21.95101	-1.60373	1.54348
21.95520	-1.60373	1.54348
21.95939	-1.58175	1.54348
21.96358	-1.58175	1.54348
21.96788	-1.58175	1.54348
21.97210	-1.58175	1.54348
21.97629	-1.58175	1.54348
21.98049	-1.58175	1.54348
21.98468	-1.58175	1.54348
21.98899	-1.55978	1.54348
21.99318	-1.55978	1.54348
21.99757	-1.55978	1.54348
22.00178	-1.55978	1.54348
22.00598	-1.55978	1.54348
22.01018	-1.53781	1.54348
22.01436	-1.53781	1.54348
22.01854	-1.53781	1.54348
22.02273	-1.53781	1.54348
22.02698	-1.53781	1.54348
22.03126	-1.53781	1.54348
22.03546	-1.53781	1.54348
22.03966	-1.51584	1.54348
22.04385	-1.53781	1.54348
22.04803	-1.51584	1.54348
22.05222	-1.51584	1.54348
22.05640	-1.53781	1.54348
22.06070	-1.51584	1.54348
22.06493	-1.51584	1.54348
22.06912	-1.51584	1.54348
22.07331	-1.51584	1.54348
22.07750	-1.51584	1.54348
22.08168	-1.51584	1.54348
22.08587	-1.51584	1.54348
22.09039	-1.51584	1.54348
22.09461	-1.51584	1.54348
22.09880	-1.51584	1.54348
22.10299	-1.51584	1.54348
22.10719	-1.51584	1.54348
22.11138	-1.51584	1.54348
22.11557	-1.49386	1.54348
22.11986	-1.51584	1.54348
22.12414	-1.51584	1.54348
22.12835	-1.51584	1.54348
22.13256	-1.49386	1.54348
22.13676	-1.49386	1.54348
22.14097	-1.51584	1.54348
22.14517	-1.51584	1.54348
22.14936	-1.51584	1.54348
22.15366	-1.51584	1.54348
22.15788	-1.51584	1.54348
22.16209	-1.49386	1.54348
22.16629	-1.51584	1.54348
22.17049	-1.51584	1.54348
22.17468	-1.51584	1.54348
22.17887	-1.51584	1.54348
22.18315	-1.51584	1.54348
22.18743	-1.51584	1.54348
22.19174	-1.51584	1.54348
22.19593	-1.51584	1.54348
22.20011	-1.51584	1.54348
22.20430	-1.51584	1.54348
22.20848	-1.51584	1.54348
22.21274	-1.51584	1.54348
22.21703	-1.51584	1.54348
22.22123	-1.53781	1.54348
22.22542	-1.53781	1.54348
22.22966	-1.53781	1.54348
22.23386	-1.53781	1.54348
22.23805	-1.53781	1.54348
22.24224	-1.53781	1.54348
22.24654	-1.55978	1.54348
22.25079	-1.55978	1.54348
22.25499	-1.55978	1.54348
22.25920	-1.55978	1.54348
22.26339	-1.55978	1.54348
22.26758	-1.55978	1.54348
22.27177	-1.58175	1.54348
22.27603	-1.55978	1.54348
22.28036	-1.58175	1.54348
22.28458	-1.58175	1.54348
22.28879	-1.58175	1.54348
22.29313	-1.58175	1.54348
22.29733	-1.60373	1.54348
22.30152	-1.60373	1.54348
22.30580	-1.60373	1.54348
22.31010	-1.62570	1.54348
22.31431	-1.62570	1.54348
22.31849	-1.62570	1.54348
22.32269	-1.62570	1.54348
22.32687	-1.64767	1.54348
22.33106	-1.64767	1.54348
22.33524	-1.64767	1.54348
22.33956	-1.66964	1.54348
22.34378	-1.66964	1.54348
22.34797	-1.66964	1.54348
22.35216	-1.66964	1.54348
22.35635	-1.69162	1.54348
22.36053	-1.69162	1.54348
22.36472	-1.69162	1.54348
22.36899	-1.71359	1.54348
22.37326	-1.71359	1.54348
22.37746	-1.71359	1.54348
22.38164	-1.71359	1.54348
22.38583	-1.73556	1.54348
22.39002	-1.73556	1.54348
22.39431	-1.75754	1.54348
22.39849	-1.75754	1.54348
22.40279	-1.75754	1.54348
22.40701	-1.75754	1.54348
22.41120	-1.77951	1.54348
22.41538	-1.77951	1.54348
22.41957	-1.80148	1.54348
22.42376	-1.80148	1.54348
22.42794	-1.80148	1.54348
22.43220	-1.82345	1.54348
22.43646	-1.82345	1.54348
22.44067	-1.84543	1.54348
22.44486	-1.84543	1.54348
22.44902	-1.84543	1.54348
22.45320	-1.84543	1.54348
22.45739	-1.86740	1.54348
22.46157	-1.88937	1.54348
22.46587	-1.88937	1.54348
22.47008	-1.88937	1.54348
22.47427	-1.88937	1.54348
22.47845	-1.91134	1.54348
22.48264	-1.93332	1.54348
22.48682	-1.93332	1.54348
22.49102	-1.93332	1.54348
22.49540	-1.95529	1.54348
22.49969	-1.95529	1.54348
22.50389	-1.97726	1.54348
22.50809	-1.97726	1.54348
22.51228	-1.99923	1.54348
22.51647	-1.99923	1.54348
22.52066	-2.02121	1.54348
22.52484	-2.02121	1.54348
22.52915	-2.02121	1.54348
22.53336	-2.04318	1.54348
22.53755	-2.06515	1.54348
22.54174	-2.06515	1.54348
22.54593	-2.08713	1.54348
22.55012	-2.08713	1.54348
22.55430	-2.08713	1.54348
22.55857	-2.10910	1.54348
22.56284	-2.10910	1.54348
22.56704	-2.13107	1.54348
22.57122	-2.15304	1.54348
22.57541	-2.15304	1.54348
22.57960	-2.15304	1.54348
22.58378	-2.17502	1.54348
22.58797	-2.17502	1.54348
22.59228	-2.19699	1.54348
22.59660	-2.19699	1.54348
22.60079	-2.21896	1.54348
22.60498	-2.24093	1.54348
22.60918	-2.24093	1.54348
22.61337	-2.24093	1.54348
22.61755	-2.26291	1.54348
22.62200	-2.26291	1.54348
22.62622	-2.28488	1.54348
22.63041	-2.30685	1.54348
22.63460	-2.30685	1.54348
22.63878	-2.30685	1.54348
22.64297	-2.32882	1.54348
22.64716	-2.35080	1.54348
22.65143	-2.35080	1.54348
22.65573	-2.37277	1.54348
22.65993	-2.39474	1.54348
22.66411	-2.39474	1.54348
22.66830	-2.41672	1.54348
22.67248	-2.41672	1.54348
22.67667	-2.43869	1.54348
22.68085	-2.46066	1.54348
22.68527	-2.46066	1.54348
22.68948	-2.46066	1.54348
22.69367	-2.50461	1.54348
22.69796	-2.50461	1.54348
22.70214	-2.52658	1.54348
22.70633	-2.52658	1.54348
22.71051	-2.52658	1.54348
22.71476	-2.54855	1.54348
22.71903	-2.57052	1.54348
22.72323	-2.59250	1.54348
22.72741	-2.59250	1.54348
22.73160	-2.61447	1.54348
22.73578	-2.63644	1.54348
22.73997	-2.63644	1.54348
22.74415	-2.65841	1.54348
22.74845	-2.65841	1.54348
22.75266	-2.68039	1.54348
22.75685	-2.70236	1.54348
22.76102	-2.70236	1.54348
22.76521	-2.70236	1.54348
22.76939	-2.74631	1.54348
22.77358	-2.74631	1.54348
22.77783	-2.76828	1.54348
22.78209	-2.79025	1.54348
22.78629	-2.81222	1.54348
22.79048	-2.81222	1.54348
22.79466	-2.81222	1.54348
22.79895	-2.83420	1.54348
22.80313	-2.85617	1.54348
22.80732	-2.87814	1.54348
22.81162	-2.90011	1.54348
22.81583	-2.92209	1.54348
22.82002	-2.92209	1.54348
22.82420	-2.92209	1.54348
22.82839	-2.96603	1.54348
22.83258	-2.96603	1.54348
22.83676	-2.98800	1.54348
22.84104	-2.98800	1.54348
22.84531	-3.00998	1.54348
22.84951	-3.03195	1.54348
22.85369	-3.03195	1.54348
22.85788	-3.05392	1.54348
22.86207	-3.07589	1.54348
22.86625	-3.09787	1.54348
22.87043	-3.09787	1.54348
22.87474	-3.11984	1.54348
22.87895	-3.14181	1.54348
22.88313	-3.16379	1.54348
22.88732	-3.18576	1.54348
22.89150	-3.20773	1.54348
22.89569	-3.20773	1.54348
22.89998	-3.20773	1.54348
22.90442	-3.22970	1.54348
22.90864	-3.25168	1.54348
22.91283	-3.27365	1.54348
22.91702	-3.29562	1.54348
22.92120	-3.31759	1.54348
22.92539	-3.31759	1.54348
22.92957	-3.33957	1.54348
22.93384	-3.33957	1.54348
22.93813	-3.38351	1.54348
22.94233	-3.40548	1.54348
22.94652	-3.40548	1.54348
22.95072	-3.42746	1.54348
22.95490	-3.42746	1.54348
22.95909	-3.44943	1.54348
22.96327	-3.49338	1.54348
22.96757	-3.49338	1.54348
22.97178	-3.49338	1.54348
22.97596	-3.53732	1.54348
22.98015	-3.53732	1.54348
22.98434	-3.55929	1.54348
22.98852	-3.58127	1.54348
22.99270	-3.60324	1.54348
22.99697	-3.62521	1.54348
23.00135	-3.62521	1.54348
23.00554	-3.64718	1.54348
23.00973	-3.66916	1.54348
23.01391	-3.69113	1.54348
23.01810	-3.71310	1.54348
23.02229	-3.71310	1.54348
23.02648	-3.73507	1.54348
23.03079	-3.73507	1.54348
23.03500	-3.77902	1.54348
23.03919	-3.77902	1.54348
23.04338	-3.80099	1.54348
23.04756	-3.82297	1.54348
23.05175	-3.82297	1.54348
23.05594	-3.84494	1.54348
23.06020	-3.86691	1.54348
23.06447	-3.88888	1.54348
23.06867	-3.91086	1.54348
23.07287	-3.93283	1.54348
23.07705	-3.95480	1.54348
23.08124	-3.95480	1.54348
23.08543	-3.97677	1.54348
23.08961	-3.97677	1.54348
23.09391	-3.99875	1.54348
23.09812	-4.02072	1.54348
23.10241	-4.04269	1.54348
23.10660	-4.06466	1.54348
23.11078	-4.06466	1.54348
23.11497	-4.08664	1.54348
23.11915	-4.10861	1.54348
23.12360	-4.10861	1.54348
23.12782	-4.13058	1.54348
23.13201	-4.15256	1.54348
23.13619	-4.15256	1.54348
23.14038	-4.17453	1.54348
23.14457	-4.19650	1.54348
23.14875	-4.21847	1.54348
23.15303	-4.21847	1.54348
23.15733	-4.24045	1.54348
23.16157	-4.24045	1.54348
23.16576	-4.26242	1.54348
23.16995	-4.26242	1.54348
23.17414	-4.30636	1.54348
23.17832	-4.30636	1.54348
23.18251	-4.32834	1.54348
23.18681	-4.32834	1.54348
23.19102	-4.35031	1.54348
23.19521	-4.35031	1.54348
23.19940	-4.37228	1.54348
23.20369	-4.39425	1.54348
23.20787	-4.41623	1.54348
23.21206	-4.41623	1.54348
23.21631	-4.43820	1.54348
23.22059	-4.43820	1.54348
23.22484	-4.46017	1.54348
23.22905	-4.46017	1.54348
23.23324	-4.46017	1.54348
23.23744	-4.50412	1.54348
23.24163	-4.50412	1.54348
23.24582	-4.50412	1.54348
23.25015	-4.52609	1.54348
23.25436	-4.54806	1.54348
23.25856	-4.54806	1.54348
23.26275	-4.54806	1.54348
23.26694	-4.57004	1.54348
23.27113	-4.59201	1.54348
23.27531	-4.59201	1.54348
23.27976	-4.61398	1.54348
23.28397	-4.61398	1.54348
23.28816	-4.63595	1.54348
23.29235	-4.63595	1.54348
23.29654	-4.63595	1.54348
23.30073	-4.65793	1.54348
23.30503	-4.67990	1.54348
23.30929	-4.67990	1.54348
23.31356	-4.70187	1.54348
23.31775	-4.70187	1.54348
23.32195	-4.70187	1.54348
23.32613	-4.70187	1.54348
23.33032	-4.72384	1.54348
23.33451	-4.72384	1.54348
23.33869	-4.74582	1.54348
23.34300	-4.74582	1.54348
23.34720	-4.74582	1.54348
23.35138	-4.74582	1.54348
23.35558	-4.76779	1.54348
23.35976	-4.76779	1.54348
23.36395	-4.78976	1.54348
23.36813	-4.78976	1.54348
23.37239	-4.78976	1.54348
23.37665	-4.78976	1.54348
23.38085	-4.81173	1.54348
23.38503	-4.81173	1.54348
23.38922	-4.83371	1.54348
23.39340	-4.81173	1.54348
23.39759	-4.81173	1.54348
23.40177	-4.83371	1.54348
23.40619	-4.83371	1.54348
23.41039	-4.85568	1.54348
23.41458	-4.85568	1.54348
23.41876	-4.85568	1.54348
23.42295	-4.85568	1.54348
23.42714	-4.85568	1.54348
23.43132	-4.85568	1.54348
23.43576	-4.85568	1.54348
23.43998	-4.87765	1.54348
23.44417	-4.87765	1.54348
23.44835	-4.87765	1.54348
23.45254	-4.87765	1.54348
23.45674	-4.87765	1.54348
23.46093	-4.87765	1.54348
23.46519	-4.87765	1.54348
23.46948	-4.87765	1.54348
23.47368	-4.87765	1.54348
23.47787	-4.89963	1.54348
23.48205	-4.87765	1.54348
23.48624	-4.89963	1.54348
23.49042	-4.87765	1.54348
23.49461	-4.87765	1.54348
23.49891	-4.87765	1.54348
23.50311	-4.87765	1.54348
23.50741	-4.89963	1.54348
23.51160	-4.87765	1.54348
23.51578	-4.87765	1.54348
23.51997	-4.87765	1.54348
23.52415	-4.87765	1.54348
23.52840	-4.87765	1.54348
23.53268	-4.87765	1.54348
23.53688	-4.87765	1.54348
23.54103	-4.87765	1.54348
23.54522	-4.87765	1.54348
23.54941	-4.87765	1.54348
23.55359	-4.87765	1.54348
23.55778	-4.87765	1.54348
23.56208	-4.87765	1.54348
23.56629	-4.87765	1.54348
23.57048	-4.85568	1.54348
23.57466	-4.85568	1.54348
23.57885	-4.85568	1.54348
23.58304	-4.85568	1.54348
23.58722	-4.83371	1.54348
23.59148	-4.83371	1.54348
23.59576	-4.83371	1.54348
23.59995	-4.81173	1.54348
23.60414	-4.81173	1.54348
23.60843	-4.81173	1.54348
23.61262	-4.81173	1.54348
23.61680	-4.81173	1.54348
23.62100	-4.81173	1.54348
23.62530	-4.78976	1.54348
23.62951	-4.78976	1.54348
23.63370	-4.78976	1.54348
23.63788	-4.76779	1.54348
23.64207	-4.76779	1.54348
23.64626	-4.76779	1.54348
23.65044	-4.74582	1.54348
23.65490	-4.72384	1.54348
23.65911	-4.72384	1.54348
23.66330	-4.72384	1.54348
23.66749	-4.72384	1.54348
23.67167	-4.70187	1.54348
23.67586	-4.70187	1.54348
23.68004	-4.67990	1.54348
23.68432	-4.65793	1.54348
23.68861	-4.65793	1.54348
23.69282	-4.65793	1.54348
23.69702	-4.65793	1.54348
23.70121	-4.63595	1.54348
23.70540	-4.61398	1.54348
23.70969	-4.61398	1.54348
23.71387	-4.61398	1.54348
23.71817	-4.59201	1.54348
23.72238	-4.57004	1.54348
23.72657	-4.57004	1.54348
23.73076	-4.54806	1.54348
23.73494	-4.54806	1.54348
23.73913	-4.54806	1.54348
23.74331	-4.52609	1.54348
23.74756	-4.50412	1.54348
23.75183	-4.50412	1.54348
23.75603	-4.48214	1.54348
23.76022	-4.48214	1.54348
23.76441	-4.48214	1.54348
23.76859	-4.46017	1.54348
23.77278	-4.43820	1.54348
23.77697	-4.41623	1.54348
23.78128	-4.39425	1.54348
23.78548	-4.39425	1.54348
23.78967	-4.37228	1.54348
23.79385	-4.37228	1.54348
23.79803	-4.35031	1.54348
23.80222	-4.35031	1.54348
23.80640	-4.32834	1.54348
23.81076	-4.30636	1.54348
23.81503	-4.28439	1.54348
23.81922	-4.28439	1.54348
23.82342	-4.28439	1.54348
23.82760	-4.26242	1.54348
23.83179	-4.24045	1.54348
23.83597	-4.24045	1.54348
23.84016	-4.21847	1.54348
23.84446	-4.21847	1.54348
23.84867	-4.19650	1.54348
23.85285	-4.17453	1.54348
23.85702	-4.15256	1.54348
23.86121	-4.15256	1.54348
23.86539	-4.13058	1.54348
23.86958	-4.13058	1.54348
23.87384	-4.10861	1.54348
23.87810	-4.08664	1.54348
23.88230	-4.08664	1.54348
23.88649	-4.06466	1.54348
23.89067	-4.04269	1.54348
23.89486	-4.04269	1.54348
23.89904	-4.02072	1.54348
23.90323	-3.99875	1.54348
23.90753	-3.99875	1.54348
23.91184	-3.97677	1.54348
23.91603	-3.95480	1.54348
23.92022	-3.95480	1.54348
23.92440	-3.95480	1.54348
23.92859	-3.93283	1.54348
23.93277	-3.91086	1.54348
23.93724	-3.88888	1.54348
23.94146	-3.86691	1.54348
23.94565	-3.84494	1.54348
23.94983	-3.84494	1.54348
23.95402	-3.84494	1.54348
23.95821	-3.82297	1.54348
23.96239	-3.80099	1.54348
23.96664	-3.77902	1.54348
23.97092	-3.77902	1.54348
23.97512	-3.77902	1.54348
23.97931	-3.75705	1.54348
23.98349	-3.73507	1.54348
23.98768	-3.71310	1.54348
23.99186	-3.69113	1.54348
23.99605	-3.69113	1.54348
24.00035	-3.69113	1.54348
24.00455	-3.64718	1.54348
24.00874	-3.64718	1.54348
24.01305	-3.62521	1.54348
24.01724	-3.60324	1.54348
24.02142	-3.60324	1.54348
24.02561	-3.60324	1.54348
24.02986	-3.58127	1.54348
24.03413	-3.55929	1.54348
24.03833	-3.55929	1.54348
24.04252	-3.53732	1.54348
24.04671	-3.51535	1.54348
24.05090	-3.49338	1.54348
24.05509	-3.49338	1.54348
24.05928	-3.49338	1.54348
24.06358	-3.47140	1.54348
24.06779	-3.47140	1.54348
24.07199	-3.44943	1.54348
24.07618	-3.42746	1.54348
24.08037	-3.42746	1.54348
24.08455	-3.40548	1.54348
24.08874	-3.40548	1.54348
24.09320	-3.38351	1.54348
24.09741	-3.36154	1.54348
24.10160	-3.36154	1.54348
24.10579	-3.36154	1.54348
24.10997	-3.33957	1.54348
24.11426	-3.33957	1.54348
24.11844	-3.31759	1.54348
24.12270	-3.29562	1.54348
24.12697	-3.29562	1.54348
24.13116	-3.27365	1.54348
24.13535	-3.27365	1.54348
24.13954	-3.25168	1.54348
24.14373	-3.25168	1.54348
24.14791	-3.22970	1.54348
24.15209	-3.22970	1.54348
24.15640	-3.20773	1.54348
24.16067	-3.20773	1.54348
24.16487	-3.18576	1.54348
24.16903	-3.18576	1.54348
24.17322	-3.16379	1.54348
24.17741	-3.14181	1.54348
24.18160	-3.14181	1.54348
24.18606	-3.11984	1.54348
24.19028	-3.11984	1.54348
24.19447	-3.11984	1.54348
24.19865	-3.09787	1.54348
24.20284	-3.09787	1.54348
24.20702	-3.07589	1.54348
24.21121	-3.07589	1.54348
24.21562	-3.07589	1.54348
24.21990	-3.05392	1.54348
24.22411	-3.03195	1.54348
24.22830	-3.03195	1.54348
24.23248	-3.00998	1.54348
24.23667	-3.00998	1.54348
24.24085	-3.00998	1.54348
24.24503	-2.98800	1.54348
24.24933	-2.98800	1.54348
24.25355	-2.96603	1.54348
24.25775	-2.96603	1.54348
24.26193	-2.94406	1.54348
24.26612	-2.94406	1.54348
24.27031	-2.94406	1.54348
24.27449	-2.92209	1.54348
24.27875	-2.92209	1.54348
24.28302	-2.92209	1.54348
24.28722	-2.90011	1.54348
24.29141	-2.90011	1.54348
24.29560	-2.90011	1.54348
24.29979	-2.87814	1.54348
24.30397	-2.87814	1.54348
24.30816	-2.87814	1.54348
24.31246	-2.85617	1.54348
24.31676	-2.85617	1.54348
24.32096	-2.85617	1.54348
24.32516	-2.83420	1.54348
24.32935	-2.83420	1.54348
24.33354	-2.83420	1.54348
24.33772	-2.81222	1.54348
24.34217	-2.81222	1.54348
24.34638	-2.81222	1.54348
24.35057	-2.79025	1.54348
24.35475	-2.79025	1.54348
24.35894	-2.79025	1.54348
24.36314	-2.79025	1.54348
24.36732	-2.79025	1.54348
24.37159	-2.79025	1.54348
24.37587	-2.76828	1.54348
24.38007	-2.76828	1.54348
24.38426	-2.74631	1.54348
24.38845	-2.74631	1.54348
24.39264	-2.74631	1.54348
24.39683	-2.74631	1.54348
24.40102	-2.74631	1.54348
24.40534	-2.74631	1.54348
24.40954	-2.72433	1.54348
24.41373	-2.72433	1.54348
24.41802	-2.72433	1.54348
24.42221	-2.72433	1.54348
24.42639	-2.70236	1.54348
24.43058	-2.70236	1.54348
24.43483	-2.70236	1.54348
24.43911	-2.70236	1.54348
24.44331	-2.70236	1.54348
24.44750	-2.70236	1.54348
24.45169	-2.70236	1.54348
24.45587	-2.70236	1.54348
24.46006	-2.70236	1.54348
24.46425	-2.68039	1.54348
24.46855	-2.68039	1.54348
24.47276	-2.68039	1.54348
24.47696	-2.68039	1.54348
24.48115	-2.68039	1.54348
24.48534	-2.65841	1.54348
24.48952	-2.65841	1.54348
24.49371	-2.65841	1.54348
24.49816	-2.65841	1.54348
24.50237	-2.65841	1.54348
24.50656	-2.65841	1.54348
24.51075	-2.65841	1.54348
24.51493	-2.65841	1.54348
24.51922	-2.65841	1.54348
24.52341	-2.65841	1.54348
24.52767	-2.65841	1.54348
24.53194	-2.63644	1.54348
24.53614	-2.63644	1.54348
24.54033	-2.65841	1.54348
24.54452	-2.63644	1.54348
24.54870	-2.63644	1.54348
24.55290	-2.63644	1.54348
24.55709	-2.63644	1.54348
24.56139	-2.63644	1.54348
24.56560	-2.63644	1.54348
24.56979	-2.63644	1.54348
24.57397	-2.63644	1.54348
24.57816	-2.63644	1.54348
24.58235	-2.63644	1.54348
24.58653	-2.61447	1.54348
24.59101	-2.63644	1.54348
24.59522	-2.61447	1.54348
24.59941	-2.61447	1.54348
24.60359	-2.61447	1.54348
24.60778	-2.61447	1.54348
24.61197	-2.61447	1.54348
24.61615	-2.61447	1.54348
24.62056	-2.61447	1.54348
24.62485	-2.61447	1.54348
24.62904	-2.61447	1.54348
24.63323	-2.61447	1.54348
24.63741	-2.61447	1.54348
24.64163	-2.61447	1.54348
24.64582	-2.61447	1.54348
24.65000	-2.61447	1.54348
24.65431	-2.61447	1.54348
24.65854	-2.61447	1.54348
24.66273	-2.61447	1.54348
24.66693	-2.61447	1.54348
24.67111	-2.61447	1.54348
24.67530	-2.61447	1.54348
24.67949	-2.61447	1.54348
24.68393	-2.59250	1.54348
24.68814	-2.59250	1.54348
24.69234	-2.59250	1.54348
24.69652	-2.61447	1.54348
24.70071	-2.59250	1.54348
24.70490	-2.59250	1.54348
24.70909	-2.59250	1.54348
24.71334	-2.59250	1.54348
24.71763	-2.59250	1.54348
24.72194	-2.59250	1.54348
24.72613	-2.59250	1.54348
24.73031	-2.59250	1.54348
24.73450	-2.59250	1.54348
24.73869	-2.59250	1.54348
24.74287	-2.59250	1.54348
24.74717	-2.59250	1.54348
24.75138	-2.59250	1.54348
24.75557	-2.59250	1.54348
24.75976	-2.59250	1.54348
24.76394	-2.59250	1.54348
24.76814	-2.59250	1.54348
24.77232	-2.59250	1.54348
24.77658	-2.59250	1.54348
24.78085	-2.59250	1.54348
24.78503	-2.59250	1.54348
24.78922	-2.59250	1.54348
24.79341	-2.59250	1.54348
24.79759	-2.59250	1.54348
24.80178	-2.61447	1.54348
24.80596	-2.59250	1.54348
24.81026	-2.59250	1.54348
24.81446	-2.59250	1.54348
24.81865	-2.59250	1.54348
24.82294	-2.59250	1.54348
24.82712	-2.59250	1.54348
24.83131	-2.61447	1.54348
24.83549	-2.59250	1.54348
24.83994	-2.59250	1.54348
24.84416	-2.59250	1.54348
24.84835	-2.59250	1.54348
24.85253	-2.59250	1.54348
24.85672	-2.61447	1.54348
24.86091	-2.61447	1.54348
24.86510	-2.59250	1.54348
24.86935	-2.61447	1.54348
24.87364	-2.61447	1.54348
24.87783	-2.61447	1.54348
24.88202	-2.59250	1.54348
24.88620	-2.61447	1.54348
24.89039	-2.61447	1.54348
24.89457	-2.61447	1.54348
24.89876	-2.61447	1.54348
24.90305	-2.61447	1.54348
24.90727	-2.61447	1.54348
24.91146	-2.61447	1.54348
24.91564	-2.61447	1.54348
24.91983	-2.61447	1.54348
24.92411	-2.61447	1.54348
24.92830	-2.61447	1.54348
24.93254	-2.61447	1.54348
24.93681	-2.61447	1.54348
24.94103	-2.61447	1.54348
24.94522	-2.61447	1.54348
24.94940	-2.61447	1.54348
24.95359	-2.61447	1.54348
24.95777	-2.61447	1.54348
24.96196	-2.61447	1.54348
24.96626	-2.63644	1.54348
24.97047	-2.61447	1.54348
24.97466	-2.63644	1.54348
24.97885	-2.63644	1.54348
24.98303	-2.63644	1.54348
24.98722	-2.63644	1.54348
24.99140	-2.63644	1.54348
24.99566	-2.63644	1.54348
24.99992	-2.63644	1.54348
25.00412	-2.63644	1.54348
25.00831	-2.63644	1.54348
25.01250	-2.63644	1.54348
25.01668	-2.63644	1.54348
25.02086	-2.63644	1.54348
25.02513	-2.63644	1.54348
25.02942	-2.63644	1.54348
25.03362	-2.63644	1.54348
25.03781	-2.63644	1.54348
25.04200	-2.63644	1.54348
25.04619	-2.65841	1.54348
25.05037	-2.65841	1.54348
25.05455	-2.65841	1.54348
25.05900	-2.65841	1.54348
25.06321	-2.65841	1.54348
25.06740	-2.65841	1.54348
25.07160	-2.65841	1.54348
25.07579	-2.65841	1.54348
25.07997	-2.65841	1.54348
25.08416	-2.65841	1.54348
25.08842	-2.65841	1.54348
25.09270	-2.65841	1.54348
25.09692	-2.65841	1.54348
25.10110	-2.65841	1.54348
25.10529	-2.65841	1.54348
25.10948	-2.65841	1.54348
25.11366	-2.68039	1.54348
25.11785	-2.65841	1.54348
25.12215	-2.68039	1.54348
25.12646	-2.65841	1.54348
25.13065	-2.65841	1.54348
25.13483	-2.65841	1.54348
25.13902	-2.68039	1.54348
25.14320	-2.68039	1.54348
25.14739	-2.68039	1.54348
25.15165	-2.68039	1.54348
25.15591	-2.68039	1.54348
25.16015	-2.68039	1.54348
25.16435	-2.68039	1.54348
25.16854	-2.68039	1.54348
25.17274	-2.68039	1.54348
25.17693	-2.70236	1.54348
25.18112	-2.68039	1.54348
25.18543	-2.70236	1.54348
25.18964	-2.70236	1.54348
25.19383	-2.70236	1.54348
25.19802	-2.70236	1.54348
25.20220	-2.70236	1.54348
25.20639	-2.70236	1.54348
25.21057	-2.70236	1.54348
25.21483	-2.70236	1.54348
25.21909	-2.70236	1.54348
25.22330	-2.70236	1.54348
25.22759	-2.72433	1.54348
25.23178	-2.70236	1.54348
25.23597	-2.72433	1.54348
25.24015	-2.72433	1.54348
25.24434	-2.70236	1.54348
25.24865	-2.72433	1.54348
25.25286	-2.72433	1.54348
25.25703	-2.72433	1.54348
25.26122	-2.72433	1.54348
25.26541	-2.72433	1.54348
25.26959	-2.72433	1.54348
25.27378	-2.72433	1.54348
25.27803	-2.72433	1.54348
25.28231	-2.72433	1.54348
25.28650	-2.74631	1.54348
25.29069	-2.74631	1.54348
25.29488	-2.74631	1.54348
25.29906	-2.74631	1.54348
25.30325	-2.74631	1.54348
25.30744	-2.74631	1.54348
25.31174	-2.74631	1.54348
25.31594	-2.74631	1.54348
25.32013	-2.74631	1.54348
25.32431	-2.74631	1.54348
25.32860	-2.74631	1.54348
25.33279	-2.76828	1.54348
25.33698	-2.76828	1.54348
25.34143	-2.76828	1.54348
25.34564	-2.76828	1.54348
25.34983	-2.76828	1.54348
25.35401	-2.76828	1.54348
25.35821	-2.76828	1.54348
25.36240	-2.76828	1.54348
25.36659	-2.76828	1.54348
25.37084	-2.76828	1.54348
25.37514	-2.76828	1.54348
25.37933	-2.76828	1.54348
25.38352	-2.76828	1.54348
25.38771	-2.76828	1.54348
25.39189	-2.76828	1.54348
25.39608	-2.76828	1.54348
25.40026	-2.76828	1.54348
25.40456	-2.76828	1.54348
25.40877	-2.76828	1.54348
25.41298	-2.76828	1.54348
25.41716	-2.76828	1.54348
25.42135	-2.76828	1.54348
25.42554	-2.76828	1.54348
25.42982	-2.76828	1.54348
25.43407	-2.76828	1.54348
25.43836	-2.76828	1.54348
25.44255	-2.76828	1.54348
25.44674	-2.76828	1.54348
25.45093	-2.76828	1.54348
25.45511	-2.76828	1.54348
25.45930	-2.79025	1.54348
25.46348	-2.79025	1.54348
25.46779	-2.79025	1.54348
25.47200	-2.79025	1.54348
25.47619	-2.76828	1.54348
25.48037	-2.76828	1.54348
25.48456	-2.79025	1.54348
25.48874	-2.76828	1.54348
25.49294	-2.79025	1.54348
25.49720	-2.79025	1.54348
25.50147	-2.79025	1.54348
25.50567	-2.79025	1.54348
25.50986	-2.79025	1.54348
25.51405	-2.79025	1.54348
25.51823	-2.79025	1.54348
25.52241	-2.79025	1.54348
25.52660	-2.79025	1.54348
25.53100	-2.79025	1.54348
25.53520	-2.79025	1.54348
25.53939	-2.79025	1.54348
25.54358	-2.79025	1.54348
25.54777	-2.79025	1.54348
25.55195	-2.81222	1.54348
25.55614	-2.81222	1.54348
25.56060	-2.79025	1.54348
25.56481	-2.79025	1.54348
25.56901	-2.79025	1.54348
25.57320	-2.79025	1.54348
25.57739	-2.79025	1.54348
25.58157	-2.79025	1.54348
25.58576	-2.79025	1.54348
25.59003	-2.79025	1.54348
25.59431	-2.81222	1.54348
25.59851	-2.79025	1.54348
25.60269	-2.81222	1.54348
25.60688	-2.81222	1.54348
25.61107	-2.79025	1.54348
25.61525	-2.81222	1.54348
25.61943	-2.81222	1.54348
25.62374	-2.81222	1.54348
25.62794	-2.81222	1.54348
25.63223	-2.81222	1.54348
25.63642	-2.81222	1.54348
25.64061	-2.79025	1.54348
25.64480	-2.81222	1.54348
25.64899	-2.81222	1.54348
25.65325	-2.81222	1.54348
25.65753	-2.81222	1.54348
25.66172	-2.81222	1.54348
25.66591	-2.81222	1.54348
25.67010	-2.81222	1.54348
25.67428	-2.81222	1.54348
25.67847	-2.81222	1.54348
25.68265	-2.81222	1.54348
25.68695	-2.81222	1.54348
25.69116	-2.81222	1.54348
25.69534	-2.81222	1.54348
25.69953	-2.81222	1.54348
25.70371	-2.81222	1.54348
25.70790	-2.81222	1.54348
25.71208	-2.81222	1.54348
25.71634	-2.81222	1.54348
25.72060	-2.79025	1.54348
25.72481	-2.81222	1.54348
25.72900	-2.81222	1.54348
25.73329	-2.81222	1.54348
25.73748	-2.81222	1.54348
25.74166	-2.81222	1.54348
25.74584	-2.81222	1.54348
25.75015	-2.81222	1.54348
25.75435	-2.79025	1.54348
25.75854	-2.81222	1.54348
25.76273	-2.81222	1.54348
25.76692	-2.81222	1.54348
25.77111	-2.79025	1.54348
25.77530	-2.79025	1.54348
25.77956	-2.79025	1.54348
25.78383	-2.81222	1.54348
25.78804	-2.81222	1.54348
25.79223	-2.81222	1.54348
25.79642	-2.79025	1.54348
25.80060	-2.81222	1.54348
25.80479	-2.79025	1.54348
25.80898	-2.79025	1.54348
25.81328	-2.79025	1.54348
25.81748	-2.79025	1.54348
25.82168	-2.79025	1.54348
25.82586	-2.81222	1.54348
25.83005	-2.79025	1.54348
25.83433	-2.79025	1.54348
25.83855	-2.79025	1.54348
25.84302	-2.79025	1.54348
25.84724	-2.79025	1.54348
25.85143	-2.79025	1.54348
25.85562	-2.79025	1.54348
25.85981	-2.79025	1.54348
25.86400	-2.79025	1.54348
25.86819	-2.79025	1.54348
25.87246	-2.79025	1.54348
25.87674	-2.79025	1.54348
25.88095	-2.79025	1.54348
25.88514	-2.81222	1.54348
25.88933	-2.79025	1.54348
25.89352	-2.81222	1.54348
25.89771	-2.81222	1.54348
25.90189	-2.79025	1.54348
25.90620	-2.79025	1.54348
25.91040	-2.79025	1.54348
25.91459	-2.79025	1.54348
25.91877	-2.79025	1.54348
25.92296	-2.79025	1.54348
25.92715	-2.79025	1.54348
25.93133	-2.81222	1.54348
25.93570	-2.79025	1.54348
25.93996	-2.79025	1.54348
25.94415	-2.79025	1.54348
25.94834	-2.81222	1.54348
25.95252	-2.81222	1.54348
25.95671	-2.79025	1.54348
25.96090	-2.81222	1.54348
25.96509	-2.79025	1.54348
25.96939	-2.79025	1.54348
25.97361	-2.81222	1.54348
25.97780	-2.79025	1.54348
25.98198	-2.79025	1.54348
25.98617	-2.79025	1.54348
25.99036	-2.79025	1.54348
25.99454	-2.79025	1.54348
25.99880	-2.81222	1.54348
26.00306	-2.81222	1.54348
26.00726	-2.79025	1.54348
26.01145	-2.79025	1.54348
26.01563	-2.81222	1.54348
26.01982	-2.81222	1.54348
26.02400	-2.79025	1.54348
26.02819	-2.79025	1.54348
26.03249	-2.79025	1.54348
26.03680	-2.79025	1.54348
26.04100	-2.81222	1.54348
26.04519	-2.79025	1.54348
26.04938	-2.79025	1.54348
26.05356	-2.81222	1.54348
26.05776	-2.79025	1.54348
26.06203	-2.79025	1.54348
26.06630	-2.81222	1.54348
26.07050	-2.79025	1.54348
26.07469	-2.81222	1.54348
26.07889	-2.81222	1.54348
26.08307	-2.81222	1.54348
26.08726	-2.81222	1.54348
26.09144	-2.81222	1.54348
26.09574	-2.81222	1.54348
26.09995	-2.79025	1.54348
26.10414	-2.81222	1.54348
26.10832	-2.81222	1.54348
26.11251	-2.79025	1.54348
26.11669	-2.81222	1.54348
26.12089	-2.81222	1.54348
26.12517	-2.81222	1.54348
26.12945	-2.81222	1.54348
26.13365	-2.81222	1.54348
26.13796	-2.79025	1.54348
26.14215	-2.81222	1.54348
26.14633	-2.81222	1.54348
26.15052	-2.81222	1.54348
26.15477	-2.81222	1.54348
26.15905	-2.81222	1.54348
26.16329	-2.81222	1.54348
26.16749	-2.81222	1.54348
26.17169	-2.81222	1.54348
26.17588	-2.81222	1.54348
26.18007	-2.81222	1.54348
26.18426	-2.81222	1.54348
26.18858	-2.81222	1.54348
26.19278	-2.81222	1.54348
26.19698	-2.81222	1.54348
26.20117	-2.81222	1.54348
26.20536	-2.81222	1.54348
26.20955	-2.81222	1.54348
26.21373	-2.81222	1.54348
26.21798	-2.83420	1.54348
26.22225	-2.83420	1.54348
26.22645	-2.83420	1.54348
26.23064	-2.83420	1.54348
26.23482	-2.83420	1.54348
26.23912	-2.83420	1.54348
26.24330	-2.83420	1.54348
26.24749	-2.83420	1.54348
26.25179	-2.83420	1.54348
26.25601	-2.83420	1.54348
26.26022	-2.85617	1.54348
26.26441	-2.85617	1.54348
26.26860	-2.83420	1.54348
26.27279	-2.85617	1.54348
26.27698	-2.83420	1.54348
26.28139	-2.85617	1.54348
26.28561	-2.85617	1.54348
26.28980	-2.85617	1.54348
26.29399	-2.85617	1.54348
26.29818	-2.85617	1.54348
26.30236	-2.85617	1.54348
26.30655	-2.85617	1.54348
26.31081	-2.85617	1.54348
26.31510	-2.85617	1.54348
26.31930	-2.85617	1.54348
26.32349	-2.87814	1.54348
26.32768	-2.85617	1.54348
26.33186	-2.85617	1.54348
26.33605	-2.87814	1.54348
26.34033	-2.87814	1.54348
26.34466	-2.87814	1.54348
26.34889	-2.87814	1.54348
26.35309	-2.87814	1.54348
26.35728	-2.87814	1.54348
26.36146	-2.87814	1.54348
26.36565	-2.87814	1.54348
26.36983	-2.87814	1.54348
26.37409	-2.87814	1.54348
26.37837	-2.90011	1.54348
26.38257	-2.90011	1.54348
26.38676	-2.90011	1.54348
26.39094	-2.90011	1.54348
26.39513	-2.90011	1.54348
26.39931	-2.90011	1.54348
26.40349	-2.90011	1.54348
26.40781	-2.92209	1.54348
26.41202	-2.92209	1.54348
26.41620	-2.92209	1.54348
26.42039	-2.92209	1.54348
26.42457	-2.92209	1.54348
26.42876	-2.92209	1.54348
26.43295	-2.92209	1.54348
26.43721	-2.92209	1.54348
26.44159	-2.94406	1.54348
26.44578	-2.94406	1.54348
26.44996	-2.94406	1.54348
26.45415	-2.94406	1.54348
26.45833	-2.94406	1.54348
26.46252	-2.94406	1.54348
26.46670	-2.94406	1.54348
26.47101	-2.96603	1.54348
26.47522	-2.96603	1.54348
26.47940	-2.96603	1.54348
26.48359	-2.96603	1.54348
26.48779	-2.96603	1.54348
26.49197	-2.96603	1.54348
26.49616	-2.98800	1.54348
26.50042	-2.98800	1.54348
26.50471	-2.98800	1.54348
26.50892	-2.98800	1.54348
26.51311	-2.98800	1.54348
26.51730	-2.98800	1.54348
26.52148	-2.98800	1.54348
26.52567	-3.00998	1.54348
26.52985	-3.00998	1.54348
26.53416	-3.00998	1.54348
26.53837	-3.00998	1.54348
26.54266	-3.03195	1.54348
26.54684	-3.03195	1.54348
26.55103	-3.03195	1.54348
26.55521	-3.03195	1.54348
26.55940	-3.03195	1.54348
26.56380	-3.03195	1.54348
26.56802	-3.03195	1.54348
26.57221	-3.05392	1.54348
26.57639	-3.05392	1.54348
26.58058	-3.05392	1.54348
26.58477	-3.05392	1.54348
26.58897	-3.05392	1.54348
26.59322	-3.05392	1.54348
26.59751	-3.07589	1.54348
26.60171	-3.07589	1.54348
26.60590	-3.07589	1.54348
26.61009	-3.07589	1.54348
26.61427	-3.07589	1.54348
26.61846	-3.07589	1.54348
26.62264	-3.09787	1.54348
26.62695	-3.09787	1.54348
26.63115	-3.09787	1.54348
26.63533	-3.09787	1.54348
26.63952	-3.09787	1.54348
26.64381	-3.11984	1.54348
26.64799	-3.11984	1.54348
26.65218	-3.11984	1.54348
26.65643	-3.11984	1.54348
26.66070	-3.11984	1.54348
26.66490	-3.11984	1.54348
26.66909	-3.14181	1.54348
26.67328	-3.14181	1.54348
26.67746	-3.14181	1.54348
26.68164	-3.14181	1.54348
26.68583	-3.14181	1.54348
26.69014	-3.14181	1.54348
26.69434	-3.16379	1.54348
26.69852	-3.16379	1.54348
26.70271	-3.16379	1.54348
26.70690	-3.16379	1.54348
26.71108	-3.16379	1.54348
26.71526	-3.16379	1.54348
26.71951	-3.18576	1.54348
26.72379	-3.18576	1.54348
26.72798	-3.18576	1.54348
26.73217	-3.18576	1.54348
26.73636	-3.18576	1.54348
26.74054	-3.18576	1.54348
26.74483	-3.20773	1.54348
26.74903	-3.20773	1.54348
26.75332	-3.20773	1.54348
26.75753	-3.20773	1.54348
26.76171	-3.22970	1.54348
26.76590	-3.22970	1.54348
26.77008	-3.22970	1.54348
26.77427	-3.22970	1.54348
26.77845	-3.22970	1.54348
26.78270	-3.25168	1.54348
26.78697	-3.25168	1.54348
26.79117	-3.25168	1.54348
26.79536	-3.25168	1.54348
26.79954	-3.25168	1.54348
26.80373	-3.25168	1.54348
26.80791	-3.25168	1.54348
26.81210	-3.25168	1.54348
26.81640	-3.27365	1.54348
26.82060	-3.27365	1.54348
26.82479	-3.27365	1.54348
26.82899	-3.27365	1.54348
26.83317	-3.29562	1.54348
26.83736	-3.27365	1.54348
26.84155	-3.27365	1.54348
26.84590	-3.29562	1.54348
26.85022	-3.29562	1.54348
26.85444	-3.29562	1.54348
26.85865	-3.29562	1.54348
26.86284	-3.31759	1.54348
26.86704	-3.31759	1.54348
26.87123	-3.31759	1.54348
26.87549	-3.31759	1.54348
26.87978	-3.31759	1.54348
26.88399	-3.31759	1.54348
26.88818	-3.33957	1.54348
26.89237	-3.33957	1.54348
26.89655	-3.33957	1.54348
26.90074	-3.33957	1.54348
26.90493	-3.33957	1.54348
26.90924	-3.33957	1.54348
26.91345	-3.33957	1.54348
26.91764	-3.36154	1.54348
26.92183	-3.36154	1.54348
26.92602	-3.36154	1.54348
26.93021	-3.36154	1.54348
26.93439	-3.36154	1.54348
26.93865	-3.36154	1.54348
26.94292	-3.38351	1.54348
26.94721	-3.38351	1.54348
26.95140	-3.38351	1.54348
26.95559	-3.38351	1.54348
26.95977	-3.38351	1.54348
26.96396	-3.38351	1.54348
26.96814	-3.38351	1.54348
26.97244	-3.38351	1.54348
26.97664	-3.38351	1.54348
26.98083	-3.38351	1.54348
26.98502	-3.40548	1.54348
26.98920	-3.40548	1.54348
26.99339	-3.40548	1.54348
26.99757	-3.40548	1.54348
27.00183	-3.40548	1.54348
27.00610	-3.40548	1.54348
27.01029	-3.42746	1.54348
27.01448	-3.42746	1.54348
27.01867	-3.42746	1.54348
27.02285	-3.42746	1.54348
27.02704	-3.42746	1.54348
27.03122	-3.42746	1.54348
27.03552	-3.44943	1.54348
27.03973	-3.44943	1.54348
27.04392	-3.44943	1.54348
27.04821	-3.44943	1.54348
27.05240	-3.44943	1.54348
27.05658	-3.44943	1.54348
27.06077	-3.44943	1.54348
27.06522	-3.44943	1.54348
27.06944	-3.47140	1.54348
27.07364	-3.47140	1.54348
27.07848	-3.47140	1.54348
27.08268	-3.47140	1.54348
27.08689	-3.47140	1.54348
27.09108	-3.49338	1.54348
27.09537	-3.49338	1.54348
27.09964	-3.49338	1.54348
27.10384	-3.49338	1.54348
27.10804	-3.49338	1.54348
27.11223	-3.51535	1.54348
27.11642	-3.51535	1.54348
27.12061	-3.51535	1.54348
27.12480	-3.51535	1.54348
27.12912	-3.51535	1.54348
27.13333	-3.51535	1.54348
27.13752	-3.51535	1.54348
27.14172	-3.53732	1.54348
27.14591	-3.53732	1.54348
27.15021	-3.53732	1.54348
27.15440	-3.53732	1.54348
27.15890	-3.53732	1.54348
27.16311	-3.55929	1.54348
27.16730	-3.55929	1.54348
27.17148	-3.55929	1.54348
27.17567	-3.55929	1.54348
27.17985	-3.58127	1.54348
27.18404	-3.58127	1.54348
27.18830	-3.58127	1.54348
27.19258	-3.58127	1.54348
27.19678	-3.58127	1.54348
27.20097	-3.60324	1.54348
27.20516	-3.60324	1.54348
27.20934	-3.60324	1.54348
27.21353	-3.60324	1.54348
27.21771	-3.60324	1.54348
27.22202	-3.60324	1.54348
27.22622	-3.62521	1.54348
27.23040	-3.62521	1.54348
27.23459	-3.62521	1.54348
27.23877	-3.64718	1.54348
27.24296	-3.64718	1.54348
27.24714	-3.64718	1.54348
27.25151	-3.64718	1.54348
27.25580	-3.64718	1.54348
27.26000	-3.64718	1.54348
27.26419	-3.66916	1.54348
27.26838	-3.66916	1.54348
27.27256	-3.66916	1.54348
27.27675	-3.69113	1.54348
27.28094	-3.69113	1.54348
27.28525	-3.69113	1.54348
27.28946	-3.69113	1.54348
27.29366	-3.69113	1.54348
27.29785	-3.71310	1.54348
27.30203	-3.71310	1.54348
27.30622	-3.71310	1.54348
27.31040	-3.73507	1.54348
27.31465	-3.73507	1.54348
27.31892	-3.73507	1.54348
27.32313	-3.75705	1.54348
27.32731	-3.75705	1.54348
27.33150	-3.75705	1.54348
27.33568	-3.75705	1.54348
27.33987	-3.75705	1.54348
27.34405	-3.77902	1.54348
27.34835	-3.77902	1.54348
27.35266	-3.77902	1.54348
27.35685	-3.77902	1.54348
27.36102	-3.80099	1.54348
27.36521	-3.80099	1.54348
27.36939	-3.80099	1.54348
27.37358	-3.80099	1.54348
27.37803	-3.82297	1.54348
27.38225	-3.82297	1.54348
27.38644	-3.82297	1.54348
27.39065	-3.84494	1.54348
27.39484	-3.84494	1.54348
27.39903	-3.84494	1.54348
27.40322	-3.86691	1.54348
27.40750	-3.86691	1.54348
27.41180	-3.86691	1.54348
27.41600	-3.86691	1.54348
27.42020	-3.88888	1.54348
27.42439	-3.88888	1.54348
27.42858	-3.88888	1.54348
27.43277	-3.88888	1.54348
27.43697	-3.91086	1.54348
27.44129	-3.91086	1.54348
27.44549	-3.91086	1.54348
27.44969	-3.93283	1.54348
27.45399	-3.93283	1.54348
27.45818	-3.93283	1.54348
27.46237	-3.95480	1.54348
27.46656	-3.95480	1.54348
27.47083	-3.95480	1.54348
27.47510	-3.95480	1.54348
27.47930	-3.97677	1.54348
27.48350	-3.97677	1.54348
27.48769	-3.97677	1.54348
27.49189	-3.97677	1.54348
27.49608	-3.99875	1.54348
27.50027	-3.99875	1.54348
27.50458	-3.99875	1.54348
27.50879	-4.02072	1.54348
27.51299	-4.02072	1.54348
27.51717	-4.02072	1.54348
27.52136	-4.02072	1.54348
27.52554	-4.02072	1.54348
27.52972	-4.04269	1.54348
27.53417	-4.04269	1.54348
27.53839	-4.04269	1.54348
27.54258	-4.04269	1.54348
27.54677	-4.06466	1.54348
27.55096	-4.06466	1.54348
27.55526	-4.06466	1.54348
27.55945	-4.06466	1.54348
27.56373	-4.08664	1.54348
27.56801	-4.08664	1.54348
27.57222	-4.08664	1.54348
27.57640	-4.08664	1.54348
27.58059	-4.10861	1.54348
27.58477	-4.10861	1.54348
27.58896	-4.10861	1.54348
27.59315	-4.10861	1.54348
27.59745	-4.10861	1.54348
27.60166	-4.13058	1.54348
27.60585	-4.13058	1.54348
27.61003	-4.13058	1.54348
27.61422	-4.13058	1.54348
27.61840	-4.13058	1.54348
27.62259	-4.15256	1.54348
27.62684	-4.15256	1.54348
27.63112	-4.15256	1.54348
27.63531	-4.15256	1.54348
27.63950	-4.15256	1.54348
27.64369	-4.15256	1.54348
27.64787	-4.15256	1.54348
27.65206	-4.17453	1.54348
27.65635	-4.17453	1.54348
27.66065	-4.17453	1.54348
27.66486	-4.17453	1.54348
27.66902	-4.17453	1.54348
27.67321	-4.17453	1.54348
27.67739	-4.17453	1.54348
27.68158	-4.17453	1.54348
27.68577	-4.17453	1.54348
27.69022	-4.17453	1.54348
27.69443	-4.17453	1.54348
27.69862	-4.19650	1.54348
27.70281	-4.19650	1.54348
27.70700	-4.19650	1.54348
27.71119	-4.19650	1.54348
27.71538	-4.19650	1.54348
27.71966	-4.19650	1.54348
27.72395	-4.19650	1.54348
27.72815	-4.19650	1.54348
27.73235	-4.19650	1.54348
27.73654	-4.19650	1.54348
27.74073	-4.19650	1.54348
27.74494	-4.19650	1.54348
27.74913	-4.19650	1.54348
27.75345	-4.19650	1.54348
27.75778	-4.19650	1.54348
27.76197	-4.19650	1.54348
27.76616	-4.19650	1.54348
27.77035	-4.19650	1.54348
27.77454	-4.19650	1.54348
27.77872	-4.19650	1.54348
27.78316	-4.21847	1.54348
27.78737	-4.19650	1.54348
27.79157	-4.21847	1.54348
27.79577	-4.19650	1.54348
27.79996	-4.19650	1.54348
27.80414	-4.19650	1.54348
27.80833	-4.19650	1.54348
27.81258	-4.19650	1.54348
27.81686	-4.19650	1.54348
27.82103	-4.19650	1.54348
27.82522	-4.19650	1.54348
27.82941	-4.19650	1.54348
27.83359	-4.19650	1.54348
27.83778	-4.19650	1.54348
27.84196	-4.19650	1.54348
27.84626	-4.19650	1.54348
27.85046	-4.19650	1.54348
27.85465	-4.17453	1.54348
27.85894	-4.17453	1.54348
27.86313	-4.17453	1.54348
27.86731	-4.17453	1.54348
27.87149	-4.17453	1.54348
27.87593	-4.17453	1.54348
27.88015	-4.17453	1.54348
27.88434	-4.17453	1.54348
27.88853	-4.17453	1.54348
27.89272	-4.15256	1.54348
27.89693	-4.15256	1.54348
27.90112	-4.15256	1.54348
27.90539	-4.15256	1.54348
27.90968	-4.15256	1.54348
27.91388	-4.15256	1.54348
27.91807	-4.15256	1.54348
27.92226	-4.13058	1.54348
27.92646	-4.13058	1.54348
27.93064	-4.10861	1.54348
27.93483	-4.13058	1.54348
27.93914	-4.13058	1.54348
27.94335	-4.10861	1.54348
27.94754	-4.10861	1.54348
27.95173	-4.10861	1.54348
27.95592	-4.10861	1.54348
27.96022	-4.08664	1.54348
27.96442	-4.08664	1.54348
27.96887	-4.08664	1.54348
27.97305	-4.08664	1.54348
27.97725	-4.08664	1.54348
27.98144	-4.06466	1.54348
27.98563	-4.06466	1.54348
27.98981	-4.06466	1.54348
27.99400	-4.04269	1.54348
27.99826	-4.04269	1.54348
28.00254	-4.04269	1.54348
28.00674	-4.04269	1.54348
28.01093	-4.04269	1.54348
28.01511	-4.04269	1.54348
28.01930	-4.02072	1.54348
28.02348	-4.02072	1.54348
28.02766	-3.99875	1.54348
28.03197	-3.99875	1.54348
28.03617	-3.99875	1.54348
28.04036	-3.99875	1.54348
28.04455	-3.97677	1.54348
28.04873	-3.97677	1.54348
28.05293	-3.97677	1.54348
28.05712	-3.97677	1.54348
28.06148	-3.97677	1.54348
28.06574	-3.95480	1.54348
28.06993	-3.95480	1.54348
28.07412	-3.93283	1.54348
28.07831	-3.93283	1.54348
28.08249	-3.93283	1.54348
28.08667	-3.93283	1.54348
28.09086	-3.91086	1.54348
28.09516	-3.91086	1.54348
28.09937	-3.88888	1.54348
28.10355	-3.88888	1.54348
28.10774	-3.88888	1.54348
28.11192	-3.88888	1.54348
28.11611	-3.86691	1.54348
28.12029	-3.86691	1.54348
28.12455	-3.84494	1.54348
28.12881	-3.84494	1.54348
28.13302	-3.84494	1.54348
28.13720	-3.84494	1.54348
28.14139	-3.84494	1.54348
28.14558	-3.82297	1.54348
28.14976	-3.82297	1.54348
28.15394	-3.82297	1.54348
28.15825	-3.80099	1.54348
28.16257	-3.80099	1.54348
28.16676	-3.80099	1.54348
28.17095	-3.80099	1.54348
28.17514	-3.77902	1.54348
28.17933	-3.77902	1.54348
28.18351	-3.75705	1.54348
28.18799	-3.75705	1.54348
28.19221	-3.75705	1.54348
28.19640	-3.75705	1.54348
28.20060	-3.75705	1.54348
28.20480	-3.73507	1.54348
28.20900	-3.73507	1.54348
28.21319	-3.73507	1.54348
28.21747	-3.71310	1.54348
28.22183	-3.71310	1.54348
28.22604	-3.71310	1.54348
28.23023	-3.71310	1.54348
28.23443	-3.69113	1.54348
28.23863	-3.69113	1.54348
28.24284	-3.69113	1.54348
28.24704	-3.69113	1.54348
28.25136	-3.66916	1.54348
28.25562	-3.66916	1.54348
28.25982	-3.66916	1.54348
28.26413	-3.64718	1.54348
28.26832	-3.64718	1.54348
28.27251	-3.64718	1.54348
28.27670	-3.64718	1.54348
28.28115	-3.62521	1.54348
28.28536	-3.62521	1.54348
28.28956	-3.62521	1.54348
28.29375	-3.60324	1.54348
28.29794	-3.60324	1.54348
28.30213	-3.60324	1.54348
28.30632	-3.60324	1.54348
28.31061	-3.58127	1.54348
28.31491	-3.58127	1.54348
28.31911	-3.55929	1.54348
28.32330	-3.55929	1.54348
28.32748	-3.55929	1.54348
28.33167	-3.55929	1.54348
28.33586	-3.53732	1.54348
28.34006	-3.53732	1.54348
28.34437	-3.53732	1.54348
28.34858	-3.51535	1.54348
28.35277	-3.51535	1.54348
28.35696	-3.51535	1.54348
28.36115	-3.51535	1.54348
28.36544	-3.51535	1.54348
28.36962	-3.49338	1.54348
28.37406	-3.49338	1.54348
28.37827	-3.49338	1.54348
28.38246	-3.49338	1.54348
28.38665	-3.47140	1.54348
28.39084	-3.47140	1.54348
28.39503	-3.47140	1.54348
28.39922	-3.47140	1.54348
28.40350	-3.44943	1.54348
28.40779	-3.44943	1.54348
28.41200	-3.44943	1.54348
28.41619	-3.44943	1.54348
28.42038	-3.42746	1.54348
28.42458	-3.42746	1.54348
28.42877	-3.42746	1.54348
28.43297	-3.42746	1.54348
28.43729	-3.42746	1.54348
28.44151	-3.40548	1.54348
28.44572	-3.40548	1.54348
28.44991	-3.40548	1.54348
28.45410	-3.38351	1.54348
28.45830	-3.38351	1.54348
28.46249	-3.38351	1.54348
28.46689	-3.38351	1.54348
28.47116	-3.38351	1.54348
28.47536	-3.36154	1.54348
28.47955	-3.36154	1.54348
28.48374	-3.36154	1.54348
28.48793	-3.36154	1.54348
28.49212	-3.36154	1.54348
28.49631	-3.33957	1.54348
28.50063	-3.33957	1.54348
28.50484	-3.33957	1.54348
28.50902	-3.33957	1.54348
28.51321	-3.33957	1.54348
28.51739	-3.33957	1.54348
28.52158	-3.31759	1.54348
28.52576	-3.31759	1.54348
28.53021	-3.31759	1.54348
28.53442	-3.29562	1.54348
28.53863	-3.29562	1.54348
28.54283	-3.29562	1.54348
28.54703	-3.29562	1.54348
28.55123	-3.29562	1.54348
28.55543	-3.27365	1.54348
28.55971	-3.27365	1.54348
28.56400	-3.27365	1.54348
28.56832	-3.27365	1.54348
28.57251	-3.27365	1.54348
28.57670	-3.25168	1.54348
28.58091	-3.25168	1.54348
28.58510	-3.25168	1.54348
28.58929	-3.25168	1.54348
28.59359	-3.25168	1.54348
28.59780	-3.22970	1.54348
28.60199	-3.22970	1.54348
28.60617	-3.22970	1.54348
28.61036	-3.22970	1.54348
28.61454	-3.22970	1.54348
28.61873	-3.22970	1.54348
28.62314	-3.22970	1.54348
28.62736	-3.20773	1.54348
28.63155	-3.20773	1.54348
28.63574	-3.18576	1.54348
28.63995	-3.18576	1.54348
28.64416	-3.18576	1.54348
28.64837	-3.18576	1.54348
28.65269	-3.18576	1.54348
28.65702	-3.18576	1.54348
28.66123	-3.18576	1.54348
28.66542	-3.16379	1.54348
28.66972	-3.16379	1.54348
28.67392	-3.16379	1.54348
28.67811	-3.16379	1.54348
28.68230	-3.16379	1.54348
28.68661	-3.14181	1.54348
28.69082	-3.14181	1.54348
28.69501	-3.14181	1.54348
28.69920	-3.14181	1.54348
28.70340	-3.14181	1.54348
28.70759	-3.11984	1.54348
28.71178	-3.11984	1.54348
28.71621	-3.11984	1.54348
28.72043	-3.11984	1.54348
28.72462	-3.09787	1.54348
28.72881	-3.09787	1.54348
28.73301	-3.09787	1.54348
28.73720	-3.09787	1.54348
28.74140	-3.09787	1.54348
28.74568	-3.07589	1.54348
28.74996	-3.07589	1.54348
28.75417	-3.07589	1.54348
28.75836	-3.07589	1.54348
28.76254	-3.07589	1.54348
28.76673	-3.07589	1.54348
28.77102	-3.05392	1.54348
28.77520	-3.05392	1.54348
28.77950	-3.05392	1.54348
28.78370	-3.05392	1.54348
28.78789	-3.05392	1.54348
28.79208	-3.03195	1.54348
28.79627	-3.03195	1.54348
28.80045	-3.03195	1.54348
28.80464	-3.03195	1.54348
28.80891	-3.03195	1.54348
28.81319	-3.00998	1.54348
28.81739	-3.00998	1.54348
28.82157	-3.00998	1.54348
28.82576	-2.98800	1.54348
28.82995	-2.98800	1.54348
28.83413	-2.98800	1.54348
28.83832	-2.98800	1.54348
28.84264	-2.98800	1.54348
28.84685	-2.98800	1.54348
28.85104	-2.96603	1.54348
28.85523	-2.96603	1.54348
28.85942	-2.96603	1.54348
28.86360	-2.96603	1.54348
28.86779	-2.96603	1.54348
28.87235	-2.94406	1.54348
28.87656	-2.94406	1.54348
28.88075	-2.94406	1.54348
28.88495	-2.94406	1.54348
28.88914	-2.92209	1.54348
28.89334	-2.94406	1.54348
28.89753	-2.92209	1.54348
28.90181	-2.92209	1.54348
28.90611	-2.92209	1.54348
28.91031	-2.90011	1.54348
28.91450	-2.90011	1.54348
28.91869	-2.90011	1.54348
28.92288	-2.90011	1.54348
28.92707	-2.87814	1.54348
28.93126	-2.90011	1.54348
28.93557	-2.87814	1.54348
28.93981	-2.87814	1.54348
28.94401	-2.90011	1.54348
28.94821	-2.90011	1.54348
28.95240	-2.87814	1.54348
28.95659	-2.87814	1.54348
28.96078	-2.87814	1.54348
28.96514	-2.85617	1.54348
28.96942	-2.85617	1.54348
28.97373	-2.87814	1.54348
28.97791	-2.85617	1.54348
28.98210	-2.85617	1.54348
28.98629	-2.85617	1.54348
28.99047	-2.85617	1.54348
28.99472	-2.85617	1.54348
28.99901	-2.85617	1.54348
29.00321	-2.85617	1.54348
29.00740	-2.85617	1.54348
29.01158	-2.85617	1.54348
29.01577	-2.83420	1.54348
29.01995	-2.83420	1.54348
29.02414	-2.83420	1.54348
29.02844	-2.83420	1.54348
29.03265	-2.83420	1.54348
29.03683	-2.83420	1.54348
29.04104	-2.83420	1.54348
29.04524	-2.83420	1.54348
29.04943	-2.83420	1.54348
29.05362	-2.83420	1.54348
29.05788	-2.83420	1.54348
29.06216	-2.83420	1.54348
29.06637	-2.83420	1.54348
29.07056	-2.83420	1.54348
29.07485	-2.83420	1.54348
29.07903	-2.83420	1.54348
29.08322	-2.83420	1.54348
29.08740	-2.83420	1.54348
29.09171	-2.83420	1.54348
29.09591	-2.83420	1.54348
29.10010	-2.83420	1.54348
29.10429	-2.83420	1.54348
29.10847	-2.83420	1.54348
29.11266	-2.83420	1.54348
29.11684	-2.83420	1.54348
29.12110	-2.83420	1.54348
29.12537	-2.83420	1.54348
29.12956	-2.83420	1.54348
29.13375	-2.83420	1.54348
29.13794	-2.83420	1.54348
29.14214	-2.83420	1.54348
29.14633	-2.83420	1.54348
29.15052	-2.83420	1.54348
29.15483	-2.83420	1.54348
29.15905	-2.83420	1.54348
29.16324	-2.83420	1.54348
29.16743	-2.83420	1.54348
29.17162	-2.85617	1.54348
29.17591	-2.85617	1.54348
29.18010	-2.83420	1.54348
29.18457	-2.85617	1.54348
29.18879	-2.85617	1.54348
29.19299	-2.85617	1.54348
29.19719	-2.85617	1.54348
29.20138	-2.85617	1.54348
29.20557	-2.85617	1.54348
29.20976	-2.87814	1.54348
29.21405	-2.87814	1.54348
29.21834	-2.87814	1.54348
29.22255	-2.87814	1.54348
29.22675	-2.87814	1.54348
29.23095	-2.87814	1.54348
29.23514	-2.90011	1.54348
29.23936	-2.87814	1.54348
29.24356	-2.90011	1.54348
29.24789	-2.90011	1.54348
29.25211	-2.90011	1.54348
29.25633	-2.90011	1.54348
29.26053	-2.90011	1.54348
29.26473	-2.92209	1.54348
29.26893	-2.92209	1.54348
29.27312	-2.92209	1.54348
29.27753	-2.92209	1.54348
29.28180	-2.94406	1.54348
29.28600	-2.94406	1.54348
29.29022	-2.94406	1.54348
29.29442	-2.94406	1.54348
29.29862	-2.96603	1.54348
29.30281	-2.96603	1.54348
29.30708	-2.96603	1.54348
29.31144	-2.96603	1.54348
29.31565	-2.96603	1.54348
29.31984	-2.96603	1.54348
29.32404	-2.98800	1.54348
29.32824	-2.98800	1.54348
29.33243	-2.98800	1.54348
29.33662	-2.98800	1.54348
29.34100	-3.00998	1.54348
29.34520	-3.00998	1.54348
29.34940	-3.00998	1.54348
29.35360	-3.00998	1.54348
29.35779	-3.00998	1.54348
29.36198	-3.00998	1.54348
29.36616	-3.03195	1.54348
29.37062	-3.03195	1.54348
29.37484	-3.03195	1.54348
29.37915	-3.05392	1.54348
29.38334	-3.05392	1.54348
29.38753	-3.05392	1.54348
29.39173	-3.05392	1.54348
29.39592	-3.05392	1.54348
29.40019	-3.07589	1.54348
29.40447	-3.07589	1.54348
29.40869	-3.07589	1.54348
29.41288	-3.07589	1.54348
29.41703	-3.07589	1.54348
29.42122	-3.07589	1.54348
29.42541	-3.09787	1.54348
29.42960	-3.09787	1.54348
29.43391	-3.09787	1.54348
29.43813	-3.09787	1.54348
29.44234	-3.09787	1.54348
29.44654	-3.09787	1.54348
29.45073	-3.11984	1.54348
29.45493	-3.11984	1.54348
29.45913	-3.11984	1.54348
29.46357	-3.11984	1.54348
29.46779	-3.14181	1.54348
29.47200	-3.14181	1.54348
29.47619	-3.14181	1.54348
29.48050	-3.11984	1.54348
29.48469	-3.14181	1.54348
29.48888	-3.14181	1.54348
29.49311	-3.14181	1.54348
29.49738	-3.14181	1.54348
29.50158	-3.14181	1.54348
29.50577	-3.16379	1.54348
29.50996	-3.16379	1.54348
29.51415	-3.16379	1.54348
29.51834	-3.16379	1.54348
29.52253	-3.16379	1.54348
29.52684	-3.16379	1.54348
29.53104	-3.16379	1.54348
29.53522	-3.18576	1.54348
29.53941	-3.16379	1.54348
29.54361	-3.18576	1.54348
29.54780	-3.18576	1.54348
29.55199	-3.16379	1.54348
29.55644	-3.16379	1.54348
29.56067	-3.18576	1.54348
29.56486	-3.18576	1.54348
29.56903	-3.18576	1.54348
29.57322	-3.18576	1.54348
29.57740	-3.18576	1.54348
29.58169	-3.18576	1.54348
29.58595	-3.18576	1.54348
29.59022	-3.18576	1.54348
29.59441	-3.18576	1.54348
29.59860	-3.20773	1.54348
29.60278	-3.20773	1.54348
29.60697	-3.18576	1.54348
29.61115	-3.18576	1.54348
29.61534	-3.18576	1.54348
29.61964	-3.18576	1.54348
29.62385	-3.20773	1.54348
29.62803	-3.20773	1.54348
29.63222	-3.18576	1.54348
29.63640	-3.18576	1.54348
29.64060	-3.20773	1.54348
29.64480	-3.18576	1.54348
29.64926	-3.20773	1.54348
29.65348	-3.18576	1.54348
29.65767	-3.18576	1.54348
29.66187	-3.18576	1.54348
29.66606	-3.20773	1.54348
29.67025	-3.20773	1.54348
29.67444	-3.18576	1.54348
29.67872	-3.20773	1.54348
29.68313	-3.20773	1.54348
29.68733	-3.20773	1.54348
29.69152	-3.20773	1.54348
29.69571	-3.18576	1.54348
29.69990	-3.20773	1.54348
29.70409	-3.20773	1.54348
29.70828	-3.20773	1.54348
29.71259	-3.20773	1.54348
29.71681	-3.18576	1.54348
29.72101	-3.18576	1.54348
29.72520	-3.18576	1.54348
29.72939	-3.18576	1.54348
29.73358	-3.20773	1.54348
29.73777	-3.20773	1.54348
29.74225	-3.18576	1.54348
29.74647	-3.20773	1.54348
29.75067	-3.18576	1.54348
29.75486	-3.18576	1.54348
29.75905	-3.18576	1.54348
29.76323	-3.20773	1.54348
29.76742	-3.20773	1.54348
29.77168	-3.18576	1.54348
29.77595	-3.20773	1.54348
29.78014	-3.18576	1.54348
29.78443	-3.18576	1.54348
29.78862	-3.18576	1.54348
29.79281	-3.18576	1.54348
29.79700	-3.18576	1.54348
29.80119	-3.18576	1.54348
29.80549	-3.18576	1.54348
29.80969	-3.18576	1.54348
29.81388	-3.18576	1.54348
29.81807	-3.18576	1.54348
29.82225	-3.18576	1.54348
29.82643	-3.18576	1.54348
29.83062	-3.18576	1.54348
29.83487	-3.18576	1.54348
29.83914	-3.18576	1.54348
29.84336	-3.18576	1.54348
29.84755	-3.16379	1.54348
29.85173	-3.18576	1.54348
29.85592	-3.16379	1.54348
29.86011	-3.16379	1.54348
29.86429	-3.16379	1.54348
29.86859	-3.16379	1.54348
29.87280	-3.16379	1.54348
29.87700	-3.16379	1.54348
29.88119	-3.16379	1.54348
29.88548	-3.16379	1.54348
29.88966	-3.16379	1.54348
29.89384	-3.16379	1.54348
29.89827	-3.16379	1.54348
29.90249	-3.16379	1.54348
29.90669	-3.16379	1.54348
29.91089	-3.16379	1.54348
29.91508	-3.14181	1.54348
29.91927	-3.14181	1.54348
29.92346	-3.14181	1.54348
29.92772	-3.14181	1.54348
29.93201	-3.14181	1.54348
29.93622	-3.14181	1.54348
29.94046	-3.14181	1.54348
29.94466	-3.14181	1.54348
29.94885	-3.14181	1.54348
29.95303	-3.11984	1.54348
29.95723	-3.14181	1.54348
29.96155	-3.11984	1.54348
29.96575	-3.11984	1.54348
29.96995	-3.11984	1.54348
29.97414	-3.11984	1.54348
29.97833	-3.11984	1.54348
29.98253	-3.11984	1.54348
29.98683	-3.11984	1.54348
29.99125	-3.09787	1.54348
29.99547	-3.11984	1.54348
29.99966	-3.11984	1.54348
