Time (s)   roll (deg)   Delta
0.00040	-7.47043	11.27051
0.00462	-7.47043	11.27051
0.00881	-7.47043	11.27051
0.01298	-7.47043	11.27051
0.01716	-7.47043	11.27051
0.02133	-7.44845	11.27051
0.02577	-7.47043	11.27051
0.02996	-7.47043	11.27051
0.03413	-7.47043	11.27051
0.03830	-7.47043	11.27051
0.04247	-7.47043	11.27051
0.04664	-7.44845	11.27051
0.05081	-7.44845	11.27051
0.05511	-7.47043	11.27051
0.05934	-7.47043	11.27051
0.06351	-7.47043	11.27051
0.06768	-7.47043	11.27051
0.07185	-7.47043	11.27051
0.07602	-7.47043	11.27051
0.08019	-7.47043	11.27051
0.08442	-7.47043	11.27051
0.08866	-7.47043	11.27051
0.09284	-7.49240	11.27051
0.09701	-7.49240	11.27051
0.10127	-7.49240	11.27051
0.10544	-7.49240	11.27051
0.10962	-7.51437	11.27051
0.11380	-7.51437	11.27051
0.11810	-7.51437	11.27051
0.12230	-7.53634	11.27051
0.12649	-7.53634	11.27051
0.13067	-7.53634	11.27051
0.13485	-7.53634	11.27051
0.13904	-7.55832	11.27051
0.14322	-7.55832	11.27051
0.14760	-7.58029	11.27051
0.15180	-7.58029	11.27051
0.15599	-7.60226	11.27051
0.16017	-7.60226	11.27051
0.16435	-7.62423	11.27051
0.16853	-7.64621	11.27051
0.17271	-7.64621	11.27051
0.17698	-7.66818	11.27051
0.18123	-7.66818	11.27051
0.18542	-7.69015	11.27051
0.18962	-7.71213	11.27051
0.19380	-7.73410	11.27051
0.19798	-7.75607	11.27051
0.20227	-7.77804	11.27051
0.20652	-7.77804	11.27051
0.21083	-7.80002	11.27051
0.21505	-7.82199	11.27051
0.21925	-7.84396	11.27051
0.22344	-7.86593	11.27051
0.22763	-7.88791	11.27051
0.23181	-7.93185	11.27051
0.23599	-7.93185	11.27051
0.24029	-7.95382	11.27051
0.24448	-7.97580	11.27051
0.24867	-8.01974	11.27051
0.25285	-8.04172	11.27051
0.25703	-8.04172	11.27051
0.26122	-8.08566	11.27051
0.26540	-8.12961	11.27051
0.26985	-8.12961	11.27051
0.27405	-8.17355	11.27051
0.27824	-8.21750	11.27051
0.28242	-8.23947	11.27051
0.28660	-8.23947	11.27051
0.29079	-8.28341	11.27051
0.29497	-8.32736	11.27051
0.29923	-8.37131	11.27051
0.30359	-8.41525	11.27051
0.30778	-8.43722	11.27051
0.31198	-8.48117	11.27051
0.31616	-8.48117	11.27051
0.32034	-8.52511	11.27051
0.32452	-8.56906	11.27051
0.32877	-8.61300	11.27051
0.33304	-8.65695	11.27051
0.33725	-8.70089	11.27051
0.34143	-8.70089	11.27051
0.34562	-8.74484	11.27051
0.34981	-8.81076	11.27051
0.35399	-8.83273	11.27051
0.35817	-8.89865	11.27051
0.36246	-8.94259	11.27051
0.36665	-9.00851	11.27051
0.37086	-9.00851	11.27051
0.37505	-9.05246	11.27051
0.37924	-9.09640	11.27051
0.38342	-9.16232	11.27051
0.38760	-9.20627	11.27051
0.39201	-9.20627	11.27051
0.39622	-9.27218	11.27051
0.40040	-9.29416	11.27051
0.40468	-9.36007	11.27051
0.40887	-9.42599	11.27051
0.41305	-9.49191	11.27051
0.41723	-9.53586	11.27051
0.42149	-9.53586	11.27051
0.42574	-9.60177	11.27051
0.42993	-9.66769	11.27051
0.43413	-9.73361	11.27051
0.43832	-9.79953	11.27051
0.44250	-9.84347	11.27051
0.44669	-9.84347	11.27051
0.45093	-9.90939	11.27051
0.45520	-9.97531	11.27051
0.45939	-10.04123	11.27051
0.46358	-10.10714	11.27051
0.46776	-10.10714	11.27051
0.47194	-10.17306	11.27051
0.47613	-10.23898	11.27051
0.48031	-10.30490	11.27051
0.48460	-10.34884	11.27051
0.48880	-10.43673	11.27051
0.49299	-10.50265	11.27051
0.49717	-10.50265	11.27051
0.50136	-10.56857	11.27051
0.50566	-10.63449	11.27051
0.50984	-10.70041	11.27051
0.51426	-10.76632	11.27051
0.51846	-10.83224	11.27051
0.52265	-10.89816	11.27051
0.52683	-10.89816	11.27051
0.53101	-10.96408	11.27051
0.53519	-11.03000	11.27051
0.53938	-11.11789	11.27051
0.54363	-11.18381	11.27051
0.54788	-11.18381	11.27051
0.55207	-11.24972	11.27051
0.55626	-11.33761	11.27051
0.56044	-11.40353	11.27051
0.56462	-11.49142	11.27051
0.56880	-11.53537	11.27051
0.57305	-11.62326	11.27051
0.57732	-11.62326	11.27051
0.58151	-11.68918	11.27051
0.58568	-11.77707	11.27051
0.58986	-11.84298	11.27051
0.59404	-11.93088	11.27051
0.59822	-11.99679	11.27051
0.60240	-11.99679	11.27051
0.60680	-12.08468	11.27051
0.61099	-12.15060	11.27051
0.61518	-12.21652	11.27051
0.61936	-12.30441	11.27051
0.62354	-12.37033	11.27051
0.62772	-12.37033	11.27051
0.63191	-12.43625	11.27051
0.63631	-12.52414	11.27051
0.64050	-12.61203	11.27051
0.64469	-12.69992	11.27051
0.64887	-12.76584	11.27051
0.65305	-12.83175	11.27051
0.65723	-12.83175	11.27051
0.66142	-12.91964	11.27051
0.66569	-12.98556	11.27051
0.66996	-13.07345	11.27051
0.67416	-13.13937	11.27051
0.67835	-13.22726	11.27051
0.68253	-13.22726	11.27051
0.68671	-13.31515	11.27051
0.69090	-13.38107	11.27051
0.69515	-13.46896	11.27051
0.69942	-13.55685	11.27051
0.70362	-13.64474	11.27051
0.70791	-13.64474	11.27051
0.71210	-13.71066	11.27051
0.71629	-13.79855	11.27051
0.72047	-13.88644	11.27051
0.72465	-13.95236	11.27051
0.72895	-13.95236	11.27051
0.73316	-14.04025	11.27051
0.73735	-14.12814	11.27051
0.74155	-14.19406	11.27051
0.74573	-14.25998	11.27051
0.74992	-14.34787	11.27051
0.75410	-14.43576	11.27051
0.75852	-14.43576	11.27051
0.76272	-14.50168	11.27051
0.76691	-14.58957	11.27051
0.77109	-14.65548	11.27051
0.77528	-14.74338	11.27051
0.77946	-14.80929	11.27051
0.78364	-14.89718	11.27051
0.78791	-14.89718	11.27051
0.79216	-14.96310	11.27051
0.79636	-15.05099	11.27051
0.80055	-15.13888	11.27051
0.80474	-15.20480	11.27051
0.80903	-15.20480	11.27051
0.81322	-15.29269	11.27051
0.81747	-15.38058	11.27051
0.82177	-15.44650	11.27051
0.82597	-15.51242	11.27051
0.83016	-15.57834	11.27051
0.83434	-15.66623	11.27051
0.83853	-15.66623	11.27051
0.84272	-15.73214	11.27051
0.84691	-15.82004	11.27051
0.85120	-15.88595	11.27051
0.85541	-15.97384	11.27051
0.85960	-16.03976	11.27051
0.86379	-16.10568	11.27051
0.86798	-16.10568	11.27051
0.87216	-16.19357	11.27051
0.87635	-16.25949	11.27051
0.88073	-16.32541	11.27051
0.88494	-16.41330	11.27051
0.88913	-16.47922	11.27051
0.89332	-16.47922	11.27051
0.89751	-16.56711	11.27051
0.90168	-16.63302	11.27051
0.90587	-16.72091	11.27051
0.91031	-16.78683	11.27051
0.91456	-16.85275	11.27051
0.91875	-16.91867	11.27051
0.92294	-16.91867	11.27051
0.92713	-16.98459	11.27051
0.93132	-17.07248	11.27051
0.93551	-17.13839	11.27051
0.93975	-17.20431	11.27051
0.94403	-17.20431	11.27051
0.94824	-17.29220	11.27051
0.95243	-17.35812	11.27051
0.95662	-17.42404	11.27051
0.96081	-17.51193	11.27051
0.96500	-17.57785	11.27051
0.96918	-17.57785	11.27051
0.97348	-17.64377	11.27051
0.97770	-17.70968	11.27051
0.98189	-17.77560	11.27051
0.98608	-17.84152	11.27051
0.99027	-17.84152	11.27051
0.99446	-17.97336	11.27051
0.99865	-17.97336	11.27051
1.00304	-18.03927	11.27051
1.00725	-18.10519	11.27051
1.01154	-18.14914	11.27051
1.01573	-18.21506	11.27051
1.01992	-18.21506	11.27051
1.02412	-18.28097	11.27051
1.02830	-18.34689	11.27051
1.03261	-18.41281	11.27051
1.03687	-18.45675	11.27051
1.04107	-18.52267	11.27051
1.04525	-18.58859	11.27051
1.04944	-18.58859	11.27051
1.05364	-18.65451	11.27051
1.05783	-18.72043	11.27051
1.06208	-18.76437	11.27051
1.06635	-18.83029	11.27051
1.07056	-18.87423	11.27051
1.07475	-18.87423	11.27051
1.07894	-18.94015	11.27051
1.08313	-18.98410	11.27051
1.08731	-19.05002	11.27051
1.09150	-19.09396	11.27051
1.09579	-19.15988	11.27051
1.09999	-19.20382	11.27051
1.10418	-19.20382	11.27051
1.10837	-19.26974	11.27051
1.11267	-19.31369	11.27051
1.11685	-19.35763	11.27051
1.12104	-19.40158	11.27051
1.12541	-19.46750	11.27051
1.12963	-19.51144	11.27051
1.13382	-19.51144	11.27051
1.13801	-19.55539	11.27051
1.14219	-19.59933	11.27051
1.14638	-19.64328	11.27051
1.15057	-19.68722	11.27051
1.15487	-19.68722	11.27051
1.15913	-19.73117	11.27051
1.16332	-19.79709	11.27051
1.16751	-19.81906	11.27051
1.17170	-19.86300	11.27051
1.17589	-19.90695	11.27051
1.18008	-19.95089	11.27051
1.18432	-19.95089	11.27051
1.18860	-19.99484	11.27051
1.19280	-20.03879	11.27051
1.19698	-20.06076	11.27051
1.20117	-20.10470	11.27051
1.20536	-20.14865	11.27051
1.20955	-20.14865	11.27051
1.21385	-20.19259	11.27051
1.21814	-20.21457	11.27051
1.22235	-20.25851	11.27051
1.22654	-20.28048	11.27051
1.23072	-20.28048	11.27051
1.23490	-20.32443	11.27051
1.23909	-20.34640	11.27051
1.24327	-20.36838	11.27051
1.24768	-20.41232	11.27051
1.25189	-20.43429	11.27051
1.25607	-20.45627	11.27051
1.26026	-20.45627	11.27051
1.26445	-20.47824	11.27051
1.26863	-20.50021	11.27051
1.27281	-20.52218	11.27051
1.27707	-20.54416	11.27051
1.28133	-20.56613	11.27051
1.28553	-20.56613	11.27051
1.28968	-20.58810	11.27051
1.29386	-20.61007	11.27051
1.29804	-20.61007	11.27051
1.30222	-20.63205	11.27051
1.30648	-20.63205	11.27051
1.31074	-20.63205	11.27051
1.31504	-20.63205	11.27051
1.31922	-20.65402	11.27051
1.32341	-20.63205	11.27051
1.32759	-20.65402	11.27051
1.33177	-20.63205	11.27051
1.33596	-20.63205	11.27051
1.34027	-20.63205	11.27051
1.34448	-20.63205	11.27051
1.34867	-20.63205	11.27051
1.35286	-20.63205	11.27051
1.35705	-20.61007	11.27051
1.36123	-20.61007	11.27051
1.36541	-20.61007	11.27051
1.36994	-20.58810	11.27051
1.37416	-20.56613	11.27051
1.37834	-20.56613	11.27051
1.38253	-20.54416	11.27051
1.38671	-20.52218	11.27051
1.39089	-20.50021	11.27051
1.39507	-20.50021	11.27051
1.39933	-20.47824	11.27051
1.40358	-20.45627	11.27051
1.40777	-20.43429	11.27051
1.41195	-20.41232	11.27051
1.41624	-20.41232	11.27051
1.42043	-20.36838	11.27051
1.42462	-20.36838	11.27051
1.42886	-20.34640	11.27051
1.43313	-20.30246	11.27051
1.43734	-20.28048	11.27051
1.44155	-20.25851	11.27051
1.44575	-20.25851	11.27051
1.44994	-20.21457	11.27051
1.45412	-20.19259	11.27051
1.45831	-20.17062	11.27051
1.46260	-20.14865	11.27051
1.46680	-20.10470	11.27051
1.47098	-20.10470	11.27051
1.47517	-20.08273	11.27051
1.47935	-20.06076	11.27051
1.48353	-20.01681	11.27051
1.48772	-19.99484	11.27051
1.49212	-19.95089	11.27051
1.49633	-19.95089	11.27051
1.50051	-19.92892	11.27051
1.50469	-19.90695	11.27051
1.50888	-19.86300	11.27051
1.51306	-19.84103	11.27051
1.51735	-19.79709	11.27051
1.52164	-19.79709	11.27051
1.52589	-19.77511	11.27051
1.53008	-19.73117	11.27051
1.53427	-19.70920	11.27051
1.53847	-19.66525	11.27051
1.54266	-19.62131	11.27051
1.54686	-19.59933	11.27051
1.55111	-19.59933	11.27051
1.55539	-19.57736	11.27051
1.55958	-19.53341	11.27051
1.56377	-19.48947	11.27051
1.56795	-19.46750	11.27051
1.57214	-19.42355	11.27051
1.57632	-19.42355	11.27051
1.58050	-19.37961	11.27051
1.58479	-19.35763	11.27051
1.58899	-19.31369	11.27051
1.59318	-19.29172	11.27051
1.59736	-19.24777	11.27051
1.60155	-19.24777	11.27051
1.60573	-19.22580	11.27051
1.60991	-19.15988	11.27051
1.61432	-19.11593	11.27051
1.61861	-19.09396	11.27051
1.62280	-19.05002	11.27051
1.62698	-19.05002	11.27051
1.63116	-19.00607	11.27051
1.63534	-18.98410	11.27051
1.63954	-18.94015	11.27051
1.64381	-18.91818	11.27051
1.64807	-18.87423	11.27051
1.65227	-18.83029	11.27051
1.65646	-18.83029	11.27051
1.66064	-18.78634	11.27051
1.66482	-18.74240	11.27051
1.66900	-18.69845	11.27051
1.67325	-18.67648	11.27051
1.67752	-18.63254	11.27051
1.68169	-18.58859	11.27051
1.68588	-18.58859	11.27051
1.69006	-18.54464	11.27051
1.69424	-18.50070	11.27051
1.69842	-18.47873	11.27051
1.70261	-18.43478	11.27051
1.70689	-18.43478	11.27051
1.71108	-18.39084	11.27051
1.71527	-18.34689	11.27051
1.71955	-18.32492	11.27051
1.72373	-18.28097	11.27051
1.72792	-18.23703	11.27051
1.73210	-18.23703	11.27051
1.73650	-18.19308	11.27051
1.74072	-18.14914	11.27051
1.74492	-18.10519	11.27051
1.74911	-18.08322	11.27051
1.75330	-18.03927	11.27051
1.75748	-18.03927	11.27051
1.76167	-17.99533	11.27051
1.76593	-17.95138	11.27051
1.77020	-17.92941	11.27051
1.77440	-17.88547	11.27051
1.77858	-17.84152	11.27051
1.78276	-17.84152	11.27051
1.78695	-17.79757	11.27051
1.79113	-17.75363	11.27051
1.79537	-17.73166	11.27051
1.79964	-17.68771	11.27051
1.80384	-17.64377	11.27051
1.80803	-17.62179	11.27051
1.81221	-17.62179	11.27051
1.81639	-17.57785	11.27051
1.82067	-17.53390	11.27051
1.82486	-17.48996	11.27051
1.82914	-17.44601	11.27051
1.83334	-17.42404	11.27051
1.83752	-17.42404	11.27051
1.84169	-17.38009	11.27051
1.84588	-17.33615	11.27051
1.85006	-17.31418	11.27051
1.85424	-17.27023	11.27051
1.85894	-17.22629	11.27051
1.86314	-17.20431	11.27051
1.86733	-17.20431	11.27051
1.87154	-17.16037	11.27051
1.87573	-17.11642	11.27051
1.87991	-17.07248	11.27051
1.88410	-17.02853	11.27051
1.88837	-17.00656	11.27051
1.89264	-16.98459	11.27051
1.89683	-16.98459	11.27051
1.90101	-16.94064	11.27051
1.90520	-16.89670	11.27051
1.90938	-16.87472	11.27051
1.91357	-16.83078	11.27051
1.91782	-16.83078	11.27051
1.92220	-16.78683	11.27051
1.92639	-16.76486	11.27051
1.93057	-16.72091	11.27051
1.93476	-16.69894	11.27051
1.93896	-16.65500	11.27051
1.94315	-16.63302	11.27051
1.94733	-16.63302	11.27051
1.95161	-16.58908	11.27051
1.95582	-16.54513	11.27051
1.96000	-16.52316	11.27051
1.96418	-16.47922	11.27051
1.96836	-16.45724	11.27051
1.97255	-16.45724	11.27051
1.97673	-16.41330	11.27051
1.98114	-16.39132	11.27051
1.98534	-16.36935	11.27051
1.98952	-16.32541	11.27051
1.99368	-16.32541	11.27051
1.99786	-16.30343	11.27051
2.00204	-16.25949	11.27051
2.00622	-16.23752	11.27051
2.01048	-16.21554	11.27051
2.01473	-16.17160	11.27051
2.01892	-16.17160	11.27051
2.02321	-16.17160	11.27051
2.02740	-16.12765	11.27051
2.03159	-16.08371	11.27051
2.03578	-16.06173	11.27051
2.04005	-16.03976	11.27051
2.04434	-15.99582	11.27051
2.04854	-15.99582	11.27051
2.05273	-15.97384	11.27051
2.05692	-15.95187	11.27051
2.06111	-15.92990	11.27051
2.06529	-15.90793	11.27051
2.06948	-15.88595	11.27051
2.07378	-15.84201	11.27051
2.07797	-15.84201	11.27051
2.08216	-15.82004	11.27051
2.08634	-15.79806	11.27051
2.09052	-15.75412	11.27051
2.09471	-15.75412	11.27051
2.09889	-15.75412	11.27051
2.10328	-15.71017	11.27051
2.10747	-15.71017	11.27051
2.11166	-15.66623	11.27051
2.11584	-15.64425	11.27051
2.12003	-15.62228	11.27051
2.12432	-15.60031	11.27051
2.12850	-15.60031	11.27051
2.13276	-15.60031	11.27051
2.13701	-15.55636	11.27051
2.14123	-15.53439	11.27051
2.14542	-15.53439	11.27051
2.14962	-15.49045	11.27051
2.15381	-15.49045	11.27051
2.15800	-15.49045	11.27051
2.16224	-15.44650	11.27051
2.16652	-15.42453	11.27051
2.17072	-15.42453	11.27051
2.17491	-15.40256	11.27051
2.17909	-15.40256	11.27051
2.18327	-15.38058	11.27051
2.18746	-15.35861	11.27051
2.19164	-15.33664	11.27051
2.19593	-15.31466	11.27051
2.20012	-15.31466	11.27051
2.20431	-15.29269	11.27051
2.20850	-15.29269	11.27051
2.21269	-15.27072	11.27051
2.21688	-15.24875	11.27051
2.22106	-15.24875	11.27051
2.22562	-15.22677	11.27051
2.22981	-15.20480	11.27051
2.23400	-15.20480	11.27051
2.23818	-15.18283	11.27051
2.24238	-15.16086	11.27051
2.24657	-15.16086	11.27051
2.25076	-15.16086	11.27051
2.25503	-15.11691	11.27051
2.25929	-15.11691	11.27051
2.26349	-15.11691	11.27051
2.26767	-15.09494	11.27051
2.27186	-15.09494	11.27051
2.27605	-15.07297	11.27051
2.28023	-15.05099	11.27051
2.28450	-15.05099	11.27051
2.28878	-15.05099	11.27051
2.29297	-15.02902	11.27051
2.29716	-15.02902	11.27051
2.30134	-15.00705	11.27051
2.30552	-14.98507	11.27051
2.30968	-14.98507	11.27051
2.31386	-15.00705	11.27051
2.31815	-14.98507	11.27051
2.32235	-14.98507	11.27051
2.32664	-14.96310	11.27051
2.33082	-14.94113	11.27051
2.33500	-14.94113	11.27051
2.33921	-14.94113	11.27051
2.34341	-14.94113	11.27051
2.34785	-14.94113	11.27051
2.35206	-14.91916	11.27051
2.35625	-14.91916	11.27051
2.36044	-14.91916	11.27051
2.36462	-14.89718	11.27051
2.36883	-14.89718	11.27051
2.37302	-14.89718	11.27051
2.37729	-14.87521	11.27051
2.38156	-14.87521	11.27051
2.38575	-14.87521	11.27051
2.38996	-14.87521	11.27051
2.39416	-14.87521	11.27051
2.39837	-14.87521	11.27051
2.40257	-14.85324	11.27051
2.40839	-14.85324	11.27051
2.41269	-14.85324	11.27051
2.41690	-14.85324	11.27051
2.42110	-14.85324	11.27051
2.42531	-14.83127	11.27051
2.42967	-14.83127	11.27051
2.43390	-14.83127	11.27051
2.43961	-14.83127	11.27051
2.44390	-14.83127	11.27051
2.44811	-14.83127	11.27051
2.45233	-14.83127	11.27051
2.45653	-14.83127	11.27051
2.46073	-14.80929	11.27051
2.46494	-14.83127	11.27051
2.46983	-14.83127	11.27051
2.47416	-14.80929	11.27051
2.47838	-14.83127	11.27051
2.48258	-14.80929	11.27051
2.48680	-14.83127	11.27051
2.49100	-14.80929	11.27051
2.49519	-14.80929	11.27051
2.49938	-14.80929	11.27051
2.50372	-14.83127	11.27051
2.50794	-14.80929	11.27051
2.51213	-14.83127	11.27051
2.51632	-14.83127	11.27051
2.52053	-14.83127	11.27051
2.52472	-14.83127	11.27051
2.52892	-14.83127	11.27051
2.53372	-14.83127	11.27051
2.53794	-14.83127	11.27051
2.54214	-14.83127	11.27051
2.54633	-14.83127	11.27051
2.55051	-14.83127	11.27051
2.55470	-14.83127	11.27051
2.55888	-14.83127	11.27051
2.56313	-14.85324	11.27051
2.56740	-14.83127	11.27051
2.57159	-14.85324	11.27051
2.57578	-14.85324	11.27051
2.57997	-14.85324	11.27051
2.58415	-14.85324	11.27051
2.58833	-14.87521	11.27051
2.59258	-14.85324	11.27051
2.59686	-14.87521	11.27051
2.60106	-14.87521	11.27051
2.60524	-14.87521	11.27051
2.60943	-14.87521	11.27051
2.61362	-14.89718	11.27051
2.61780	-14.89718	11.27051
2.62199	-14.89718	11.27051
2.62629	-14.89718	11.27051
2.63049	-14.89718	11.27051
2.63478	-14.91916	11.27051
2.63896	-14.89718	11.27051
2.64314	-14.91916	11.27051
2.64733	-14.94113	11.27051
2.65151	-14.91916	11.27051
2.65595	-14.94113	11.27051
2.66015	-14.94113	11.27051
2.66434	-14.94113	11.27051
2.66852	-14.96310	11.27051
2.67271	-14.96310	11.27051
2.67689	-14.96310	11.27051
2.68107	-14.98507	11.27051
2.68533	-14.98507	11.27051
2.68962	-14.98507	11.27051
2.69382	-15.00705	11.27051
2.69801	-15.00705	11.27051
2.70220	-15.00705	11.27051
2.70639	-15.02902	11.27051
2.71057	-15.02902	11.27051
2.71484	-15.02902	11.27051
2.71911	-15.05099	11.27051
2.72331	-15.02902	11.27051
2.72750	-15.05099	11.27051
2.73169	-15.05099	11.27051
2.73598	-15.05099	11.27051
2.74016	-15.07297	11.27051
2.74434	-15.07297	11.27051
2.74864	-15.09494	11.27051
2.75285	-15.11691	11.27051
2.75703	-15.09494	11.27051
2.76122	-15.09494	11.27051
2.76540	-15.11691	11.27051
2.76959	-15.11691	11.27051
2.77378	-15.13888	11.27051
2.77817	-15.13888	11.27051
2.78238	-15.13888	11.27051
2.78657	-15.16086	11.27051
2.79075	-15.16086	11.27051
2.79493	-15.16086	11.27051
2.79912	-15.18283	11.27051
2.80330	-15.20480	11.27051
2.80757	-15.20480	11.27051
2.81182	-15.20480	11.27051
2.81601	-15.22677	11.27051
2.82020	-15.22677	11.27051
2.82438	-15.24875	11.27051
2.82857	-15.24875	11.27051
2.83276	-15.24875	11.27051
2.83712	-15.27072	11.27051
2.84140	-15.27072	11.27051
2.84561	-15.27072	11.27051
2.84979	-15.29269	11.27051
2.85398	-15.29269	11.27051
2.85816	-15.31466	11.27051
2.86235	-15.31466	11.27051
2.86653	-15.31466	11.27051
2.87083	-15.31466	11.27051
2.87503	-15.33664	11.27051
2.87922	-15.33664	11.27051
2.88340	-15.35861	11.27051
2.88758	-15.38058	11.27051
2.89177	-15.38058	11.27051
2.89595	-15.38058	11.27051
2.90034	-15.38058	11.27051
2.90455	-15.40256	11.27051
2.90874	-15.42453	11.27051
2.91293	-15.42453	11.27051
2.91711	-15.42453	11.27051
2.92129	-15.42453	11.27051
2.92547	-15.44650	11.27051
2.92976	-15.44650	11.27051
2.93402	-15.46847	11.27051
2.93831	-15.46847	11.27051
2.94250	-15.49045	11.27051
2.94668	-15.49045	11.27051
2.95086	-15.49045	11.27051
2.95505	-15.51242	11.27051
2.95929	-15.51242	11.27051
2.96357	-15.51242	11.27051
2.96776	-15.53439	11.27051
2.97197	-15.53439	11.27051
2.97616	-15.53439	11.27051
2.98035	-15.55636	11.27051
2.98453	-15.55636	11.27051
2.98872	-15.55636	11.27051
2.99302	-15.57834	11.27051
2.99723	-15.57834	11.27051
3.00141	-15.57834	11.27051
3.00560	-15.60031	11.27051
3.00979	-15.60031	11.27051
3.01397	-15.62228	11.27051
3.01816	-15.64425	11.27051
3.02253	-15.64425	11.27051
3.02674	-15.64425	11.27051
3.03092	-15.64425	11.27051
3.03512	-15.66623	11.27051
3.03940	-15.66623	11.27051
3.04359	-15.66623	11.27051
3.04777	-15.68820	11.27051
3.05203	-15.68820	11.27051
3.05629	-15.71017	11.27051
3.06048	-15.71017	11.27051
3.06466	-15.71017	11.27051
3.06885	-15.73214	11.27051
3.07303	-15.73214	11.27051
3.07724	-15.73214	11.27051
3.08148	-15.75412	11.27051
3.08578	-15.75412	11.27051
3.08998	-15.75412	11.27051
3.09416	-15.77609	11.27051
3.09835	-15.79806	11.27051
3.10253	-15.79806	11.27051
3.10671	-15.77609	11.27051
3.11089	-15.82004	11.27051
3.11519	-15.79806	11.27051
3.11939	-15.82004	11.27051
3.12357	-15.84201	11.27051
3.12775	-15.84201	11.27051
3.13194	-15.84201	11.27051
3.13612	-15.84201	11.27051
3.14040	-15.86398	11.27051
3.14483	-15.86398	11.27051
3.14903	-15.86398	11.27051
3.15321	-15.88595	11.27051
3.15740	-15.88595	11.27051
3.16159	-15.90793	11.27051
3.16578	-15.90793	11.27051
3.16996	-15.90793	11.27051
3.17421	-15.90793	11.27051
3.17848	-15.92990	11.27051
3.18267	-15.92990	11.27051
3.18685	-15.92990	11.27051
3.19104	-15.92990	11.27051
3.19522	-15.95187	11.27051
3.19940	-15.97384	11.27051
3.20365	-15.97384	11.27051
3.20793	-15.97384	11.27051
3.21213	-15.97384	11.27051
3.21631	-15.97384	11.27051
3.22050	-15.99582	11.27051
3.22468	-15.99582	11.27051
3.22886	-16.01779	11.27051
3.23305	-16.01779	11.27051
3.23734	-16.01779	11.27051
3.24166	-16.01779	11.27051
3.24584	-16.03976	11.27051
3.25003	-16.03976	11.27051
3.25421	-16.06173	11.27051
3.25839	-16.06173	11.27051
3.26261	-16.06173	11.27051
3.26690	-16.06173	11.27051
3.27116	-16.08371	11.27051
3.27535	-16.08371	11.27051
3.27954	-16.08371	11.27051
3.28372	-16.08371	11.27051
3.28791	-16.10568	11.27051
3.29209	-16.10568	11.27051
3.29636	-16.10568	11.27051
3.30062	-16.12765	11.27051
3.30482	-16.12765	11.27051
3.30901	-16.12765	11.27051
3.31320	-16.12765	11.27051
3.31738	-16.14963	11.27051
3.32158	-16.14963	11.27051
3.32585	-16.14963	11.27051
3.33013	-16.17160	11.27051
3.33433	-16.17160	11.27051
3.33851	-16.19357	11.27051
3.34280	-16.19357	11.27051
3.34698	-16.19357	11.27051
3.35116	-16.19357	11.27051
3.35535	-16.19357	11.27051
3.35964	-16.21554	11.27051
3.36384	-16.21554	11.27051
3.36803	-16.21554	11.27051
3.37223	-16.21554	11.27051
3.37641	-16.23752	11.27051
3.38059	-16.23752	11.27051
3.38478	-16.23752	11.27051
3.38918	-16.23752	11.27051
3.39339	-16.23752	11.27051
3.39758	-16.25949	11.27051
3.40177	-16.25949	11.27051
3.40595	-16.28146	11.27051
3.41014	-16.28146	11.27051
3.41432	-16.28146	11.27051
3.41859	-16.28146	11.27051
3.42285	-16.28146	11.27051
3.42703	-16.28146	11.27051
3.43122	-16.30343	11.27051
3.43540	-16.30343	11.27051
3.43962	-16.30343	11.27051
3.44391	-16.30343	11.27051
3.44817	-16.32541	11.27051
3.45252	-16.32541	11.27051
3.45674	-16.34738	11.27051
3.46093	-16.34738	11.27051
3.46512	-16.34738	11.27051
3.46932	-16.34738	11.27051
3.47352	-16.34738	11.27051
3.47768	-16.34738	11.27051
3.48203	-16.36935	11.27051
3.48626	-16.36935	11.27051
3.49046	-16.39132	11.27051
3.49465	-16.39132	11.27051
3.49884	-16.39132	11.27051
3.50302	-16.39132	11.27051
3.50721	-16.39132	11.27051
3.51187	-16.39132	11.27051
3.51607	-16.41330	11.27051
3.52028	-16.41330	11.27051
3.52448	-16.41330	11.27051
3.52867	-16.41330	11.27051
3.53285	-16.41330	11.27051
3.53704	-16.43527	11.27051
3.54131	-16.43527	11.27051
3.54569	-16.43527	11.27051
3.54989	-16.43527	11.27051
3.55407	-16.45724	11.27051
3.55825	-16.45724	11.27051
3.56244	-16.45724	11.27051
3.56662	-16.45724	11.27051
3.57087	-16.45724	11.27051
3.57516	-16.47922	11.27051
3.57935	-16.47922	11.27051
3.58354	-16.47922	11.27051
3.58772	-16.47922	11.27051
3.59191	-16.47922	11.27051
3.59609	-16.47922	11.27051
3.60027	-16.50119	11.27051
3.60456	-16.50119	11.27051
3.60876	-16.50119	11.27051
3.61294	-16.50119	11.27051
3.61712	-16.50119	11.27051
3.62131	-16.50119	11.27051
3.62549	-16.50119	11.27051
3.62968	-16.50119	11.27051
3.63410	-16.52316	11.27051
3.63831	-16.52316	11.27051
3.64249	-16.52316	11.27051
3.64678	-16.52316	11.27051
3.65096	-16.52316	11.27051
3.65515	-16.52316	11.27051
3.65933	-16.52316	11.27051
3.66359	-16.52316	11.27051
3.66785	-16.54513	11.27051
3.67204	-16.54513	11.27051
3.67623	-16.54513	11.27051
3.68041	-16.54513	11.27051
3.68459	-16.54513	11.27051
3.68878	-16.54513	11.27051
3.69302	-16.54513	11.27051
3.69730	-16.54513	11.27051
3.70150	-16.54513	11.27051
3.70568	-16.54513	11.27051
3.70986	-16.54513	11.27051
3.71405	-16.54513	11.27051
3.71823	-16.56711	11.27051
3.72241	-16.54513	11.27051
3.72671	-16.54513	11.27051
3.73090	-16.56711	11.27051
3.73508	-16.54513	11.27051
3.73927	-16.54513	11.27051
3.74345	-16.56711	11.27051
3.74773	-16.56711	11.27051
3.75192	-16.54513	11.27051
3.75634	-16.54513	11.27051
3.76054	-16.54513	11.27051
3.76472	-16.54513	11.27051
3.76891	-16.54513	11.27051
3.77309	-16.54513	11.27051
3.77727	-16.56711	11.27051
3.78146	-16.54513	11.27051
3.78572	-16.54513	11.27051
3.78999	-16.54513	11.27051
3.79418	-16.56711	11.27051
3.79836	-16.54513	11.27051
3.80254	-16.56711	11.27051
3.80673	-16.54513	11.27051
3.81091	-16.54513	11.27051
3.81516	-16.54513	11.27051
3.81944	-16.54513	11.27051
3.82363	-16.54513	11.27051
3.82782	-16.54513	11.27051
3.83200	-16.54513	11.27051
3.83618	-16.54513	11.27051
3.84036	-16.54513	11.27051
3.84455	-16.54513	11.27051
3.84894	-16.54513	11.27051
3.85313	-16.54513	11.27051
3.85732	-16.54513	11.27051
3.86150	-16.52316	11.27051
3.86568	-16.52316	11.27051
3.86986	-16.52316	11.27051
3.87404	-16.52316	11.27051
3.87846	-16.52316	11.27051
3.88266	-16.52316	11.27051
3.88684	-16.52316	11.27051
3.89103	-16.52316	11.27051
3.89521	-16.52316	11.27051
3.89939	-16.52316	11.27051
3.90358	-16.50119	11.27051
3.90783	-16.50119	11.27051
3.91210	-16.50119	11.27051
3.91630	-16.50119	11.27051
3.92048	-16.50119	11.27051
3.92467	-16.50119	11.27051
3.92885	-16.50119	11.27051
3.93303	-16.50119	11.27051
3.93727	-16.47922	11.27051
3.94157	-16.47922	11.27051
3.94576	-16.47922	11.27051
3.95005	-16.47922	11.27051
3.95423	-16.47922	11.27051
3.95842	-16.45724	11.27051
3.96260	-16.45724	11.27051
3.96678	-16.45724	11.27051
3.97107	-16.45724	11.27051
3.97527	-16.45724	11.27051
3.97945	-16.45724	11.27051
3.98364	-16.45724	11.27051
3.98782	-16.43527	11.27051
3.99200	-16.43527	11.27051
3.99618	-16.43527	11.27051
4.00059	-16.43527	11.27051
4.00480	-16.43527	11.27051
4.00898	-16.41330	11.27051
4.01317	-16.41330	11.27051
4.01735	-16.41330	11.27051
4.02153	-16.41330	11.27051
4.02568	-16.41330	11.27051
4.02993	-16.41330	11.27051
4.03419	-16.41330	11.27051
4.03839	-16.39132	11.27051
4.04258	-16.39132	11.27051
4.04676	-16.39132	11.27051
4.05105	-16.39132	11.27051
4.05523	-16.39132	11.27051
4.05946	-16.39132	11.27051
4.06374	-16.36935	11.27051
4.06793	-16.36935	11.27051
4.07212	-16.36935	11.27051
4.07630	-16.36935	11.27051
4.08048	-16.36935	11.27051
4.08467	-16.36935	11.27051
4.08885	-16.36935	11.27051
4.09314	-16.34738	11.27051
4.09734	-16.36935	11.27051
4.10152	-16.36935	11.27051
4.10568	-16.34738	11.27051
4.10986	-16.34738	11.27051
4.11404	-16.32541	11.27051
4.11823	-16.34738	11.27051
4.12264	-16.34738	11.27051
4.12684	-16.34738	11.27051
4.13103	-16.32541	11.27051
4.13521	-16.34738	11.27051
4.13939	-16.32541	11.27051
4.14358	-16.32541	11.27051
4.14776	-16.32541	11.27051
4.15213	-16.32541	11.27051
4.15639	-16.32541	11.27051
4.16058	-16.32541	11.27051
4.16477	-16.30343	11.27051
4.16895	-16.32541	11.27051
4.17314	-16.32541	11.27051
4.17732	-16.32541	11.27051
4.18157	-16.32541	11.27051
4.18585	-16.30343	11.27051
4.19004	-16.30343	11.27051
4.19423	-16.30343	11.27051
4.19841	-16.30343	11.27051
4.20260	-16.30343	11.27051
4.20678	-16.30343	11.27051
4.21096	-16.30343	11.27051
4.21525	-16.30343	11.27051
4.21945	-16.30343	11.27051
4.22364	-16.30343	11.27051
4.22782	-16.30343	11.27051
4.23201	-16.30343	11.27051
4.23619	-16.30343	11.27051
4.24037	-16.30343	11.27051
4.24480	-16.30343	11.27051
4.24900	-16.30343	11.27051
4.25328	-16.30343	11.27051
4.25747	-16.30343	11.27051
4.26166	-16.30343	11.27051
4.26585	-16.30343	11.27051
4.27003	-16.30343	11.27051
4.27429	-16.30343	11.27051
4.27856	-16.30343	11.27051
4.28275	-16.30343	11.27051
4.28694	-16.30343	11.27051
4.29112	-16.30343	11.27051
4.29530	-16.30343	11.27051
4.29949	-16.30343	11.27051
4.30374	-16.30343	11.27051
4.30802	-16.30343	11.27051
4.31222	-16.30343	11.27051
4.31642	-16.30343	11.27051
4.32061	-16.30343	11.27051
4.32481	-16.30343	11.27051
4.32901	-16.30343	11.27051
4.33321	-16.30343	11.27051
4.33752	-16.30343	11.27051
4.34170	-16.30343	11.27051
4.34589	-16.30343	11.27051
4.35007	-16.32541	11.27051
4.35436	-16.32541	11.27051
4.35855	-16.32541	11.27051
4.36273	-16.32541	11.27051
4.36718	-16.32541	11.27051
4.37141	-16.32541	11.27051
4.37560	-16.32541	11.27051
4.37979	-16.32541	11.27051
4.38397	-16.32541	11.27051
4.38816	-16.32541	11.27051
4.39234	-16.32541	11.27051
4.39661	-16.32541	11.27051
4.40089	-16.32541	11.27051
4.40510	-16.34738	11.27051
4.40929	-16.34738	11.27051
4.41348	-16.34738	11.27051
4.41767	-16.34738	11.27051
4.42186	-16.34738	11.27051
4.42612	-16.36935	11.27051
4.43040	-16.36935	11.27051
4.43459	-16.36935	11.27051
4.43878	-16.36935	11.27051
4.44297	-16.36935	11.27051
4.44715	-16.36935	11.27051
4.45134	-16.39132	11.27051
4.45562	-16.39132	11.27051
4.45992	-16.39132	11.27051
4.46412	-16.41330	11.27051
4.46831	-16.39132	11.27051
4.47249	-16.39132	11.27051
4.47668	-16.41330	11.27051
4.48086	-16.41330	11.27051
4.48504	-16.41330	11.27051
4.48944	-16.43527	11.27051
4.49367	-16.43527	11.27051
4.49786	-16.43527	11.27051
4.50204	-16.43527	11.27051
4.50623	-16.45724	11.27051
4.51041	-16.43527	11.27051
4.51459	-16.45724	11.27051
4.51886	-16.45724	11.27051
4.52311	-16.45724	11.27051
4.52730	-16.47922	11.27051
4.53149	-16.47922	11.27051
4.53567	-16.47922	11.27051
4.53986	-16.47922	11.27051
4.54404	-16.50119	11.27051
4.54830	-16.50119	11.27051
4.55257	-16.50119	11.27051
4.55687	-16.50119	11.27051
4.56106	-16.52316	11.27051
4.56524	-16.52316	11.27051
4.56942	-16.52316	11.27051
4.57362	-16.52316	11.27051
4.57780	-16.52316	11.27051
4.58210	-16.52316	11.27051
4.58630	-16.54513	11.27051
4.59049	-16.54513	11.27051
4.59467	-16.56711	11.27051
4.59886	-16.56711	11.27051
4.60304	-16.56711	11.27051
4.60722	-16.56711	11.27051
4.61161	-16.56711	11.27051
4.61581	-16.58908	11.27051
4.62000	-16.58908	11.27051
4.62418	-16.58908	11.27051
4.62837	-16.58908	11.27051
4.63255	-16.61105	11.27051
4.63673	-16.61105	11.27051
4.64100	-16.61105	11.27051
4.64526	-16.61105	11.27051
4.64945	-16.61105	11.27051
4.65365	-16.61105	11.27051
4.65793	-16.63302	11.27051
4.66212	-16.63302	11.27051
4.66630	-16.63302	11.27051
4.67056	-16.63302	11.27051
4.67484	-16.65500	11.27051
4.67903	-16.65500	11.27051
4.68322	-16.65500	11.27051
4.68740	-16.65500	11.27051
4.69158	-16.67697	11.27051
4.69577	-16.65500	11.27051
4.69995	-16.67697	11.27051
4.70424	-16.67697	11.27051
4.70845	-16.67697	11.27051
4.71263	-16.67697	11.27051
4.71681	-16.67697	11.27051
4.72100	-16.69894	11.27051
4.72519	-16.69894	11.27051
4.72937	-16.69894	11.27051
4.73383	-16.69894	11.27051
4.73804	-16.69894	11.27051
4.74222	-16.69894	11.27051
4.74641	-16.69894	11.27051
4.75059	-16.72091	11.27051
4.75477	-16.72091	11.27051
4.75906	-16.72091	11.27051
4.76332	-16.72091	11.27051
4.76763	-16.72091	11.27051
4.77186	-16.72091	11.27051
4.77605	-16.74289	11.27051
4.78024	-16.72091	11.27051
4.78443	-16.74289	11.27051
4.78862	-16.74289	11.27051
4.79288	-16.74289	11.27051
4.79721	-16.74289	11.27051
4.80142	-16.74289	11.27051
4.80564	-16.74289	11.27051
4.80983	-16.74289	11.27051
4.81403	-16.74289	11.27051
4.81822	-16.74289	11.27051
4.82241	-16.76486	11.27051
4.82676	-16.76486	11.27051
4.83096	-16.76486	11.27051
4.83516	-16.76486	11.27051
4.83936	-16.76486	11.27051
4.84354	-16.76486	11.27051
4.84773	-16.76486	11.27051
4.85191	-16.76486	11.27051
4.85634	-16.78683	11.27051
4.86066	-16.76486	11.27051
4.86485	-16.76486	11.27051
4.86904	-16.76486	11.27051
4.87322	-16.78683	11.27051
4.87740	-16.76486	11.27051
4.88160	-16.78683	11.27051
4.88586	-16.78683	11.27051
4.89012	-16.78683	11.27051
4.89431	-16.78683	11.27051
4.89850	-16.78683	11.27051
4.90268	-16.78683	11.27051
4.90686	-16.78683	11.27051
4.91105	-16.78683	11.27051
4.91528	-16.78683	11.27051
4.91956	-16.78683	11.27051
4.92376	-16.78683	11.27051
4.92795	-16.78683	11.27051
4.93213	-16.78683	11.27051
4.93631	-16.78683	11.27051
4.94050	-16.78683	11.27051
4.94468	-16.78683	11.27051
4.94898	-16.78683	11.27051
4.95318	-16.78683	11.27051
4.95737	-16.78683	11.27051
4.96167	-16.78683	11.27051
4.96585	-16.80881	11.27051
4.97003	-16.78683	11.27051
4.97421	-16.78683	11.27051
4.97865	-16.80881	11.27051
4.98286	-16.80881	11.27051
4.98705	-16.80881	11.27051
4.99123	-16.80881	11.27051
4.99542	-16.80881	11.27051
4.99960	-16.80881	11.27051
5.00378	-16.80881	11.27051
5.00804	-16.80881	11.27051
5.01231	-16.80881	11.27051
5.01651	-16.80881	11.27051
5.02070	-16.80881	11.27051
5.02488	-16.80881	11.27051
5.02907	-16.80881	11.27051
5.03325	-16.80881	11.27051
5.03751	-16.83078	11.27051
5.04178	-16.80881	11.27051
5.04597	-16.83078	11.27051
5.05016	-16.83078	11.27051
5.05434	-16.83078	11.27051
5.05853	-16.83078	11.27051
5.06281	-16.83078	11.27051
5.06699	-16.83078	11.27051
5.07129	-16.83078	11.27051
5.07549	-16.83078	11.27051
5.07967	-16.83078	11.27051
5.08386	-16.85275	11.27051
5.08804	-16.85275	11.27051
5.09223	-16.83078	11.27051
5.09641	-16.85275	11.27051
5.10080	-16.85275	11.27051
5.10501	-16.85275	11.27051
5.10920	-16.85275	11.27051
5.11338	-16.85275	11.27051
5.11757	-16.85275	11.27051
5.12175	-16.87472	11.27051
5.12594	-16.87472	11.27051
5.13021	-16.85275	11.27051
5.13446	-16.87472	11.27051
5.13866	-16.87472	11.27051
5.14284	-16.87472	11.27051
5.14703	-16.87472	11.27051
5.15121	-16.89670	11.27051
5.15539	-16.89670	11.27051
5.15965	-16.89670	11.27051
5.16404	-16.89670	11.27051
5.16824	-16.89670	11.27051
5.17243	-16.89670	11.27051
5.17661	-16.89670	11.27051
5.18080	-16.91867	11.27051
5.18498	-16.91867	11.27051
5.18917	-16.91867	11.27051
5.19346	-16.91867	11.27051
5.19767	-16.91867	11.27051
5.20185	-16.91867	11.27051
5.20604	-16.91867	11.27051
5.21022	-16.91867	11.27051
5.21441	-16.94064	11.27051
5.21859	-16.94064	11.27051
5.22302	-16.94064	11.27051
5.22722	-16.94064	11.27051
5.23141	-16.94064	11.27051
5.23559	-16.94064	11.27051
5.23978	-16.96261	11.27051
5.24396	-16.96261	11.27051
5.24814	-16.96261	11.27051
5.25241	-16.98459	11.27051
5.25666	-16.96261	11.27051
5.26086	-16.98459	11.27051
5.26515	-16.98459	11.27051
5.26933	-16.98459	11.27051
5.27352	-16.98459	11.27051
5.27767	-16.98459	11.27051
5.28193	-17.00656	11.27051
5.28621	-17.00656	11.27051
5.29040	-17.00656	11.27051
5.29459	-17.00656	11.27051
5.29877	-17.02853	11.27051
5.30296	-17.00656	11.27051
5.30714	-17.02853	11.27051
5.31132	-17.02853	11.27051
5.31561	-17.02853	11.27051
5.31982	-17.05050	11.27051
5.32403	-17.05050	11.27051
5.32826	-17.05050	11.27051
5.33246	-17.07248	11.27051
5.33665	-17.07248	11.27051
5.34083	-17.05050	11.27051
5.34526	-17.07248	11.27051
5.34946	-17.07248	11.27051
5.35366	-17.07248	11.27051
5.35785	-17.09445	11.27051
5.36203	-17.09445	11.27051
5.36632	-17.09445	11.27051
5.37051	-17.09445	11.27051
5.37479	-17.09445	11.27051
5.37907	-17.11642	11.27051
5.38326	-17.11642	11.27051
5.38745	-17.11642	11.27051
5.39164	-17.11642	11.27051
5.39582	-17.13839	11.27051
5.40001	-17.11642	11.27051
5.40428	-17.13839	11.27051
5.40856	-17.13839	11.27051
5.41276	-17.13839	11.27051
5.41694	-17.13839	11.27051
5.42113	-17.16037	11.27051
5.42531	-17.16037	11.27051
5.42950	-17.16037	11.27051
5.43368	-17.16037	11.27051
5.43797	-17.16037	11.27051
5.44218	-17.18234	11.27051
5.44636	-17.18234	11.27051
5.45055	-17.18234	11.27051
5.45474	-17.18234	11.27051
5.45892	-17.18234	11.27051
5.46311	-17.20431	11.27051
5.46763	-17.20431	11.27051
5.47183	-17.20431	11.27051
5.47602	-17.20431	11.27051
5.48020	-17.20431	11.27051
5.48438	-17.20431	11.27051
5.48857	-17.22629	11.27051
5.49275	-17.20431	11.27051
5.49702	-17.20431	11.27051
5.50128	-17.22629	11.27051
5.50548	-17.22629	11.27051
5.50968	-17.22629	11.27051
5.51386	-17.22629	11.27051
5.51804	-17.22629	11.27051
5.52222	-17.24826	11.27051
5.52648	-17.24826	11.27051
5.53075	-17.24826	11.27051
5.53495	-17.27023	11.27051
5.53914	-17.24826	11.27051
5.54332	-17.24826	11.27051
5.54751	-17.27023	11.27051
5.55169	-17.27023	11.27051
5.55588	-17.24826	11.27051
5.56017	-17.27023	11.27051
5.56437	-17.27023	11.27051
5.56866	-17.27023	11.27051
5.57285	-17.27023	11.27051
5.57703	-17.27023	11.27051
5.58121	-17.27023	11.27051
5.58540	-17.27023	11.27051
5.58982	-17.27023	11.27051
5.59402	-17.29220	11.27051
5.59821	-17.29220	11.27051
5.60240	-17.29220	11.27051
5.60658	-17.29220	11.27051
5.61077	-17.29220	11.27051
5.61495	-17.29220	11.27051
5.61921	-17.29220	11.27051
5.62346	-17.29220	11.27051
5.62765	-17.29220	11.27051
5.63184	-17.29220	11.27051
5.63602	-17.29220	11.27051
5.64021	-17.29220	11.27051
5.64439	-17.29220	11.27051
5.64864	-17.29220	11.27051
5.65292	-17.29220	11.27051
5.65712	-17.29220	11.27051
5.66130	-17.29220	11.27051
5.66549	-17.29220	11.27051
5.66978	-17.31418	11.27051
5.67396	-17.29220	11.27051
5.67814	-17.29220	11.27051
5.68243	-17.29220	11.27051
5.68663	-17.29220	11.27051
5.69082	-17.29220	11.27051
5.69500	-17.29220	11.27051
5.69918	-17.29220	11.27051
5.70337	-17.31418	11.27051
5.70755	-17.31418	11.27051
5.71195	-17.29220	11.27051
5.71615	-17.29220	11.27051
5.72034	-17.29220	11.27051
5.72452	-17.29220	11.27051
5.72870	-17.29220	11.27051
5.73289	-17.27023	11.27051
5.73707	-17.27023	11.27051
5.74134	-17.29220	11.27051
5.74561	-17.29220	11.27051
5.74987	-17.29220	11.27051
5.75407	-17.29220	11.27051
5.75826	-17.29220	11.27051
5.76246	-17.27023	11.27051
5.76664	-17.29220	11.27051
5.77101	-17.27023	11.27051
5.77529	-17.27023	11.27051
5.77948	-17.27023	11.27051
5.78366	-17.27023	11.27051
5.78785	-17.27023	11.27051
5.79203	-17.27023	11.27051
5.79622	-17.24826	11.27051
5.80040	-17.27023	11.27051
5.80470	-17.27023	11.27051
5.80890	-17.27023	11.27051
5.81308	-17.27023	11.27051
5.81727	-17.27023	11.27051
5.82145	-17.24826	11.27051
5.82565	-17.27023	11.27051
5.82983	-17.24826	11.27051
5.83423	-17.24826	11.27051
5.83844	-17.24826	11.27051
5.84263	-17.24826	11.27051
5.84681	-17.24826	11.27051
5.85100	-17.24826	11.27051
5.85519	-17.22629	11.27051
5.85937	-17.24826	11.27051
5.86364	-17.24826	11.27051
5.86789	-17.22629	11.27051
5.87219	-17.22629	11.27051
5.87638	-17.22629	11.27051
5.88056	-17.22629	11.27051
5.88474	-17.22629	11.27051
5.88893	-17.22629	11.27051
5.89317	-17.20431	11.27051
5.89745	-17.22629	11.27051
5.90166	-17.20431	11.27051
5.90585	-17.20431	11.27051
5.91003	-17.20431	11.27051
5.91422	-17.20431	11.27051
5.91840	-17.20431	11.27051
5.92258	-17.20431	11.27051
5.92688	-17.18234	11.27051
5.93108	-17.20431	11.27051
5.93526	-17.18234	11.27051
5.93945	-17.18234	11.27051
5.94363	-17.18234	11.27051
5.94782	-17.18234	11.27051
5.95200	-17.18234	11.27051
5.95640	-17.18234	11.27051
5.96060	-17.18234	11.27051
5.96479	-17.18234	11.27051
5.96897	-17.18234	11.27051
5.97326	-17.18234	11.27051
5.97744	-17.16037	11.27051
5.98164	-17.16037	11.27051
5.98591	-17.16037	11.27051
5.99017	-17.16037	11.27051
5.99436	-17.16037	11.27051
5.99855	-17.16037	11.27051
6.00273	-17.16037	11.27051
6.00692	-17.16037	11.27051
6.01110	-17.16037	11.27051
6.01535	-17.13839	11.27051
6.01963	-17.13839	11.27051
6.02382	-17.13839	11.27051
6.02801	-17.13839	11.27051
6.03219	-17.13839	11.27051
6.03638	-17.11642	11.27051
6.04056	-17.13839	11.27051
6.04474	-17.11642	11.27051
6.04903	-17.11642	11.27051
6.05324	-17.11642	11.27051
6.05743	-17.11642	11.27051
6.06162	-17.11642	11.27051
6.06580	-17.11642	11.27051
6.06999	-17.09445	11.27051
6.07427	-17.09445	11.27051
6.07866	-17.09445	11.27051
6.08287	-17.09445	11.27051
6.08705	-17.09445	11.27051
6.09124	-17.07248	11.27051
6.09542	-17.07248	11.27051
6.09961	-17.07248	11.27051
6.10379	-17.07248	11.27051
6.10805	-17.07248	11.27051
6.11230	-17.07248	11.27051
6.11649	-17.05050	11.27051
6.12068	-17.05050	11.27051
6.12486	-17.05050	11.27051
6.12905	-17.05050	11.27051
6.13323	-17.05050	11.27051
6.13748	-17.05050	11.27051
6.14177	-17.02853	11.27051
6.14596	-17.02853	11.27051
6.15015	-17.02853	11.27051
6.15433	-17.02853	11.27051
6.15851	-17.02853	11.27051
6.16270	-17.00656	11.27051
6.16688	-17.00656	11.27051
6.17117	-17.00656	11.27051
6.17547	-16.98459	11.27051
6.17966	-16.98459	11.27051
6.18384	-17.00656	11.27051
6.18802	-16.98459	11.27051
6.19221	-16.98459	11.27051
6.19639	-16.98459	11.27051
6.20078	-16.96261	11.27051
6.20499	-16.96261	11.27051
6.20918	-16.96261	11.27051
6.21336	-16.96261	11.27051
6.21756	-16.96261	11.27051
6.22174	-16.94064	11.27051
6.22592	-16.94064	11.27051
6.23017	-16.94064	11.27051
6.23445	-16.94064	11.27051
6.23864	-16.94064	11.27051
6.24283	-16.94064	11.27051
6.24702	-16.91867	11.27051
6.25120	-16.91867	11.27051
6.25538	-16.91867	11.27051
6.25964	-16.91867	11.27051
6.26392	-16.89670	11.27051
6.26812	-16.89670	11.27051
6.27231	-16.87472	11.27051
6.27660	-16.89670	11.27051
6.28078	-16.87472	11.27051
6.28497	-16.87472	11.27051
6.28915	-16.87472	11.27051
6.29345	-16.87472	11.27051
6.29766	-16.85275	11.27051
6.30184	-16.85275	11.27051
6.30603	-16.85275	11.27051
6.31021	-16.85275	11.27051
6.31439	-16.85275	11.27051
6.31858	-16.83078	11.27051
6.32297	-16.83078	11.27051
6.32718	-16.83078	11.27051
6.33136	-16.80881	11.27051
6.33555	-16.80881	11.27051
6.33974	-16.83078	11.27051
6.34393	-16.80881	11.27051
6.34811	-16.80881	11.27051
6.35238	-16.80881	11.27051
6.35664	-16.80881	11.27051
6.36083	-16.80881	11.27051
6.36502	-16.78683	11.27051
6.36921	-16.78683	11.27051
6.37340	-16.78683	11.27051
6.37771	-16.76486	11.27051
6.38199	-16.76486	11.27051
6.38627	-16.76486	11.27051
6.39046	-16.76486	11.27051
6.39465	-16.76486	11.27051
6.39883	-16.74289	11.27051
6.40302	-16.74289	11.27051
6.40720	-16.74289	11.27051
6.41138	-16.74289	11.27051
6.41568	-16.74289	11.27051
6.41988	-16.72091	11.27051
6.42407	-16.72091	11.27051
6.42826	-16.69894	11.27051
6.43244	-16.69894	11.27051
6.43662	-16.69894	11.27051
6.44081	-16.69894	11.27051
6.44525	-16.69894	11.27051
6.44945	-16.69894	11.27051
6.45365	-16.67697	11.27051
6.45783	-16.67697	11.27051
6.46201	-16.67697	11.27051
6.46620	-16.67697	11.27051
6.47038	-16.67697	11.27051
6.47464	-16.65500	11.27051
6.47901	-16.65500	11.27051
6.48320	-16.65500	11.27051
6.48739	-16.65500	11.27051
6.49157	-16.63302	11.27051
6.49575	-16.63302	11.27051
6.49993	-16.63302	11.27051
6.50418	-16.63302	11.27051
6.50847	-16.61105	11.27051
6.51266	-16.61105	11.27051
6.51684	-16.61105	11.27051
6.52103	-16.61105	11.27051
6.52521	-16.61105	11.27051
6.52939	-16.58908	11.27051
6.53358	-16.58908	11.27051
6.53788	-16.58908	11.27051
6.54208	-16.58908	11.27051
6.54627	-16.58908	11.27051
6.55045	-16.58908	11.27051
6.55463	-16.56711	11.27051
6.55882	-16.56711	11.27051
6.56300	-16.56711	11.27051
6.56742	-16.54513	11.27051
6.57162	-16.54513	11.27051
6.57581	-16.54513	11.27051
6.58010	-16.54513	11.27051
6.58429	-16.52316	11.27051
6.58847	-16.54513	11.27051
6.59265	-16.52316	11.27051
6.59692	-16.52316	11.27051
6.60119	-16.52316	11.27051
6.60539	-16.50119	11.27051
6.60959	-16.50119	11.27051
6.61377	-16.50119	11.27051
6.61796	-16.50119	11.27051
6.62214	-16.50119	11.27051
6.62641	-16.47922	11.27051
6.63069	-16.47922	11.27051
6.63489	-16.47922	11.27051
6.63908	-16.45724	11.27051
6.64326	-16.45724	11.27051
6.64745	-16.45724	11.27051
6.65163	-16.45724	11.27051
6.65582	-16.45724	11.27051
6.66012	-16.45724	11.27051
6.66432	-16.43527	11.27051
6.66851	-16.43527	11.27051
6.67269	-16.43527	11.27051
6.67688	-16.43527	11.27051
6.68116	-16.41330	11.27051
6.68535	-16.41330	11.27051
6.68978	-16.41330	11.27051
6.69398	-16.41330	11.27051
6.69817	-16.39132	11.27051
6.70236	-16.39132	11.27051
6.70654	-16.39132	11.27051
6.71072	-16.36935	11.27051
6.71491	-16.36935	11.27051
6.71917	-16.36935	11.27051
6.72343	-16.36935	11.27051
6.72763	-16.34738	11.27051
6.73182	-16.34738	11.27051
6.73602	-16.34738	11.27051
6.74021	-16.34738	11.27051
6.74440	-16.34738	11.27051
6.74866	-16.32541	11.27051
6.75295	-16.32541	11.27051
6.75715	-16.30343	11.27051
6.76135	-16.30343	11.27051
6.76554	-16.30343	11.27051
6.76973	-16.30343	11.27051
6.77391	-16.30343	11.27051
6.77810	-16.28146	11.27051
6.78251	-16.28146	11.27051
6.78672	-16.28146	11.27051
6.79091	-16.28146	11.27051
6.79510	-16.25949	11.27051
6.79928	-16.25949	11.27051
6.80347	-16.25949	11.27051
6.80766	-16.23752	11.27051
6.81204	-16.23752	11.27051
6.81625	-16.23752	11.27051
6.82044	-16.23752	11.27051
6.82463	-16.23752	11.27051
6.82882	-16.23752	11.27051
6.83301	-16.21554	11.27051
6.83720	-16.21554	11.27051
6.84150	-16.21554	11.27051
6.84575	-16.19357	11.27051
6.84995	-16.19357	11.27051
6.85414	-16.19357	11.27051
6.85833	-16.19357	11.27051
6.86252	-16.19357	11.27051
6.86671	-16.19357	11.27051
6.87096	-16.19357	11.27051
6.87524	-16.17160	11.27051
6.87944	-16.17160	11.27051
6.88374	-16.17160	11.27051
6.88793	-16.17160	11.27051
6.89212	-16.17160	11.27051
6.89631	-16.17160	11.27051
6.90049	-16.14963	11.27051
6.90480	-16.14963	11.27051
6.90900	-16.14963	11.27051
6.91319	-16.14963	11.27051
6.91738	-16.14963	11.27051
6.92158	-16.12765	11.27051
6.92577	-16.12765	11.27051
6.92996	-16.12765	11.27051
6.93435	-16.12765	11.27051
6.93856	-16.12765	11.27051
6.94275	-16.12765	11.27051
6.94694	-16.12765	11.27051
6.95113	-16.12765	11.27051
6.95532	-16.12765	11.27051
6.95952	-16.12765	11.27051
6.96383	-16.10568	11.27051
6.96809	-16.12765	11.27051
6.97229	-16.12765	11.27051
6.97648	-16.10568	11.27051
6.98067	-16.10568	11.27051
6.98497	-16.10568	11.27051
6.98916	-16.10568	11.27051
6.99341	-16.10568	11.27051
6.99771	-16.10568	11.27051
7.00191	-16.10568	11.27051
7.00611	-16.10568	11.27051
7.01030	-16.10568	11.27051
7.01448	-16.10568	11.27051
7.01868	-16.10568	11.27051
7.02286	-16.10568	11.27051
7.02717	-16.10568	11.27051
7.03137	-16.10568	11.27051
7.03556	-16.10568	11.27051
7.03975	-16.10568	11.27051
7.04394	-16.10568	11.27051
7.04813	-16.10568	11.27051
7.05232	-16.10568	11.27051
7.05671	-16.10568	11.27051
7.06092	-16.10568	11.27051
7.06511	-16.10568	11.27051
7.06930	-16.10568	11.27051
7.07350	-16.10568	11.27051
7.07768	-16.10568	11.27051
7.08188	-16.10568	11.27051
7.08631	-16.10568	11.27051
7.09056	-16.10568	11.27051
7.09476	-16.10568	11.27051
7.09895	-16.12765	11.27051
7.10314	-16.12765	11.27051
7.10733	-16.10568	11.27051
7.11152	-16.12765	11.27051
7.11577	-16.12765	11.27051
7.12006	-16.12765	11.27051
7.12426	-16.12765	11.27051
7.12845	-16.12765	11.27051
7.13264	-16.12765	11.27051
7.13683	-16.12765	11.27051
7.14102	-16.14963	11.27051
7.14521	-16.14963	11.27051
7.14952	-16.14963	11.27051
7.15370	-16.14963	11.27051
7.15790	-16.14963	11.27051
7.16208	-16.14963	11.27051
7.16627	-16.14963	11.27051
7.17046	-16.17160	11.27051
7.17465	-16.17160	11.27051
7.17904	-16.17160	11.27051
7.18324	-16.17160	11.27051
7.18755	-16.17160	11.27051
7.19174	-16.17160	11.27051
7.19592	-16.19357	11.27051
7.20011	-16.19357	11.27051
7.20430	-16.19357	11.27051
7.20860	-16.19357	11.27051
7.21286	-16.21554	11.27051
7.21706	-16.21554	11.27051
7.22125	-16.21554	11.27051
7.22544	-16.23752	11.27051
7.22963	-16.23752	11.27051
7.23382	-16.23752	11.27051
7.23808	-16.23752	11.27051
7.24236	-16.23752	11.27051
7.24657	-16.23752	11.27051
7.25076	-16.23752	11.27051
7.25495	-16.25949	11.27051
7.25914	-16.25949	11.27051
7.26333	-16.25949	11.27051
7.26752	-16.28146	11.27051
7.27182	-16.28146	11.27051
7.27602	-16.28146	11.27051
7.28021	-16.30343	11.27051
7.28440	-16.30343	11.27051
7.28870	-16.30343	11.27051
7.29289	-16.30343	11.27051
7.29708	-16.30343	11.27051
7.30146	-16.30343	11.27051
7.30567	-16.32541	11.27051
7.30986	-16.32541	11.27051
7.31405	-16.32541	11.27051
7.31824	-16.32541	11.27051
7.32243	-16.34738	11.27051
7.32662	-16.34738	11.27051
7.33092	-16.36935	11.27051
7.33517	-16.36935	11.27051
7.33937	-16.36935	11.27051
7.34356	-16.36935	11.27051
7.34775	-16.36935	11.27051
7.35194	-16.39132	11.27051
7.35613	-16.39132	11.27051
7.36038	-16.41330	11.27051
7.36466	-16.41330	11.27051
7.36889	-16.41330	11.27051
7.37309	-16.41330	11.27051
7.37728	-16.43527	11.27051
7.38147	-16.43527	11.27051
7.38567	-16.43527	11.27051
7.38998	-16.43527	11.27051
7.39428	-16.45724	11.27051
7.39849	-16.45724	11.27051
7.40268	-16.45724	11.27051
7.40688	-16.45724	11.27051
7.41107	-16.47922	11.27051
7.41526	-16.47922	11.27051
7.41944	-16.47922	11.27051
7.42384	-16.47922	11.27051
7.42805	-16.50119	11.27051
7.43224	-16.50119	11.27051
7.43643	-16.50119	11.27051
7.44062	-16.52316	11.27051
7.44481	-16.52316	11.27051
7.44900	-16.52316	11.27051
7.45331	-16.54513	11.27051
7.45758	-16.52316	11.27051
7.46178	-16.54513	11.27051
7.46596	-16.54513	11.27051
7.47016	-16.54513	11.27051
7.47435	-16.56711	11.27051
7.47854	-16.56711	11.27051
7.48279	-16.56711	11.27051
7.48708	-16.58908	11.27051
7.49139	-16.58908	11.27051
7.49558	-16.61105	11.27051
7.49977	-16.61105	11.27051
7.50396	-16.58908	11.27051
7.50815	-16.61105	11.27051
7.51234	-16.61105	11.27051
7.51664	-16.63302	11.27051
7.52086	-16.63302	11.27051
7.52505	-16.63302	11.27051
7.52924	-16.63302	11.27051
7.53343	-16.65500	11.27051
7.53763	-16.65500	11.27051
7.54182	-16.67697	11.27051
7.54621	-16.67697	11.27051
7.55042	-16.69894	11.27051
7.55462	-16.69894	11.27051
7.55881	-16.69894	11.27051
7.56300	-16.72091	11.27051
7.56718	-16.72091	11.27051
7.57137	-16.72091	11.27051
7.57566	-16.74289	11.27051
7.57993	-16.74289	11.27051
7.58415	-16.74289	11.27051
7.58834	-16.74289	11.27051
7.59264	-16.76486	11.27051
7.59683	-16.76486	11.27051
7.60102	-16.78683	11.27051
7.60529	-16.78683	11.27051
7.60960	-16.78683	11.27051
7.61380	-16.80881	11.27051
7.61800	-16.80881	11.27051
7.62219	-16.80881	11.27051
7.62637	-16.83078	11.27051
7.63056	-16.83078	11.27051
7.63475	-16.83078	11.27051
7.63906	-16.85275	11.27051
7.64326	-16.87472	11.27051
7.64745	-16.87472	11.27051
7.65162	-16.89670	11.27051
7.65578	-16.89670	11.27051
7.65995	-16.89670	11.27051
7.66412	-16.91867	11.27051
7.66844	-16.91867	11.27051
7.67263	-16.94064	11.27051
7.67679	-16.94064	11.27051
7.68096	-16.94064	11.27051
7.68513	-16.96261	11.27051
7.68930	-16.98459	11.27051
7.69356	-16.98459	11.27051
7.69788	-16.98459	11.27051
7.70213	-17.00656	11.27051
7.70630	-17.00656	11.27051
7.71047	-17.00656	11.27051
7.71464	-17.02853	11.27051
7.71881	-17.02853	11.27051
7.72298	-17.05050	11.27051
7.72720	-17.05050	11.27051
7.73146	-17.05050	11.27051
7.73564	-17.07248	11.27051
7.73981	-17.09445	11.27051
7.74398	-17.09445	11.27051
7.74817	-17.09445	11.27051
7.75236	-17.11642	11.27051
7.75654	-17.11642	11.27051
7.76084	-17.11642	11.27051
7.76505	-17.13839	11.27051
7.76925	-17.13839	11.27051
7.77344	-17.16037	11.27051
7.77764	-17.16037	11.27051
7.78183	-17.18234	11.27051
7.78602	-17.20431	11.27051
7.79039	-17.20431	11.27051
7.79471	-17.20431	11.27051
7.79891	-17.22629	11.27051
7.80310	-17.22629	11.27051
7.80729	-17.24826	11.27051
7.81148	-17.24826	11.27051
7.81566	-17.24826	11.27051
7.81998	-17.27023	11.27051
7.82424	-17.27023	11.27051
7.82844	-17.29220	11.27051
7.83263	-17.29220	11.27051
7.83682	-17.29220	11.27051
7.84101	-17.29220	11.27051
7.84520	-17.31418	11.27051
7.84944	-17.33615	11.27051
7.85374	-17.33615	11.27051
7.85793	-17.35812	11.27051
7.86212	-17.38009	11.27051
7.86632	-17.38009	11.27051
7.87050	-17.38009	11.27051
7.87469	-17.38009	11.27051
7.87888	-17.40207	11.27051
7.88319	-17.40207	11.27051
7.88740	-17.42404	11.27051
7.89159	-17.42404	11.27051
7.89589	-17.42404	11.27051
7.90008	-17.42404	11.27051
7.90427	-17.46798	11.27051
7.90846	-17.44601	11.27051
7.91285	-17.46798	11.27051
7.91706	-17.46798	11.27051
7.92125	-17.46798	11.27051
7.92544	-17.48996	11.27051
7.92964	-17.48996	11.27051
7.93383	-17.51193	11.27051
7.93802	-17.51193	11.27051
7.94233	-17.51193	11.27051
7.94659	-17.53390	11.27051
7.95079	-17.53390	11.27051
7.95497	-17.53390	11.27051
7.95916	-17.55588	11.27051
7.96334	-17.55588	11.27051
7.96753	-17.57785	11.27051
7.97178	-17.57785	11.27051
7.97605	-17.57785	11.27051
7.98025	-17.57785	11.27051
7.98443	-17.57785	11.27051
7.98862	-17.59982	11.27051
7.99280	-17.59982	11.27051
7.99709	-17.62179	11.27051
8.00127	-17.62179	11.27051
8.00558	-17.59982	11.27051
8.00978	-17.62179	11.27051
8.01397	-17.62179	11.27051
8.01815	-17.64377	11.27051
8.02234	-17.64377	11.27051
8.02652	-17.64377	11.27051
8.03071	-17.64377	11.27051
8.03510	-17.64377	11.27051
8.03930	-17.64377	11.27051
8.04348	-17.66574	11.27051
8.04767	-17.66574	11.27051
8.05185	-17.66574	11.27051
8.05604	-17.66574	11.27051
8.06022	-17.66574	11.27051
8.06448	-17.66574	11.27051
8.06874	-17.68771	11.27051
8.07293	-17.66574	11.27051
8.07712	-17.68771	11.27051
8.08130	-17.68771	11.27051
8.08549	-17.68771	11.27051
8.08967	-17.68771	11.27051
8.09392	-17.68771	11.27051
8.09830	-17.68771	11.27051
8.10249	-17.70968	11.27051
8.10668	-17.70968	11.27051
8.11086	-17.68771	11.27051
8.11504	-17.68771	11.27051
8.11923	-17.68771	11.27051
8.12341	-17.68771	11.27051
8.12770	-17.68771	11.27051
8.13190	-17.68771	11.27051
8.13609	-17.68771	11.27051
8.14027	-17.70968	11.27051
8.14446	-17.70968	11.27051
8.14864	-17.68771	11.27051
8.15283	-17.68771	11.27051
8.15721	-17.70968	11.27051
8.16141	-17.68771	11.27051
8.16561	-17.70968	11.27051
8.16980	-17.70968	11.27051
8.17398	-17.70968	11.27051
8.17817	-17.70968	11.27051
8.18235	-17.70968	11.27051
8.18662	-17.68771	11.27051
8.19088	-17.70968	11.27051
8.19506	-17.68771	11.27051
8.19935	-17.70968	11.27051
8.20353	-17.68771	11.27051
8.20772	-17.68771	11.27051
8.21190	-17.68771	11.27051
8.21615	-17.68771	11.27051
8.22042	-17.68771	11.27051
8.22463	-17.66574	11.27051
8.22881	-17.66574	11.27051
8.23300	-17.66574	11.27051
8.23718	-17.66574	11.27051
8.24137	-17.66574	11.27051
8.24555	-17.66574	11.27051
8.24985	-17.66574	11.27051
8.25405	-17.64377	11.27051
8.25824	-17.64377	11.27051
8.26242	-17.64377	11.27051
8.26661	-17.64377	11.27051
8.27079	-17.64377	11.27051
8.27497	-17.62179	11.27051
8.27940	-17.62179	11.27051
8.28360	-17.62179	11.27051
8.28779	-17.59982	11.27051
8.29197	-17.59982	11.27051
8.29615	-17.62179	11.27051
8.30044	-17.59982	11.27051
8.30462	-17.59982	11.27051
8.30889	-17.59982	11.27051
8.31314	-17.59982	11.27051
8.31734	-17.57785	11.27051
8.32153	-17.57785	11.27051
8.32568	-17.57785	11.27051
8.32987	-17.57785	11.27051
8.33405	-17.55588	11.27051
8.33832	-17.55588	11.27051
8.34259	-17.55588	11.27051
8.34679	-17.55588	11.27051
8.35098	-17.53390	11.27051
8.35517	-17.53390	11.27051
8.35935	-17.51193	11.27051
8.36353	-17.51193	11.27051
8.36772	-17.51193	11.27051
8.37203	-17.51193	11.27051
8.37623	-17.48996	11.27051
8.38042	-17.48996	11.27051
8.38461	-17.46798	11.27051
8.38880	-17.46798	11.27051
8.39298	-17.46798	11.27051
8.39717	-17.44601	11.27051
8.40171	-17.44601	11.27051
8.40591	-17.42404	11.27051
8.41010	-17.42404	11.27051
8.41428	-17.42404	11.27051
8.41847	-17.42404	11.27051
8.42265	-17.40207	11.27051
8.42684	-17.40207	11.27051
8.43110	-17.38009	11.27051
8.43537	-17.38009	11.27051
8.43956	-17.35812	11.27051
8.44374	-17.35812	11.27051
8.44793	-17.33615	11.27051
8.45211	-17.33615	11.27051
8.45630	-17.31418	11.27051
8.46055	-17.31418	11.27051
8.46483	-17.29220	11.27051
8.46904	-17.29220	11.27051
8.47323	-17.29220	11.27051
8.47741	-17.27023	11.27051
8.48160	-17.27023	11.27051
8.48579	-17.24826	11.27051
8.48997	-17.24826	11.27051
8.49426	-17.24826	11.27051
8.49846	-17.22629	11.27051
8.50275	-17.20431	11.27051
8.50694	-17.20431	11.27051
8.51112	-17.18234	11.27051
8.51530	-17.18234	11.27051
8.51949	-17.16037	11.27051
8.52389	-17.16037	11.27051
8.52810	-17.16037	11.27051
8.53228	-17.13839	11.27051
8.53647	-17.13839	11.27051
8.54066	-17.11642	11.27051
8.54484	-17.09445	11.27051
8.54902	-17.09445	11.27051
8.55330	-17.09445	11.27051
8.55757	-17.07248	11.27051
8.56176	-17.05050	11.27051
8.56594	-17.05050	11.27051
8.57013	-17.02853	11.27051
8.57431	-17.02853	11.27051
8.57850	-17.02853	11.27051
8.58275	-17.00656	11.27051
8.58702	-16.98459	11.27051
8.59122	-16.98459	11.27051
8.59541	-16.96261	11.27051
8.59959	-16.96261	11.27051
8.60388	-16.96261	11.27051
8.60806	-16.94064	11.27051
8.61225	-16.91867	11.27051
8.61654	-16.91867	11.27051
8.62075	-16.89670	11.27051
8.62493	-16.89670	11.27051
8.62912	-16.89670	11.27051
8.63330	-16.87472	11.27051
8.63749	-16.85275	11.27051
8.64168	-16.85275	11.27051
8.64607	-16.83078	11.27051
8.65028	-16.83078	11.27051
8.65447	-16.83078	11.27051
8.65865	-16.80881	11.27051
8.66284	-16.78683	11.27051
8.66702	-16.78683	11.27051
8.67120	-16.76486	11.27051
8.67547	-16.76486	11.27051
8.67973	-16.76486	11.27051
8.68392	-16.74289	11.27051
8.68811	-16.72091	11.27051
8.69229	-16.72091	11.27051
8.69647	-16.69894	11.27051
8.70066	-16.69894	11.27051
8.70502	-16.69894	11.27051
8.70930	-16.67697	11.27051
8.71350	-16.67697	11.27051
8.71768	-16.65500	11.27051
8.72186	-16.65500	11.27051
8.72604	-16.63302	11.27051
8.73023	-16.63302	11.27051
8.73441	-16.63302	11.27051
8.73870	-16.61105	11.27051
8.74290	-16.61105	11.27051
8.74709	-16.58908	11.27051
8.75128	-16.56711	11.27051
8.75546	-16.56711	11.27051
8.75965	-16.56711	11.27051
8.76383	-16.56711	11.27051
8.76822	-16.54513	11.27051
8.77243	-16.54513	11.27051
8.77661	-16.52316	11.27051
8.78080	-16.52316	11.27051
8.78498	-16.52316	11.27051
8.78916	-16.50119	11.27051
8.79335	-16.50119	11.27051
8.79764	-16.47922	11.27051
8.80189	-16.47922	11.27051
8.80619	-16.47922	11.27051
8.81037	-16.45724	11.27051
8.81456	-16.45724	11.27051
8.81874	-16.45724	11.27051
8.82293	-16.43527	11.27051
8.82717	-16.43527	11.27051
8.83144	-16.41330	11.27051
8.83564	-16.41330	11.27051
8.83983	-16.41330	11.27051
8.84401	-16.41330	11.27051
8.84819	-16.39132	11.27051
8.85238	-16.39132	11.27051
8.85656	-16.39132	11.27051
8.86086	-16.36935	11.27051
8.86506	-16.36935	11.27051
8.86926	-16.36935	11.27051
8.87345	-16.34738	11.27051
8.87765	-16.34738	11.27051
8.88184	-16.34738	11.27051
8.88603	-16.32541	11.27051
8.89045	-16.32541	11.27051
8.89466	-16.32541	11.27051
8.89884	-16.32541	11.27051
8.90303	-16.30343	11.27051
8.90732	-16.30343	11.27051
8.91150	-16.30343	11.27051
8.91569	-16.30343	11.27051
8.91995	-16.28146	11.27051
8.92422	-16.28146	11.27051
8.92841	-16.28146	11.27051
8.93260	-16.28146	11.27051
8.93679	-16.25949	11.27051
8.94097	-16.25949	11.27051
8.94516	-16.25949	11.27051
8.94941	-16.23752	11.27051
8.95371	-16.23752	11.27051
8.95791	-16.23752	11.27051
8.96210	-16.23752	11.27051
8.96629	-16.23752	11.27051
8.97047	-16.23752	11.27051
8.97466	-16.21554	11.27051
8.97884	-16.21554	11.27051
8.98314	-16.19357	11.27051
8.98735	-16.19357	11.27051
8.99153	-16.19357	11.27051
8.99572	-16.19357	11.27051
8.99990	-16.19357	11.27051
9.00409	-16.17160	11.27051
9.00838	-16.17160	11.27051
9.01279	-16.17160	11.27051
9.01700	-16.17160	11.27051
9.02119	-16.14963	11.27051
9.02538	-16.14963	11.27051
9.02957	-16.14963	11.27051
9.03375	-16.14963	11.27051
9.03794	-16.14963	11.27051
9.04221	-16.12765	11.27051
9.04647	-16.12765	11.27051
9.05068	-16.12765	11.27051
9.05486	-16.12765	11.27051
9.05905	-16.12765	11.27051
9.06323	-16.10568	11.27051
9.06742	-16.10568	11.27051
9.07168	-16.10568	11.27051
9.07597	-16.10568	11.27051
9.08016	-16.10568	11.27051
9.08435	-16.08371	11.27051
9.08854	-16.08371	11.27051
9.09272	-16.08371	11.27051
9.09691	-16.08371	11.27051
9.10109	-16.08371	11.27051
9.10539	-16.08371	11.27051
9.10971	-16.06173	11.27051
9.11390	-16.06173	11.27051
9.11808	-16.06173	11.27051
9.12227	-16.06173	11.27051
9.12645	-16.06173	11.27051
9.13063	-16.06173	11.27051
9.13503	-16.06173	11.27051
9.13923	-16.03976	11.27051
9.14342	-16.03976	11.27051
9.14760	-16.03976	11.27051
9.15179	-16.03976	11.27051
9.15598	-16.01779	11.27051
9.16016	-16.03976	11.27051
9.16444	-16.01779	11.27051
9.16871	-16.03976	11.27051
9.17290	-16.01779	11.27051
9.17709	-16.01779	11.27051
9.18127	-16.01779	11.27051
9.18546	-16.01779	11.27051
9.18965	-16.01779	11.27051
9.19391	-16.01779	11.27051
9.19819	-16.01779	11.27051
9.20239	-16.01779	11.27051
9.20657	-16.01779	11.27051
9.21086	-16.01779	11.27051
9.21505	-16.01779	11.27051
9.21923	-15.99582	11.27051
9.22341	-16.01779	11.27051
9.22774	-15.99582	11.27051
9.23195	-15.99582	11.27051
9.23614	-15.99582	11.27051
9.24034	-15.99582	11.27051
9.24452	-15.99582	11.27051
9.24871	-15.99582	11.27051
9.25289	-15.99582	11.27051
9.25731	-15.99582	11.27051
9.26153	-15.99582	11.27051
9.26568	-15.99582	11.27051
9.26987	-15.99582	11.27051
9.27405	-15.99582	11.27051
9.27823	-15.99582	11.27051
9.28242	-15.99582	11.27051
9.28670	-15.99582	11.27051
9.29096	-15.99582	11.27051
9.29515	-15.99582	11.27051
9.29934	-15.99582	11.27051
9.30352	-15.99582	11.27051
9.30771	-15.99582	11.27051
9.31199	-15.99582	11.27051
9.31624	-15.99582	11.27051
9.32052	-15.99582	11.27051
9.32474	-15.99582	11.27051
9.32894	-15.99582	11.27051
9.33312	-16.01779	11.27051
9.33732	-16.01779	11.27051
9.34151	-15.99582	11.27051
9.34568	-15.99582	11.27051
9.34997	-16.01779	11.27051
9.35418	-16.01779	11.27051
9.35836	-16.01779	11.27051
9.36255	-16.01779	11.27051
9.36673	-16.01779	11.27051
9.37092	-16.01779	11.27051
9.37511	-16.01779	11.27051
9.37954	-16.01779	11.27051
9.38376	-16.03976	11.27051
9.38795	-16.01779	11.27051
9.39213	-16.01779	11.27051
9.39632	-16.03976	11.27051
9.40050	-16.03976	11.27051
9.40469	-16.03976	11.27051
9.40895	-16.03976	11.27051
9.41332	-16.03976	11.27051
9.41751	-16.03976	11.27051
9.42168	-16.03976	11.27051
9.42586	-16.03976	11.27051
9.43005	-16.06173	11.27051
9.43423	-16.06173	11.27051
9.43849	-16.06173	11.27051
9.44277	-16.06173	11.27051
9.44697	-16.06173	11.27051
9.45116	-16.06173	11.27051
9.45534	-16.06173	11.27051
9.45953	-16.06173	11.27051
9.46371	-16.06173	11.27051
9.46791	-16.06173	11.27051
9.47222	-16.06173	11.27051
9.47642	-16.08371	11.27051
9.48061	-16.08371	11.27051
9.48480	-16.08371	11.27051
9.48899	-16.08371	11.27051
9.49317	-16.08371	11.27051
9.49736	-16.08371	11.27051
9.50178	-16.10568	11.27051
9.50599	-16.10568	11.27051
9.51018	-16.10568	11.27051
9.51446	-16.10568	11.27051
9.51865	-16.10568	11.27051
9.52283	-16.10568	11.27051
9.52701	-16.12765	11.27051
9.53128	-16.12765	11.27051
9.53554	-16.12765	11.27051
9.53973	-16.12765	11.27051
9.54391	-16.14963	11.27051
9.54810	-16.14963	11.27051
9.55228	-16.14963	11.27051
9.55647	-16.14963	11.27051
9.56072	-16.17160	11.27051
9.56499	-16.17160	11.27051
9.56920	-16.17160	11.27051
9.57339	-16.17160	11.27051
9.57758	-16.17160	11.27051
9.58177	-16.17160	11.27051
9.58595	-16.19357	11.27051
9.59013	-16.19357	11.27051
9.59443	-16.19357	11.27051
9.59862	-16.19357	11.27051
9.60281	-16.19357	11.27051
9.60700	-16.19357	11.27051
9.61118	-16.21554	11.27051
9.61546	-16.21554	11.27051
9.61965	-16.21554	11.27051
9.62405	-16.21554	11.27051
9.62825	-16.21554	11.27051
9.63244	-16.21554	11.27051
9.63662	-16.23752	11.27051
9.64081	-16.23752	11.27051
9.64499	-16.23752	11.27051
9.64917	-16.23752	11.27051
9.65345	-16.23752	11.27051
9.65771	-16.25949	11.27051
9.66190	-16.25949	11.27051
9.66609	-16.25949	11.27051
9.67027	-16.25949	11.27051
9.67445	-16.25949	11.27051
9.67864	-16.25949	11.27051
9.68289	-16.28146	11.27051
9.68717	-16.28146	11.27051
9.69136	-16.28146	11.27051
9.69555	-16.28146	11.27051
9.69973	-16.30343	11.27051
9.70392	-16.30343	11.27051
9.70810	-16.30343	11.27051
9.71229	-16.30343	11.27051
9.71669	-16.32541	11.27051
9.72089	-16.30343	11.27051
9.72507	-16.32541	11.27051
9.72926	-16.32541	11.27051
9.73344	-16.32541	11.27051
9.73763	-16.32541	11.27051
9.74181	-16.34738	11.27051
9.74621	-16.32541	11.27051
9.75042	-16.34738	11.27051
9.75460	-16.34738	11.27051
9.75879	-16.34738	11.27051
9.76297	-16.34738	11.27051
9.76716	-16.36935	11.27051
9.77134	-16.36935	11.27051
9.77561	-16.36935	11.27051
9.77988	-16.36935	11.27051
9.78408	-16.36935	11.27051
9.78826	-16.36935	11.27051
9.79245	-16.39132	11.27051
9.79663	-16.39132	11.27051
9.80082	-16.39132	11.27051
9.80507	-16.39132	11.27051
9.80935	-16.39132	11.27051
9.81355	-16.41330	11.27051
9.81784	-16.41330	11.27051
9.82203	-16.41330	11.27051
9.82621	-16.41330	11.27051
9.83040	-16.43527	11.27051
9.83458	-16.43527	11.27051
9.83886	-16.43527	11.27051
9.84306	-16.43527	11.27051
9.84725	-16.45724	11.27051
9.85143	-16.43527	11.27051
9.85562	-16.45724	11.27051
9.85980	-16.45724	11.27051
9.86398	-16.45724	11.27051
9.86839	-16.47922	11.27051
9.87259	-16.47922	11.27051
9.87678	-16.47922	11.27051
9.88097	-16.47922	11.27051
9.88515	-16.47922	11.27051
9.88934	-16.47922	11.27051
9.89352	-16.47922	11.27051
9.89779	-16.50119	11.27051
9.90206	-16.50119	11.27051
9.90625	-16.50119	11.27051
9.91043	-16.50119	11.27051
9.91462	-16.50119	11.27051
9.91891	-16.52316	11.27051
9.92309	-16.52316	11.27051
9.92734	-16.52316	11.27051
9.93161	-16.52316	11.27051
9.93581	-16.52316	11.27051
9.93999	-16.52316	11.27051
9.94418	-16.54513	11.27051
9.94836	-16.54513	11.27051
9.95254	-16.54513	11.27051
9.95673	-16.54513	11.27051
9.96102	-16.54513	11.27051
9.96522	-16.54513	11.27051
9.96941	-16.54513	11.27051
9.97361	-16.56711	11.27051
9.97779	-16.56711	11.27051
9.98198	-16.56711	11.27051
9.98616	-16.56711	11.27051
9.99057	-16.56711	11.27051
9.99477	-16.56711	11.27051
9.99896	-16.56711	11.27051
10.00315	-16.56711	11.27051
10.00733	-16.56711	11.27051
10.01151	-16.56711	11.27051
10.01570	-16.58908	11.27051
10.02009	-16.58908	11.27051
10.02434	-16.58908	11.27051
10.02853	-16.56711	11.27051
10.03271	-16.58908	11.27051
10.03690	-16.58908	11.27051
10.04108	-16.58908	11.27051
10.04527	-16.58908	11.27051
10.04952	-16.58908	11.27051
10.05377	-16.58908	11.27051
10.05797	-16.61105	11.27051
10.06216	-16.58908	11.27051
10.06634	-16.58908	11.27051
10.07053	-16.58908	11.27051
10.07471	-16.58908	11.27051
10.07890	-16.58908	11.27051
10.08319	-16.61105	11.27051
10.08739	-16.61105	11.27051
10.09158	-16.61105	11.27051
10.09577	-16.61105	11.27051
10.09995	-16.61105	11.27051
10.10413	-16.61105	11.27051
10.10832	-16.61105	11.27051
10.11271	-16.61105	11.27051
10.11691	-16.61105	11.27051
10.12120	-16.61105	11.27051
10.12539	-16.61105	11.27051
10.12958	-16.61105	11.27051
10.13377	-16.61105	11.27051
10.13795	-16.63302	11.27051
10.14221	-16.63302	11.27051
10.14647	-16.61105	11.27051
10.15067	-16.63302	11.27051
10.15485	-16.63302	11.27051
10.15904	-16.63302	11.27051
10.16322	-16.63302	11.27051
10.16741	-16.63302	11.27051
10.17167	-16.63302	11.27051
10.17594	-16.63302	11.27051
10.18014	-16.63302	11.27051
10.18433	-16.63302	11.27051
10.18851	-16.63302	11.27051
10.19270	-16.63302	11.27051
10.19688	-16.63302	11.27051
10.20106	-16.63302	11.27051
10.20535	-16.63302	11.27051
10.20957	-16.63302	11.27051
10.21376	-16.63302	11.27051
10.21800	-16.63302	11.27051
10.22232	-16.63302	11.27051
10.22654	-16.63302	11.27051
10.23074	-16.63302	11.27051
10.23521	-16.65500	11.27051
10.23942	-16.63302	11.27051
10.24361	-16.65500	11.27051
10.24780	-16.63302	11.27051
10.25199	-16.63302	11.27051
10.25617	-16.63302	11.27051
10.26036	-16.63302	11.27051
10.26462	-16.63302	11.27051
10.26889	-16.65500	11.27051
10.27309	-16.65500	11.27051
10.27727	-16.65500	11.27051
10.28146	-16.65500	11.27051
10.28565	-16.65500	11.27051
10.28984	-16.63302	11.27051
10.29409	-16.65500	11.27051
10.29837	-16.63302	11.27051
10.30257	-16.65500	11.27051
10.30676	-16.65500	11.27051
10.31094	-16.65500	11.27051
10.31513	-16.63302	11.27051
10.31931	-16.63302	11.27051
10.32360	-16.65500	11.27051
10.32789	-16.63302	11.27051
10.33209	-16.63302	11.27051
10.33628	-16.65500	11.27051
10.34047	-16.65500	11.27051
10.34465	-16.63302	11.27051
10.34883	-16.63302	11.27051
10.35302	-16.63302	11.27051
10.35743	-16.63302	11.27051
10.36165	-16.63302	11.27051
10.36584	-16.63302	11.27051
10.37003	-16.63302	11.27051
10.37423	-16.63302	11.27051
10.37841	-16.63302	11.27051
10.38260	-16.63302	11.27051
10.38687	-16.63302	11.27051
10.39115	-16.63302	11.27051
10.39535	-16.63302	11.27051
10.39954	-16.63302	11.27051
10.40372	-16.63302	11.27051
10.40791	-16.63302	11.27051
10.41210	-16.63302	11.27051
10.41636	-16.63302	11.27051
10.42064	-16.63302	11.27051
10.42494	-16.63302	11.27051
10.42912	-16.63302	11.27051
10.43331	-16.63302	11.27051
10.43750	-16.63302	11.27051
10.44168	-16.63302	11.27051
10.44586	-16.63302	11.27051
10.45016	-16.63302	11.27051
10.45437	-16.63302	11.27051
10.45855	-16.63302	11.27051
10.46274	-16.63302	11.27051
10.46692	-16.63302	11.27051
10.47111	-16.63302	11.27051
10.47529	-16.61105	11.27051
10.47970	-16.63302	11.27051
10.48391	-16.61105	11.27051
10.48810	-16.61105	11.27051
10.49229	-16.61105	11.27051
10.49647	-16.61105	11.27051
10.50065	-16.61105	11.27051
10.50484	-16.61105	11.27051
10.50911	-16.61105	11.27051
10.51337	-16.61105	11.27051
10.51758	-16.61105	11.27051
10.52176	-16.61105	11.27051
10.52605	-16.58908	11.27051
10.53023	-16.61105	11.27051
10.53442	-16.58908	11.27051
10.53867	-16.58908	11.27051
10.54294	-16.58908	11.27051
10.54714	-16.58908	11.27051
10.55133	-16.58908	11.27051
10.55552	-16.58908	11.27051
10.55970	-16.58908	11.27051
10.56389	-16.58908	11.27051
10.56807	-16.58908	11.27051
10.57237	-16.58908	11.27051
10.57660	-16.58908	11.27051
10.58079	-16.58908	11.27051
10.58498	-16.58908	11.27051
10.58917	-16.58908	11.27051
10.59336	-16.58908	11.27051
10.59755	-16.58908	11.27051
10.60196	-16.58908	11.27051
10.60617	-16.58908	11.27051
10.61036	-16.58908	11.27051
10.61454	-16.56711	11.27051
10.61873	-16.56711	11.27051
10.62292	-16.56711	11.27051
10.62721	-16.56711	11.27051
10.63148	-16.56711	11.27051
10.63574	-16.56711	11.27051
10.63993	-16.56711	11.27051
10.64412	-16.56711	11.27051
10.64830	-16.56711	11.27051
10.65249	-16.56711	11.27051
10.65667	-16.56711	11.27051
10.66093	-16.56711	11.27051
10.66521	-16.56711	11.27051
10.66941	-16.56711	11.27051
10.67361	-16.56711	11.27051
10.67780	-16.56711	11.27051
10.68198	-16.54513	11.27051
10.68617	-16.56711	11.27051
10.69035	-16.54513	11.27051
10.69464	-16.56711	11.27051
10.69884	-16.54513	11.27051
10.70303	-16.54513	11.27051
10.70721	-16.54513	11.27051
10.71140	-16.54513	11.27051
10.71558	-16.54513	11.27051
10.71976	-16.54513	11.27051
10.72415	-16.54513	11.27051
10.72846	-16.54513	11.27051
10.73265	-16.54513	11.27051
10.73683	-16.54513	11.27051
10.74101	-16.54513	11.27051
10.74520	-16.54513	11.27051
10.74938	-16.54513	11.27051
10.75367	-16.54513	11.27051
10.75793	-16.54513	11.27051
10.76212	-16.54513	11.27051
10.76630	-16.54513	11.27051
10.77049	-16.54513	11.27051
10.77467	-16.52316	11.27051
10.77886	-16.54513	11.27051
10.78312	-16.54513	11.27051
10.78741	-16.52316	11.27051
10.79160	-16.54513	11.27051
10.79579	-16.52316	11.27051
10.79997	-16.52316	11.27051
10.80416	-16.52316	11.27051
10.80834	-16.52316	11.27051
10.81252	-16.52316	11.27051
10.81682	-16.54513	11.27051
10.82101	-16.52316	11.27051
10.82520	-16.52316	11.27051
10.82949	-16.52316	11.27051
10.83367	-16.52316	11.27051
10.83786	-16.52316	11.27051
10.84204	-16.52316	11.27051
10.84646	-16.52316	11.27051
10.85067	-16.52316	11.27051
10.85485	-16.52316	11.27051
10.85904	-16.52316	11.27051
10.86322	-16.52316	11.27051
10.86740	-16.52316	11.27051
10.87158	-16.52316	11.27051
10.87584	-16.52316	11.27051
10.88010	-16.50119	11.27051
10.88430	-16.52316	11.27051
10.88848	-16.52316	11.27051
10.89266	-16.50119	11.27051
10.89684	-16.50119	11.27051
10.90103	-16.50119	11.27051
10.90527	-16.52316	11.27051
10.90956	-16.52316	11.27051
10.91376	-16.50119	11.27051
10.91794	-16.50119	11.27051
10.92212	-16.50119	11.27051
10.92631	-16.50119	11.27051
10.93059	-16.50119	11.27051
10.93477	-16.50119	11.27051
10.93907	-16.50119	11.27051
10.94326	-16.50119	11.27051
10.94745	-16.50119	11.27051
10.95163	-16.50119	11.27051
10.95581	-16.50119	11.27051
10.95999	-16.50119	11.27051
10.96418	-16.50119	11.27051
10.96860	-16.47922	11.27051
10.97280	-16.47922	11.27051
10.97699	-16.47922	11.27051
10.98117	-16.47922	11.27051
10.98535	-16.47922	11.27051
10.98954	-16.47922	11.27051
10.99368	-16.47922	11.27051
10.99793	-16.47922	11.27051
11.00220	-16.47922	11.27051
11.00639	-16.47922	11.27051
11.01058	-16.47922	11.27051
11.01476	-16.47922	11.27051
11.01894	-16.47922	11.27051
11.02312	-16.47922	11.27051
11.02736	-16.47922	11.27051
11.03174	-16.47922	11.27051
11.03594	-16.45724	11.27051
11.04013	-16.47922	11.27051
11.04431	-16.47922	11.27051
11.04849	-16.45724	11.27051
11.05268	-16.47922	11.27051
11.05686	-16.45724	11.27051
11.06116	-16.47922	11.27051
11.06535	-16.45724	11.27051
11.06955	-16.47922	11.27051
11.07373	-16.47922	11.27051
11.07792	-16.45724	11.27051
11.08254	-16.45724	11.27051
11.08674	-16.45724	11.27051
11.09117	-16.45724	11.27051
11.09538	-16.45724	11.27051
11.09957	-16.45724	11.27051
11.10375	-16.45724	11.27051
11.10793	-16.45724	11.27051
11.11212	-16.45724	11.27051
11.11630	-16.45724	11.27051
11.12055	-16.45724	11.27051
11.12482	-16.45724	11.27051
11.12902	-16.45724	11.27051
11.13331	-16.45724	11.27051
11.13749	-16.45724	11.27051
11.14168	-16.45724	11.27051
11.14587	-16.45724	11.27051
11.15014	-16.45724	11.27051
11.15444	-16.45724	11.27051
11.15864	-16.45724	11.27051
11.16283	-16.45724	11.27051
11.16701	-16.45724	11.27051
11.17119	-16.45724	11.27051
11.17538	-16.45724	11.27051
11.17956	-16.45724	11.27051
11.18385	-16.45724	11.27051
11.18805	-16.45724	11.27051
11.19224	-16.45724	11.27051
11.19642	-16.45724	11.27051
11.20061	-16.45724	11.27051
11.20479	-16.45724	11.27051
11.20897	-16.45724	11.27051
11.21338	-16.45724	11.27051
11.21760	-16.45724	11.27051
11.22179	-16.45724	11.27051
11.22600	-16.45724	11.27051
11.23019	-16.45724	11.27051
11.23448	-16.45724	11.27051
11.23866	-16.43527	11.27051
11.24292	-16.45724	11.27051
11.24719	-16.45724	11.27051
11.25141	-16.45724	11.27051
11.25561	-16.45724	11.27051
11.25980	-16.45724	11.27051
11.26399	-16.45724	11.27051
11.26818	-16.45724	11.27051
11.27244	-16.43527	11.27051
11.27672	-16.45724	11.27051
11.28092	-16.45724	11.27051
11.28511	-16.45724	11.27051
11.28931	-16.45724	11.27051
11.29350	-16.43527	11.27051
11.29768	-16.45724	11.27051
11.30186	-16.45724	11.27051
11.30616	-16.43527	11.27051
11.31036	-16.43527	11.27051
11.31454	-16.45724	11.27051
11.31873	-16.45724	11.27051
11.32292	-16.45724	11.27051
11.32710	-16.45724	11.27051
11.33128	-16.45724	11.27051
11.33583	-16.45724	11.27051
11.34003	-16.45724	11.27051
11.34421	-16.45724	11.27051
11.34839	-16.45724	11.27051
11.35260	-16.45724	11.27051
11.35680	-16.45724	11.27051
11.36099	-16.45724	11.27051
11.36526	-16.45724	11.27051
11.36957	-16.45724	11.27051
11.37377	-16.45724	11.27051
11.37796	-16.45724	11.27051
11.38215	-16.45724	11.27051
11.38634	-16.45724	11.27051
11.39053	-16.45724	11.27051
11.39480	-16.45724	11.27051
11.39908	-16.45724	11.27051
11.40328	-16.45724	11.27051
11.40747	-16.45724	11.27051
11.41165	-16.45724	11.27051
11.41583	-16.45724	11.27051
11.42002	-16.45724	11.27051
11.42420	-16.47922	11.27051
11.42850	-16.45724	11.27051
11.43270	-16.47922	11.27051
11.43699	-16.47922	11.27051
11.44118	-16.47922	11.27051
11.44536	-16.47922	11.27051
11.44956	-16.47922	11.27051
11.45375	-16.47922	11.27051
11.45819	-16.47922	11.27051
11.46240	-16.47922	11.27051
11.46660	-16.47922	11.27051
11.47079	-16.47922	11.27051
11.47498	-16.47922	11.27051
11.47916	-16.50119	11.27051
11.48334	-16.47922	11.27051
11.48761	-16.47922	11.27051
11.49188	-16.47922	11.27051
11.49607	-16.47922	11.27051
11.50026	-16.47922	11.27051
11.50445	-16.47922	11.27051
11.50864	-16.47922	11.27051
11.51282	-16.50119	11.27051
11.51707	-16.50119	11.27051
11.52135	-16.50119	11.27051
11.52557	-16.50119	11.27051
11.52975	-16.50119	11.27051
11.53394	-16.50119	11.27051
11.53823	-16.50119	11.27051
11.54241	-16.50119	11.27051
11.54660	-16.50119	11.27051
11.55091	-16.50119	11.27051
11.55512	-16.50119	11.27051
11.55931	-16.50119	11.27051
11.56350	-16.50119	11.27051
11.56769	-16.50119	11.27051
11.57187	-16.50119	11.27051
11.57606	-16.50119	11.27051
11.58046	-16.50119	11.27051
11.58466	-16.52316	11.27051
11.58885	-16.50119	11.27051
11.59303	-16.50119	11.27051
11.59722	-16.50119	11.27051
11.60140	-16.50119	11.27051
11.60560	-16.52316	11.27051
11.60986	-16.52316	11.27051
11.61413	-16.52316	11.27051
11.61833	-16.52316	11.27051
11.62252	-16.52316	11.27051
11.62670	-16.52316	11.27051
11.63088	-16.52316	11.27051
11.63507	-16.52316	11.27051
11.63942	-16.52316	11.27051
11.64369	-16.52316	11.27051
11.64789	-16.52316	11.27051
11.65210	-16.52316	11.27051
11.65630	-16.52316	11.27051
11.66049	-16.52316	11.27051
11.66468	-16.52316	11.27051
11.66886	-16.54513	11.27051
11.67316	-16.52316	11.27051
11.67736	-16.54513	11.27051
11.68157	-16.52316	11.27051
11.68576	-16.52316	11.27051
11.68994	-16.54513	11.27051
11.69413	-16.54513	11.27051
11.69832	-16.52316	11.27051
11.70273	-16.54513	11.27051
11.70693	-16.54513	11.27051
11.71112	-16.54513	11.27051
11.71530	-16.54513	11.27051
11.71949	-16.54513	11.27051
11.72367	-16.54513	11.27051
11.72786	-16.54513	11.27051
11.73213	-16.54513	11.27051
11.73638	-16.54513	11.27051
11.74068	-16.54513	11.27051
11.74486	-16.56711	11.27051
11.74905	-16.54513	11.27051
11.75325	-16.56711	11.27051
11.75745	-16.56711	11.27051
11.76173	-16.56711	11.27051
11.76601	-16.56711	11.27051
11.77021	-16.56711	11.27051
11.77440	-16.56711	11.27051
11.77858	-16.56711	11.27051
11.78277	-16.56711	11.27051
11.78695	-16.58908	11.27051
11.79113	-16.58908	11.27051
11.79543	-16.58908	11.27051
11.79963	-16.58908	11.27051
11.80382	-16.58908	11.27051
11.80800	-16.58908	11.27051
11.81219	-16.58908	11.27051
11.81637	-16.58908	11.27051
11.82056	-16.58908	11.27051
11.82494	-16.58908	11.27051
11.82915	-16.58908	11.27051
11.83334	-16.61105	11.27051
11.83752	-16.61105	11.27051
11.84178	-16.61105	11.27051
11.84596	-16.61105	11.27051
11.85015	-16.61105	11.27051
11.85444	-16.61105	11.27051
11.85871	-16.63302	11.27051
11.86291	-16.63302	11.27051
11.86710	-16.63302	11.27051
11.87130	-16.63302	11.27051
11.87549	-16.63302	11.27051
11.87968	-16.63302	11.27051
11.88392	-16.63302	11.27051
11.88820	-16.63302	11.27051
11.89240	-16.65500	11.27051
11.89659	-16.65500	11.27051
11.90078	-16.65500	11.27051
11.90497	-16.65500	11.27051
11.90917	-16.65500	11.27051
11.91336	-16.65500	11.27051
11.91767	-16.65500	11.27051
11.92188	-16.65500	11.27051
11.92607	-16.65500	11.27051
11.93026	-16.65500	11.27051
11.93444	-16.67697	11.27051
11.93863	-16.67697	11.27051
11.94293	-16.67697	11.27051
11.94730	-16.67697	11.27051
11.95153	-16.67697	11.27051
11.95575	-16.67697	11.27051
11.95994	-16.67697	11.27051
11.96415	-16.67697	11.27051
11.96834	-16.67697	11.27051
11.97253	-16.67697	11.27051
11.97683	-16.69894	11.27051
11.98109	-16.69894	11.27051
11.98530	-16.69894	11.27051
11.98949	-16.69894	11.27051
11.99368	-16.69894	11.27051
11.99787	-16.69894	11.27051
12.00206	-16.69894	11.27051
12.00632	-16.69894	11.27051
12.01060	-16.72091	11.27051
12.01480	-16.72091	11.27051
12.01899	-16.72091	11.27051
12.02318	-16.72091	11.27051
12.02737	-16.72091	11.27051
12.03156	-16.72091	11.27051
12.03575	-16.72091	11.27051
12.04005	-16.72091	11.27051
12.04437	-16.72091	11.27051
12.04856	-16.72091	11.27051
12.05278	-16.72091	11.27051
12.05699	-16.74289	11.27051
12.06118	-16.74289	11.27051
12.06537	-16.74289	11.27051
12.06976	-16.74289	11.27051
12.07397	-16.74289	11.27051
12.07817	-16.74289	11.27051
12.08237	-16.74289	11.27051
12.08656	-16.74289	11.27051
12.09075	-16.74289	11.27051
12.09495	-16.74289	11.27051
12.09926	-16.74289	11.27051
12.10352	-16.74289	11.27051
12.10772	-16.74289	11.27051
12.11191	-16.74289	11.27051
12.11611	-16.74289	11.27051
12.12029	-16.76486	11.27051
12.12448	-16.74289	11.27051
12.12873	-16.76486	11.27051
12.13301	-16.76486	11.27051
12.13721	-16.76486	11.27051
12.14140	-16.76486	11.27051
12.14571	-16.76486	11.27051
12.14990	-16.76486	11.27051
12.15411	-16.76486	11.27051
12.15831	-16.76486	11.27051
12.16261	-16.76486	11.27051
12.16683	-16.76486	11.27051
12.17102	-16.76486	11.27051
12.17521	-16.76486	11.27051
12.17941	-16.76486	11.27051
12.18360	-16.74289	11.27051
12.18779	-16.74289	11.27051
12.19216	-16.76486	11.27051
12.19638	-16.76486	11.27051
12.20057	-16.74289	11.27051
12.20476	-16.74289	11.27051
12.20895	-16.74289	11.27051
12.21314	-16.74289	11.27051
12.21734	-16.76486	11.27051
12.22168	-16.74289	11.27051
12.22609	-16.74289	11.27051
12.23031	-16.74289	11.27051
12.23450	-16.74289	11.27051
12.23870	-16.74289	11.27051
12.24289	-16.74289	11.27051
12.24718	-16.74289	11.27051
12.25146	-16.74289	11.27051
12.25575	-16.72091	11.27051
12.25997	-16.72091	11.27051
12.26416	-16.72091	11.27051
12.26836	-16.72091	11.27051
12.27256	-16.72091	11.27051
12.27676	-16.72091	11.27051
12.28095	-16.69894	11.27051
12.28526	-16.72091	11.27051
12.28946	-16.72091	11.27051
12.29366	-16.69894	11.27051
12.29785	-16.69894	11.27051
12.30204	-16.69894	11.27051
12.30623	-16.69894	11.27051
12.31042	-16.67697	11.27051
12.31479	-16.67697	11.27051
12.31900	-16.67697	11.27051
12.32319	-16.67697	11.27051
12.32739	-16.67697	11.27051
12.33158	-16.67697	11.27051
12.33576	-16.65500	11.27051
12.33995	-16.65500	11.27051
12.34428	-16.65500	11.27051
12.34866	-16.65500	11.27051
12.35288	-16.63302	11.27051
12.35708	-16.63302	11.27051
12.36129	-16.63302	11.27051
12.36549	-16.63302	11.27051
12.36969	-16.63302	11.27051
12.37398	-16.63302	11.27051
12.37828	-16.61105	11.27051
12.38248	-16.61105	11.27051
12.38668	-16.58908	11.27051
12.39087	-16.58908	11.27051
12.39506	-16.58908	11.27051
12.39926	-16.58908	11.27051
12.40345	-16.58908	11.27051
12.40775	-16.56711	11.27051
12.41196	-16.56711	11.27051
12.41615	-16.56711	11.27051
12.42035	-16.54513	11.27051
12.42453	-16.54513	11.27051
12.42872	-16.54513	11.27051
12.43292	-16.54513	11.27051
12.43729	-16.52316	11.27051
12.44150	-16.52316	11.27051
12.44569	-16.52316	11.27051
12.44999	-16.50119	11.27051
12.45420	-16.50119	11.27051
12.45840	-16.50119	11.27051
12.46259	-16.50119	11.27051
12.46690	-16.47922	11.27051
12.47118	-16.47922	11.27051
12.47538	-16.50119	11.27051
12.47957	-16.50119	11.27051
12.48376	-16.45724	11.27051
12.48796	-16.45724	11.27051
12.49214	-16.45724	11.27051
12.49640	-16.45724	11.27051
12.50068	-16.43527	11.27051
12.50488	-16.43527	11.27051
12.50907	-16.43527	11.27051
12.51325	-16.41330	11.27051
12.51744	-16.41330	11.27051
12.52163	-16.41330	11.27051
12.52581	-16.39132	11.27051
12.53011	-16.39132	11.27051
12.53431	-16.39132	11.27051
12.53850	-16.39132	11.27051
12.54268	-16.36935	11.27051
12.54686	-16.36935	11.27051
12.55115	-16.34738	11.27051
12.55535	-16.34738	11.27051
12.55976	-16.34738	11.27051
12.56397	-16.34738	11.27051
12.56816	-16.32541	11.27051
12.57235	-16.32541	11.27051
12.57653	-16.32541	11.27051
12.58071	-16.30343	11.27051
12.58490	-16.30343	11.27051
12.58917	-16.30343	11.27051
12.59344	-16.30343	11.27051
12.59764	-16.28146	11.27051
12.60183	-16.28146	11.27051
12.60602	-16.25949	11.27051
12.61020	-16.25949	11.27051
12.61438	-16.25949	11.27051
12.61864	-16.23752	11.27051
12.62292	-16.23752	11.27051
12.62713	-16.21554	11.27051
12.63132	-16.21554	11.27051
12.63551	-16.21554	11.27051
12.63969	-16.21554	11.27051
12.64388	-16.21554	11.27051
12.64806	-16.19357	11.27051
12.65249	-16.19357	11.27051
12.65669	-16.17160	11.27051
12.66089	-16.17160	11.27051
12.66508	-16.17160	11.27051
12.66928	-16.17160	11.27051
12.67347	-16.14963	11.27051
12.67766	-16.14963	11.27051
12.68207	-16.14963	11.27051
12.68628	-16.12765	11.27051
12.69047	-16.12765	11.27051
12.69466	-16.12765	11.27051
12.69884	-16.10568	11.27051
12.70302	-16.10568	11.27051
12.70721	-16.10568	11.27051
12.71147	-16.08371	11.27051
12.71574	-16.08371	11.27051
12.71994	-16.08371	11.27051
12.72413	-16.06173	11.27051
12.72831	-16.08371	11.27051
12.73250	-16.06173	11.27051
12.73668	-16.03976	11.27051
12.74093	-16.03976	11.27051
12.74520	-16.03976	11.27051
12.74941	-16.03976	11.27051
12.75373	-16.01779	11.27051
12.75792	-16.01779	11.27051
12.76210	-16.01779	11.27051
12.76629	-16.01779	11.27051
12.77048	-15.99582	11.27051
12.77477	-15.99582	11.27051
12.77896	-15.97384	11.27051
12.78315	-15.97384	11.27051
12.78734	-15.97384	11.27051
12.79152	-15.97384	11.27051
12.79570	-15.97384	11.27051
12.79989	-15.97384	11.27051
12.80428	-15.95187	11.27051
12.80848	-15.95187	11.27051
12.81267	-15.95187	11.27051
12.81685	-15.92990	11.27051
12.82104	-15.92990	11.27051
12.82522	-15.92990	11.27051
12.82940	-15.92990	11.27051
12.83370	-15.90793	11.27051
12.83795	-15.90793	11.27051
12.84214	-15.90793	11.27051
12.84633	-15.90793	11.27051
12.85051	-15.90793	11.27051
12.85483	-15.90793	11.27051
12.85902	-15.88595	11.27051
12.86328	-15.88595	11.27051
12.86757	-15.88595	11.27051
12.87177	-15.88595	11.27051
12.87596	-15.88595	11.27051
12.88015	-15.86398	11.27051
12.88433	-15.86398	11.27051
12.88852	-15.86398	11.27051
12.89270	-15.86398	11.27051
12.89700	-15.84201	11.27051
12.90120	-15.84201	11.27051
12.90539	-15.84201	11.27051
12.90958	-15.84201	11.27051
12.91377	-15.84201	11.27051
12.91795	-15.84201	11.27051
12.92214	-15.82004	11.27051
12.92656	-15.82004	11.27051
12.93077	-15.84201	11.27051
12.93495	-15.82004	11.27051
12.93914	-15.82004	11.27051
12.94332	-15.82004	11.27051
12.94751	-15.79806	11.27051
12.95169	-15.82004	11.27051
12.95610	-15.82004	11.27051
12.96035	-15.79806	11.27051
12.96455	-15.79806	11.27051
12.96875	-15.79806	11.27051
12.97295	-15.79806	11.27051
12.97714	-15.79806	11.27051
12.98132	-15.79806	11.27051
12.98559	-15.79806	11.27051
12.98988	-15.79806	11.27051
12.99408	-15.79806	11.27051
12.99826	-15.79806	11.27051
13.00245	-15.79806	11.27051
13.00663	-15.77609	11.27051
13.01082	-15.77609	11.27051
13.01500	-15.77609	11.27051
13.01930	-15.77609	11.27051
13.02350	-15.77609	11.27051
13.02768	-15.77609	11.27051
13.03187	-15.77609	11.27051
13.03605	-15.77609	11.27051
13.04023	-15.77609	11.27051
13.04442	-15.77609	11.27051
13.04881	-15.77609	11.27051
13.05304	-15.77609	11.27051
13.05734	-15.77609	11.27051
13.06153	-15.77609	11.27051
13.06568	-15.77609	11.27051
13.06987	-15.77609	11.27051
13.07405	-15.79806	11.27051
13.07831	-15.77609	11.27051
13.08257	-15.77609	11.27051
13.08676	-15.77609	11.27051
13.09095	-15.79806	11.27051
13.09513	-15.77609	11.27051
13.09932	-15.79806	11.27051
13.10350	-15.77609	11.27051
13.10775	-15.77609	11.27051
13.11202	-15.79806	11.27051
13.11622	-15.79806	11.27051
13.12041	-15.79806	11.27051
13.12459	-15.79806	11.27051
13.12877	-15.79806	11.27051
13.13296	-15.79806	11.27051
13.13714	-15.79806	11.27051
13.14144	-15.79806	11.27051
13.14565	-15.82004	11.27051
13.14984	-15.82004	11.27051
13.15405	-15.82004	11.27051
13.15835	-15.84201	11.27051
13.16253	-15.82004	11.27051
13.16672	-15.82004	11.27051
13.17114	-15.84201	11.27051
13.17536	-15.84201	11.27051
13.17955	-15.84201	11.27051
13.18373	-15.84201	11.27051
13.18792	-15.84201	11.27051
13.19210	-15.84201	11.27051
13.19629	-15.86398	11.27051
13.20055	-15.86398	11.27051
13.20481	-15.86398	11.27051
13.20901	-15.88595	11.27051
13.21319	-15.88595	11.27051
13.21738	-15.88595	11.27051
13.22157	-15.88595	11.27051
13.22576	-15.88595	11.27051
13.23006	-15.90793	11.27051
13.23436	-15.90793	11.27051
13.23857	-15.92990	11.27051
13.24275	-15.92990	11.27051
13.24694	-15.92990	11.27051
13.25113	-15.92990	11.27051
13.25533	-15.92990	11.27051
13.25962	-15.95187	11.27051
13.26393	-15.95187	11.27051
13.26814	-15.95187	11.27051
13.27233	-15.95187	11.27051
13.27651	-15.97384	11.27051
13.28070	-15.97384	11.27051
13.28489	-15.99582	11.27051
13.28907	-15.99582	11.27051
13.29346	-15.99582	11.27051
13.29768	-15.99582	11.27051
13.30187	-16.01779	11.27051
13.30605	-16.01779	11.27051
13.31024	-16.03976	11.27051
13.31442	-16.03976	11.27051
13.31862	-16.03976	11.27051
13.32292	-16.06173	11.27051
13.32719	-16.06173	11.27051
13.33138	-16.06173	11.27051
13.33557	-16.08371	11.27051
13.33975	-16.08371	11.27051
13.34394	-16.10568	11.27051
13.34812	-16.10568	11.27051
13.35237	-16.10568	11.27051
13.35668	-16.10568	11.27051
13.36100	-16.12765	11.27051
13.36520	-16.12765	11.27051
13.36939	-16.14963	11.27051
13.37361	-16.14963	11.27051
13.37780	-16.14963	11.27051
13.38200	-16.14963	11.27051
13.38631	-16.17160	11.27051
13.39052	-16.17160	11.27051
13.39472	-16.19357	11.27051
13.39891	-16.19357	11.27051
13.40311	-16.19357	11.27051
13.40730	-16.19357	11.27051
13.41149	-16.21554	11.27051
13.41588	-16.21554	11.27051
13.42010	-16.21554	11.27051
13.42429	-16.23752	11.27051
13.42848	-16.23752	11.27051
13.43266	-16.23752	11.27051
13.43685	-16.23752	11.27051
13.44103	-16.25949	11.27051
13.44531	-16.25949	11.27051
13.44959	-16.25949	11.27051
13.45381	-16.28146	11.27051
13.45800	-16.28146	11.27051
13.46230	-16.28146	11.27051
13.46649	-16.28146	11.27051
13.47067	-16.30343	11.27051
13.47494	-16.30343	11.27051
13.47921	-16.30343	11.27051
13.48341	-16.30343	11.27051
13.48760	-16.32541	11.27051
13.49179	-16.32541	11.27051
13.49597	-16.32541	11.27051
13.50016	-16.32541	11.27051
13.50434	-16.32541	11.27051
13.50863	-16.32541	11.27051
13.51284	-16.34738	11.27051
13.51702	-16.34738	11.27051
13.52121	-16.34738	11.27051
13.52539	-16.36935	11.27051
13.52959	-16.36935	11.27051
13.53377	-16.36935	11.27051
13.53817	-16.39132	11.27051
13.54237	-16.36935	11.27051
13.54656	-16.39132	11.27051
13.55074	-16.39132	11.27051
13.55495	-16.39132	11.27051
13.55914	-16.39132	11.27051
13.56343	-16.39132	11.27051
13.56771	-16.39132	11.27051
13.57197	-16.41330	11.27051
13.57617	-16.41330	11.27051
13.58035	-16.41330	11.27051
13.58454	-16.41330	11.27051
13.58872	-16.41330	11.27051
13.59291	-16.41330	11.27051
13.59716	-16.41330	11.27051
13.60143	-16.41330	11.27051
13.60565	-16.43527	11.27051
13.60984	-16.43527	11.27051
13.61402	-16.43527	11.27051
13.61821	-16.43527	11.27051
13.62239	-16.43527	11.27051
13.62658	-16.43527	11.27051
13.63087	-16.43527	11.27051
13.63508	-16.43527	11.27051
13.63927	-16.43527	11.27051
13.64346	-16.43527	11.27051
13.64766	-16.43527	11.27051
13.65185	-16.43527	11.27051
13.65606	-16.45724	11.27051
13.66052	-16.45724	11.27051
13.66485	-16.45724	11.27051
13.66904	-16.45724	11.27051
13.67323	-16.45724	11.27051
13.67743	-16.45724	11.27051
13.68162	-16.45724	11.27051
13.68580	-16.45724	11.27051
13.69007	-16.45724	11.27051
13.69434	-16.45724	11.27051
13.69854	-16.45724	11.27051
13.70273	-16.45724	11.27051
13.70692	-16.45724	11.27051
13.71110	-16.45724	11.27051
13.71529	-16.45724	11.27051
13.71955	-16.45724	11.27051
13.72383	-16.45724	11.27051
13.72803	-16.47922	11.27051
13.73222	-16.45724	11.27051
13.73640	-16.45724	11.27051
13.74059	-16.45724	11.27051
13.74477	-16.45724	11.27051
13.74895	-16.45724	11.27051
13.75330	-16.45724	11.27051
13.75751	-16.45724	11.27051
13.76169	-16.45724	11.27051
13.76599	-16.45724	11.27051
13.77017	-16.45724	11.27051
13.77436	-16.45724	11.27051
13.77854	-16.45724	11.27051
13.78295	-16.45724	11.27051
13.78716	-16.47922	11.27051
13.79135	-16.45724	11.27051
13.79553	-16.45724	11.27051
13.79972	-16.45724	11.27051
13.80390	-16.45724	11.27051
13.80809	-16.45724	11.27051
13.81236	-16.45724	11.27051
13.81662	-16.45724	11.27051
13.82081	-16.45724	11.27051
13.82500	-16.45724	11.27051
13.82918	-16.45724	11.27051
13.83337	-16.45724	11.27051
13.83756	-16.45724	11.27051
13.84181	-16.45724	11.27051
13.84609	-16.45724	11.27051
13.85029	-16.45724	11.27051
13.85450	-16.45724	11.27051
13.85870	-16.45724	11.27051
13.86288	-16.45724	11.27051
13.86717	-16.45724	11.27051
13.87136	-16.45724	11.27051
13.87565	-16.45724	11.27051
13.87985	-16.45724	11.27051
13.88404	-16.45724	11.27051
13.88823	-16.43527	11.27051
13.89241	-16.45724	11.27051
13.89660	-16.45724	11.27051
13.90078	-16.43527	11.27051
13.90517	-16.43527	11.27051
13.90938	-16.45724	11.27051
13.91357	-16.43527	11.27051
13.91776	-16.45724	11.27051
13.92195	-16.43527	11.27051
13.92613	-16.43527	11.27051
13.93032	-16.43527	11.27051
13.93459	-16.43527	11.27051
13.93886	-16.43527	11.27051
13.94305	-16.43527	11.27051
13.94724	-16.43527	11.27051
13.95142	-16.43527	11.27051
13.95562	-16.43527	11.27051
13.95982	-16.43527	11.27051
13.96408	-16.43527	11.27051
13.96846	-16.43527	11.27051
13.97265	-16.43527	11.27051
13.97684	-16.43527	11.27051
13.98102	-16.43527	11.27051
13.98521	-16.43527	11.27051
13.98939	-16.43527	11.27051
13.99360	-16.43527	11.27051
13.99789	-16.41330	11.27051
14.00210	-16.43527	11.27051
14.00629	-16.41330	11.27051
14.01048	-16.41330	11.27051
14.01466	-16.41330	11.27051
14.01885	-16.41330	11.27051
14.02303	-16.41330	11.27051
14.02744	-16.41330	11.27051
14.03165	-16.41330	11.27051
14.03584	-16.41330	11.27051
14.04002	-16.41330	11.27051
14.04421	-16.41330	11.27051
14.04839	-16.41330	11.27051
14.05257	-16.41330	11.27051
14.05687	-16.41330	11.27051
14.06114	-16.41330	11.27051
14.06534	-16.41330	11.27051
14.06965	-16.41330	11.27051
14.07383	-16.41330	11.27051
14.07803	-16.41330	11.27051
14.08221	-16.41330	11.27051
14.08646	-16.41330	11.27051
14.09074	-16.41330	11.27051
14.09494	-16.41330	11.27051
14.09913	-16.41330	11.27051
14.10331	-16.41330	11.27051
14.10750	-16.39132	11.27051
14.11168	-16.39132	11.27051
14.11587	-16.39132	11.27051
14.12016	-16.41330	11.27051
14.12437	-16.39132	11.27051
14.12855	-16.39132	11.27051
14.13274	-16.39132	11.27051
14.13692	-16.39132	11.27051
14.14111	-16.39132	11.27051
14.14529	-16.39132	11.27051
14.14972	-16.39132	11.27051
14.15394	-16.41330	11.27051
14.15814	-16.41330	11.27051
14.16233	-16.39132	11.27051
14.16652	-16.39132	11.27051
14.17081	-16.41330	11.27051
14.17500	-16.41330	11.27051
14.17928	-16.41330	11.27051
14.18355	-16.39132	11.27051
14.18774	-16.39132	11.27051
14.19193	-16.39132	11.27051
14.19611	-16.39132	11.27051
14.20030	-16.41330	11.27051
14.20448	-16.41330	11.27051
14.20873	-16.41330	11.27051
14.21301	-16.39132	11.27051
14.21721	-16.39132	11.27051
14.22140	-16.41330	11.27051
14.22559	-16.41330	11.27051
14.22980	-16.41330	11.27051
14.23399	-16.41330	11.27051
14.23818	-16.41330	11.27051
14.24248	-16.41330	11.27051
14.24668	-16.41330	11.27051
14.25087	-16.39132	11.27051
14.25507	-16.41330	11.27051
14.25927	-16.41330	11.27051
14.26346	-16.41330	11.27051
14.26765	-16.41330	11.27051
14.27218	-16.41330	11.27051
14.27638	-16.41330	11.27051
14.28058	-16.41330	11.27051
14.28476	-16.41330	11.27051
14.28895	-16.41330	11.27051
14.29313	-16.41330	11.27051
14.29732	-16.41330	11.27051
14.30159	-16.41330	11.27051
14.30586	-16.41330	11.27051
14.31006	-16.41330	11.27051
14.31426	-16.41330	11.27051
14.31846	-16.39132	11.27051
14.32264	-16.41330	11.27051
14.32683	-16.41330	11.27051
14.33108	-16.41330	11.27051
14.33536	-16.41330	11.27051
14.33956	-16.41330	11.27051
14.34375	-16.41330	11.27051
14.34794	-16.41330	11.27051
14.35212	-16.41330	11.27051
14.35633	-16.41330	11.27051
14.36052	-16.41330	11.27051
14.36482	-16.41330	11.27051
14.36903	-16.43527	11.27051
14.37333	-16.41330	11.27051
14.37752	-16.41330	11.27051
14.38168	-16.41330	11.27051
14.38586	-16.41330	11.27051
14.39005	-16.41330	11.27051
14.39446	-16.41330	11.27051
14.39868	-16.43527	11.27051
14.40287	-16.41330	11.27051
14.40705	-16.41330	11.27051
14.41124	-16.43527	11.27051
14.41543	-16.43527	11.27051
14.41962	-16.41330	11.27051
14.42389	-16.43527	11.27051
14.42816	-16.43527	11.27051
14.43236	-16.43527	11.27051
14.43654	-16.43527	11.27051
14.44073	-16.43527	11.27051
14.44491	-16.43527	11.27051
14.44910	-16.43527	11.27051
14.45335	-16.43527	11.27051
14.45765	-16.43527	11.27051
14.46186	-16.43527	11.27051
14.46605	-16.43527	11.27051
14.47023	-16.43527	11.27051
14.47452	-16.43527	11.27051
14.47870	-16.43527	11.27051
14.48289	-16.43527	11.27051
14.48718	-16.43527	11.27051
14.49139	-16.43527	11.27051
14.49558	-16.43527	11.27051
14.49977	-16.43527	11.27051
14.50396	-16.43527	11.27051
14.50814	-16.45724	11.27051
14.51233	-16.45724	11.27051
14.51672	-16.43527	11.27051
14.52093	-16.45724	11.27051
14.52512	-16.45724	11.27051
14.52931	-16.45724	11.27051
14.53352	-16.45724	11.27051
14.53768	-16.45724	11.27051
14.54187	-16.45724	11.27051
14.54614	-16.45724	11.27051
14.55041	-16.45724	11.27051
14.55463	-16.45724	11.27051
14.55883	-16.45724	11.27051
14.56302	-16.45724	11.27051
14.56721	-16.45724	11.27051
14.57140	-16.45724	11.27051
14.57579	-16.45724	11.27051
14.58006	-16.45724	11.27051
14.58427	-16.45724	11.27051
14.58846	-16.45724	11.27051
14.59265	-16.47922	11.27051
14.59683	-16.47922	11.27051
14.60101	-16.47922	11.27051
14.60520	-16.47922	11.27051
14.60949	-16.47922	11.27051
14.61369	-16.47922	11.27051
14.61788	-16.47922	11.27051
14.62207	-16.47922	11.27051
14.62625	-16.47922	11.27051
14.63044	-16.47922	11.27051
14.63462	-16.47922	11.27051
14.63901	-16.47922	11.27051
14.64322	-16.47922	11.27051
14.64740	-16.47922	11.27051
14.65159	-16.50119	11.27051
14.65579	-16.47922	11.27051
14.65999	-16.50119	11.27051
14.66418	-16.50119	11.27051
14.66846	-16.50119	11.27051
14.67273	-16.50119	11.27051
14.67702	-16.50119	11.27051
14.68121	-16.50119	11.27051
14.68541	-16.50119	11.27051
14.68960	-16.50119	11.27051
14.69379	-16.50119	11.27051
14.69805	-16.50119	11.27051
14.70232	-16.50119	11.27051
14.70652	-16.50119	11.27051
14.71070	-16.50119	11.27051
14.71489	-16.50119	11.27051
14.71907	-16.50119	11.27051
14.72326	-16.50119	11.27051
14.72744	-16.50119	11.27051
14.73173	-16.50119	11.27051
14.73594	-16.50119	11.27051
14.74013	-16.50119	11.27051
14.74431	-16.50119	11.27051
14.74849	-16.50119	11.27051
14.75268	-16.50119	11.27051
14.75688	-16.50119	11.27051
14.76128	-16.50119	11.27051
14.76550	-16.50119	11.27051
14.76968	-16.50119	11.27051
14.77387	-16.50119	11.27051
14.77816	-16.50119	11.27051
14.78234	-16.50119	11.27051
14.78652	-16.47922	11.27051
14.79079	-16.50119	11.27051
14.79505	-16.50119	11.27051
14.79924	-16.50119	11.27051
14.80343	-16.50119	11.27051
14.80762	-16.50119	11.27051
14.81180	-16.50119	11.27051
14.81599	-16.50119	11.27051
14.82024	-16.47922	11.27051
14.82452	-16.50119	11.27051
14.82871	-16.50119	11.27051
14.83290	-16.50119	11.27051
14.83709	-16.50119	11.27051
14.84128	-16.47922	11.27051
14.84546	-16.47922	11.27051
14.84966	-16.47922	11.27051
14.85395	-16.47922	11.27051
14.85817	-16.47922	11.27051
14.86236	-16.47922	11.27051
14.86654	-16.47922	11.27051
14.87073	-16.47922	11.27051
14.87492	-16.47922	11.27051
14.87921	-16.47922	11.27051
14.88360	-16.45724	11.27051
14.88782	-16.47922	11.27051
14.89201	-16.45724	11.27051
14.89620	-16.47922	11.27051
14.90038	-16.45724	11.27051
14.90457	-16.45724	11.27051
14.90875	-16.45724	11.27051
14.91302	-16.45724	11.27051
14.91729	-16.45724	11.27051
14.92149	-16.45724	11.27051
14.92569	-16.45724	11.27051
14.92987	-16.45724	11.27051
14.93406	-16.45724	11.27051
14.93824	-16.43527	11.27051
14.94249	-16.43527	11.27051
14.94676	-16.45724	11.27051
14.95096	-16.43527	11.27051
14.95517	-16.43527	11.27051
14.95937	-16.43527	11.27051
14.96355	-16.43527	11.27051
14.96775	-16.43527	11.27051
14.97193	-16.43527	11.27051
14.97623	-16.43527	11.27051
14.98053	-16.43527	11.27051
14.98473	-16.43527	11.27051
14.98892	-16.41330	11.27051
14.99310	-16.41330	11.27051
14.99729	-16.41330	11.27051
15.00187	-16.41330	4.13735
15.00617	-16.41330	4.13735
15.01042	-16.39132	4.13735
15.01461	-16.39132	4.13735
15.01879	-16.41330	4.13735
15.02298	-16.39132	4.13735
15.02716	-16.41330	4.13735
15.03134	-16.39132	4.13735
15.03560	-16.39132	4.13735
15.03987	-16.39132	4.13735
15.04407	-16.39132	4.13735
15.04826	-16.39132	4.13735
15.05245	-16.39132	4.13735
15.05665	-16.39132	4.13735
15.06084	-16.39132	4.13735
15.06503	-16.39132	4.13735
15.06932	-16.36935	4.13735
15.07352	-16.36935	4.13735
15.07768	-16.36935	4.13735
15.08186	-16.34738	4.13735
15.08610	-16.36935	4.13735
15.09029	-16.36935	4.13735
15.09447	-16.34738	4.13735
15.09885	-16.34738	4.13735
15.10315	-16.32541	4.13735
15.10734	-16.32541	4.13735
15.11152	-16.32541	4.13735
15.11571	-16.30343	4.13735
15.11989	-16.30343	4.13735
15.12408	-16.30343	4.13735
15.12834	-16.28146	4.13735
15.13260	-16.28146	4.13735
15.13680	-16.25949	4.13735
15.14098	-16.25949	4.13735
15.14517	-16.25949	4.13735
15.14935	-16.23752	4.13735
15.15355	-16.21554	4.13735
15.15783	-16.21554	4.13735
15.16212	-16.19357	4.13735
15.16632	-16.17160	4.13735
15.17051	-16.14963	4.13735
15.17470	-16.14963	4.13735
15.17888	-16.12765	4.13735
15.18307	-16.10568	4.13735
15.18726	-16.08371	4.13735
15.19155	-16.08371	4.13735
15.19575	-16.08371	4.13735
15.19994	-16.03976	4.13735
15.20423	-16.03976	4.13735
15.20841	-16.01779	4.13735
15.21259	-15.97384	4.13735
15.21677	-15.95187	4.13735
15.22116	-15.92990	4.13735
15.22536	-15.92990	4.13735
15.22958	-15.90793	4.13735
15.23377	-15.88595	4.13735
15.23796	-15.84201	4.13735
15.24215	-15.82004	4.13735
15.24633	-15.79806	4.13735
15.25060	-15.75412	4.13735
15.25487	-15.75412	4.13735
15.25908	-15.73214	4.13735
15.26328	-15.68820	4.13735
15.26748	-15.66623	4.13735
15.27167	-15.60031	4.13735
15.27586	-15.60031	4.13735
15.28011	-15.57834	4.13735
15.28441	-15.53439	4.13735
15.28862	-15.51242	4.13735
15.29282	-15.46847	4.13735
15.29701	-15.42453	4.13735
15.30119	-15.42453	4.13735
15.30550	-15.38058	4.13735
15.30968	-15.33664	4.13735
15.31398	-15.29269	4.13735
15.31819	-15.24875	4.13735
15.32238	-15.20480	4.13735
15.32657	-15.20480	4.13735
15.33076	-15.16086	4.13735
15.33495	-15.13888	4.13735
15.33914	-15.07297	4.13735
15.34351	-15.02902	4.13735
15.34771	-14.98507	4.13735
15.35190	-14.91916	4.13735
15.35611	-14.91916	4.13735
15.36031	-14.87521	4.13735
15.36451	-14.83127	4.13735
15.36871	-14.78732	4.13735
15.37301	-14.74338	4.13735
15.37727	-14.67746	4.13735
15.38147	-14.61154	4.13735
15.38567	-14.61154	4.13735
15.38986	-14.56759	4.13735
15.39405	-14.50168	4.13735
15.39823	-14.45773	4.13735
15.40248	-14.39181	4.13735
15.40698	-14.32589	4.13735
15.41117	-14.32589	4.13735
15.41537	-14.28195	4.13735
15.41956	-14.23800	4.13735
15.42374	-14.17209	4.13735
15.42793	-14.10617	4.13735
15.43212	-14.04025	4.13735
15.43642	-14.04025	4.13735
15.44064	-13.97433	4.13735
15.44483	-13.90841	4.13735
15.44902	-13.84250	4.13735
15.45321	-13.77658	4.13735
15.45742	-13.73263	4.13735
15.46162	-13.66672	4.13735
15.46602	-13.66672	4.13735
15.47023	-13.57882	4.13735
15.47442	-13.51291	4.13735
15.47861	-13.44699	4.13735
15.48280	-13.38107	4.13735
15.48700	-13.29318	4.13735
15.49120	-13.29318	4.13735
15.49551	-13.24923	4.13735
15.49978	-13.16134	4.13735
15.50398	-13.09543	4.13735
15.50828	-13.02951	4.13735
15.51247	-12.96359	4.13735
15.51666	-12.87570	4.13735
15.52085	-12.87570	4.13735
15.52509	-12.80978	4.13735
15.52938	-12.74386	4.13735
15.53360	-12.65597	4.13735
15.53779	-12.59006	4.13735
15.54198	-12.59006	4.13735
15.54617	-12.50216	4.13735
15.55036	-12.41427	4.13735
15.55455	-12.34836	4.13735
15.55887	-12.26047	4.13735
15.56308	-12.19455	4.13735
15.56727	-12.19455	4.13735
15.57146	-12.08468	4.13735
15.57565	-12.01877	4.13735
15.57984	-11.93088	4.13735
15.58403	-11.86496	4.13735
15.58840	-11.77707	4.13735
15.59262	-11.71115	4.13735
15.59681	-11.71115	4.13735
15.60100	-11.62326	4.13735
15.60520	-11.53537	4.13735
15.60950	-11.44748	4.13735
15.61368	-11.35959	4.13735
15.61800	-11.29367	4.13735
15.62226	-11.29367	4.13735
15.62646	-11.20578	4.13735
15.63065	-11.13986	4.13735
15.63485	-11.05197	4.13735
15.63903	-10.96408	4.13735
15.64322	-10.85422	4.13735
15.64746	-10.85422	4.13735
15.65174	-10.76632	4.13735
15.65596	-10.67843	4.13735
15.66016	-10.59054	4.13735
15.66436	-10.50265	4.13735
15.66856	-10.43673	4.13735
15.67275	-10.34884	4.13735
15.67694	-10.34884	4.13735
15.68124	-10.26095	4.13735
15.68545	-10.15109	4.13735
15.68965	-10.06320	4.13735
15.69384	-9.97531	4.13735
15.69803	-9.90939	4.13735
15.70222	-9.90939	4.13735
15.70641	-9.79953	4.13735
15.71088	-9.71164	4.13735
15.71509	-9.62375	4.13735
15.71928	-9.53586	4.13735
15.72347	-9.44797	4.13735
15.72766	-9.36007	4.13735
15.73185	-9.36007	4.13735
15.73603	-9.25021	4.13735
15.74034	-9.16232	4.13735
15.74460	-9.07443	4.13735
15.74880	-8.98654	4.13735
15.75299	-8.98654	4.13735
15.75720	-8.81076	4.13735
15.76140	-8.81076	4.13735
15.76561	-8.72287	4.13735
15.76987	-8.63498	4.13735
15.77415	-8.52511	4.13735
15.77835	-8.43722	4.13735
15.78255	-8.43722	4.13735
15.78674	-8.34933	4.13735
15.79093	-8.26144	4.13735
15.79513	-8.15158	4.13735
15.79932	-8.06369	4.13735
15.80362	-7.97580	4.13735
15.80784	-7.97580	4.13735
15.81214	-7.86593	4.13735
15.81633	-7.77804	4.13735
15.82052	-7.66818	4.13735
15.82471	-7.58029	4.13735
15.82890	-7.49240	4.13735
15.83327	-7.49240	4.13735
15.83749	-7.40451	4.13735
15.84168	-7.31662	4.13735
15.84587	-7.22873	4.13735
15.85006	-7.14084	4.13735
15.85425	-7.05295	4.13735
15.85846	-7.05295	4.13735
15.86279	-6.94308	4.13735
15.86706	-6.85519	4.13735
15.87126	-6.76730	4.13735
15.87545	-6.67941	4.13735
15.87964	-6.59152	4.13735
15.88383	-6.50363	4.13735
15.88802	-6.50363	4.13735
15.89226	-6.41574	4.13735
15.89654	-6.32785	4.13735
15.90074	-6.23996	4.13735
15.90493	-6.15207	4.13735
15.90912	-6.04220	4.13735
15.91342	-6.04220	4.13735
15.91762	-5.95431	4.13735
15.92181	-5.86642	4.13735
15.92611	-5.77853	4.13735
15.93031	-5.71261	4.13735
15.93450	-5.62472	4.13735
15.93869	-5.53683	4.13735
15.94289	-5.53683	4.13735
15.94708	-5.42697	4.13735
15.95127	-5.36105	4.13735
15.95568	-5.25119	4.13735
15.95990	-5.16330	4.13735
15.96411	-5.07541	4.13735
15.96831	-5.00949	4.13735
15.97251	-5.00949	4.13735
15.97670	-4.92160	4.13735
15.98090	-4.83371	4.13735
15.98521	-4.74582	4.13735
15.98947	-4.65793	4.13735
15.99368	-4.65793	4.13735
15.99788	-4.57004	4.13735
16.00209	-4.48214	4.13735
16.00628	-4.39425	4.13735
16.01047	-4.30636	4.13735
16.01489	-4.24045	4.13735
16.01917	-4.17453	4.13735
16.02336	-4.17453	4.13735
16.02755	-4.06466	4.13735
16.03174	-3.99875	4.13735
16.03592	-3.91086	4.13735
16.04011	-3.82297	4.13735
16.04429	-3.73507	4.13735
16.04858	-3.73507	4.13735
16.05277	-3.66916	4.13735
16.05698	-3.58127	4.13735
16.06117	-3.49338	4.13735
16.06537	-3.40548	4.13735
16.06956	-3.31759	4.13735
16.07375	-3.31759	4.13735
16.07815	-3.25168	4.13735
16.08235	-3.16379	4.13735
16.08654	-3.09787	4.13735
16.09074	-3.00998	4.13735
16.09493	-3.00998	4.13735
16.09912	-2.94406	4.13735
16.10330	-2.87814	4.13735
16.10757	-2.79025	4.13735
16.11183	-2.72433	4.13735
16.11613	-2.63644	4.13735
16.12031	-2.57052	4.13735
16.12450	-2.57052	4.13735
16.12868	-2.48263	4.13735
16.13286	-2.41672	4.13735
16.13711	-2.35080	4.13735
16.14138	-2.28488	4.13735
16.14559	-2.21896	4.13735
16.14978	-2.15304	4.13735
16.15396	-2.15304	4.13735
16.15816	-2.06515	4.13735
16.16236	-1.99923	4.13735
16.16654	-1.93332	4.13735
16.17084	-1.86740	4.13735
16.17504	-1.80148	4.13735
16.17923	-1.80148	4.13735
16.18342	-1.71359	4.13735
16.18760	-1.66964	4.13735
16.19179	-1.60373	4.13735
16.19598	-1.53781	4.13735
16.20035	-1.47189	4.13735
16.20455	-1.47189	4.13735
16.20874	-1.40597	4.13735
16.21292	-1.34006	4.13735
16.21721	-1.29611	4.13735
16.22139	-1.23019	4.13735
16.22559	-1.16427	4.13735
16.22986	-1.12033	4.13735
16.23412	-1.12033	4.13735
16.23831	-1.05441	4.13735
16.24250	-0.98849	4.13735
16.24668	-0.94455	4.13735
16.25086	-0.87863	4.13735
16.25505	-0.83468	4.13735
16.25933	-0.83468	4.13735
16.26363	-0.76877	4.13735
16.26784	-0.72482	4.13735
16.27203	-0.68088	4.13735
16.27621	-0.61496	4.13735
16.28040	-0.57101	4.13735
16.28458	-0.52707	4.13735
16.28876	-0.52707	4.13735
16.29306	-0.46115	4.13735
16.29727	-0.41720	4.13735
16.30146	-0.37326	4.13735
16.30565	-0.32931	4.13735
16.30984	-0.32931	4.13735
16.31402	-0.28537	4.13735
16.31831	-0.21945	4.13735
16.32271	-0.17550	4.13735
16.32692	-0.13156	4.13735
16.33111	-0.08761	4.13735
16.33531	-0.08761	4.13735
16.33949	-0.06564	4.13735
16.34368	-0.02170	4.13735
16.34787	0.02225	4.13735
16.35213	0.06619	4.13735
16.35639	0.11014	4.13735
16.36061	0.13211	4.13735
16.36480	0.13211	4.13735
16.36901	0.17606	4.13735
16.37321	0.22000	4.13735
16.37740	0.24198	4.13735
16.38168	0.28592	4.13735
16.38597	0.30789	4.13735
16.39017	0.30789	4.13735
16.39436	0.35184	4.13735
16.39855	0.37381	4.13735
16.40273	0.41776	4.13735
16.40692	0.43973	4.13735
16.41110	0.46170	4.13735
16.41539	0.46170	4.13735
16.41970	0.48368	4.13735
16.42388	0.52762	4.13735
16.42807	0.54959	4.13735
16.43225	0.57157	4.13735
16.43644	0.59354	4.13735
16.44062	0.61551	4.13735
16.44501	0.61551	4.13735
16.44923	0.63748	4.13735
16.45341	0.65946	4.13735
16.45763	0.68143	4.13735
16.46182	0.70340	4.13735
16.46601	0.72537	4.13735
16.47020	0.72537	4.13735
16.47447	0.72537	4.13735
16.47874	0.76932	4.13735
16.48293	0.76932	4.13735
16.48712	0.79129	4.13735
16.49130	0.81327	4.13735
16.49549	0.81327	4.13735
16.49967	0.81327	4.13735
16.50392	0.83524	4.13735
16.50820	0.83524	4.13735
16.51240	0.85721	4.13735
16.51659	0.85721	4.13735
16.52088	0.85721	4.13735
16.52506	0.87918	4.13735
16.52925	0.87918	4.13735
16.53343	0.87918	4.13735
16.53775	0.87918	4.13735
16.54195	0.90116	4.13735
16.54613	0.90116	4.13735
16.55032	0.90116	4.13735
16.55451	0.90116	4.13735
16.55871	0.90116	4.13735
16.56290	0.90116	4.13735
16.56733	0.92313	4.13735
16.57154	0.92313	4.13735
16.57573	0.92313	4.13735
16.57991	0.92313	4.13735
16.58410	0.92313	4.13735
16.58829	0.90116	4.13735
16.59248	0.92313	4.13735
16.59674	0.92313	4.13735
16.60100	0.90116	4.13735
16.60520	0.90116	4.13735
16.60939	0.90116	4.13735
16.61358	0.90116	4.13735
16.61777	0.87918	4.13735
16.62206	0.87918	4.13735
16.62632	0.87918	4.13735
16.63059	0.87918	4.13735
16.63479	0.85721	4.13735
16.63898	0.83524	4.13735
16.64317	0.83524	4.13735
16.64735	0.81327	4.13735
16.65153	0.81327	4.13735
16.65572	0.81327	4.13735
16.66003	0.79129	4.13735
16.66424	0.79129	4.13735
16.66844	0.76932	4.13735
16.67262	0.74735	4.13735
16.67681	0.72537	4.13735
16.68099	0.72537	4.13735
16.68518	0.70340	4.13735
16.68959	0.70340	4.13735
16.69380	0.68143	4.13735
16.69799	0.65946	4.13735
16.70217	0.63748	4.13735
16.70636	0.63748	4.13735
16.71054	0.61551	4.13735
16.71473	0.59354	4.13735
16.71899	0.54959	4.13735
16.72336	0.54959	4.13735
16.72755	0.50565	4.13735
16.73173	0.50565	4.13735
16.73592	0.48368	4.13735
16.74011	0.46170	4.13735
16.74429	0.43973	4.13735
16.74855	0.41776	4.13735
16.75283	0.39578	4.13735
16.75703	0.35184	4.13735
16.76123	0.35184	4.13735
16.76543	0.32987	4.13735
16.76963	0.28592	4.13735
16.77382	0.26395	4.13735
16.77800	0.24198	4.13735
16.78230	0.19803	4.13735
16.78650	0.17606	4.13735
16.79068	0.17606	4.13735
16.79487	0.13211	4.13735
16.79905	0.11014	4.13735
16.80324	0.06619	4.13735
16.80742	0.02225	4.13735
16.81181	0.02225	4.13735
16.81603	0.00028	4.13735
16.82021	-0.04367	4.13735
16.82450	-0.08761	4.13735
16.82868	-0.13156	4.13735
16.83287	-0.15353	4.13735
16.83705	-0.15353	4.13735
16.84131	-0.19748	4.13735
16.84558	-0.24142	4.13735
16.84977	-0.28537	4.13735
16.85395	-0.32931	4.13735
16.85816	-0.37326	4.13735
16.86235	-0.37326	4.13735
16.86653	-0.41720	4.13735
16.87078	-0.43918	4.13735
16.87505	-0.48312	4.13735
16.87925	-0.52707	4.13735
16.88343	-0.57101	4.13735
16.88762	-0.57101	4.13735
16.89180	-0.61496	4.13735
16.89598	-0.65890	4.13735
16.90017	-0.72482	4.13735
16.90446	-0.74679	4.13735
16.90866	-0.79074	4.13735
16.91285	-0.85666	4.13735
16.91703	-0.85666	4.13735
16.92121	-0.90060	4.13735
16.92550	-0.92257	4.13735
16.92968	-0.98849	4.13735
16.93405	-1.03244	4.13735
16.93826	-1.09836	4.13735
16.94246	-1.09836	4.13735
16.94664	-1.14230	4.13735
16.95083	-1.20822	4.13735
16.95501	-1.23019	4.13735
16.95921	-1.27414	4.13735
16.96350	-1.34006	4.13735
16.96777	-1.38400	4.13735
16.97197	-1.38400	4.13735
16.97615	-1.44992	4.13735
16.98034	-1.49386	4.13735
16.98453	-1.55978	4.13735
16.98872	-1.60373	4.13735
16.99299	-1.64767	4.13735
16.99785	-1.71359	4.13735
17.00207	-1.71359	4.13735
17.00627	-1.75754	4.13735
17.01046	-1.82345	4.13735
17.01464	-1.88937	4.13735
17.01883	-1.95529	4.13735
17.02302	-1.99923	4.13735
17.02742	-1.99923	4.13735
17.03163	-2.06515	4.13735
17.03582	-2.10910	4.13735
17.04000	-2.15304	4.13735
17.04419	-2.21896	4.13735
17.04837	-2.26291	4.13735
17.05256	-2.26291	4.13735
17.05695	-2.32882	4.13735
17.06118	-2.39474	4.13735
17.06537	-2.46066	4.13735
17.06958	-2.52658	4.13735
17.07377	-2.57052	4.13735
17.07795	-2.57052	4.13735
17.08214	-2.63644	4.13735
17.08641	-2.70236	4.13735
17.09067	-2.74631	4.13735
17.09486	-2.81222	4.13735
17.09905	-2.87814	4.13735
17.10325	-2.87814	4.13735
17.10744	-2.94406	4.13735
17.11162	-3.00998	4.13735
17.11588	-3.07589	4.13735
17.12015	-3.14181	4.13735
17.12435	-3.18576	4.13735
17.12864	-3.25168	4.13735
17.13283	-3.25168	4.13735
17.13701	-3.31759	4.13735
17.14120	-3.38351	4.13735
17.14538	-3.44943	4.13735
17.14969	-3.51535	4.13735
17.15389	-3.51535	4.13735
17.15810	-3.58127	4.13735
17.16230	-3.64718	4.13735
17.16648	-3.69113	4.13735
17.17067	-3.73507	4.13735
17.17486	-3.82297	4.13735
17.17925	-3.88888	4.13735
17.18346	-3.88888	4.13735
17.18765	-3.95480	4.13735
17.19183	-3.99875	4.13735
17.19602	-4.08664	4.13735
17.20020	-4.15256	4.13735
17.20439	-4.19650	4.13735
17.20866	-4.26242	4.13735
17.21293	-4.26242	4.13735
17.21713	-4.32834	4.13735
17.22132	-4.39425	4.13735
17.22551	-4.46017	4.13735
17.22978	-4.52609	4.13735
17.23397	-4.59201	4.13735
17.23825	-4.59201	4.13735
17.24253	-4.65793	4.13735
17.24673	-4.72384	4.13735
17.25092	-4.76779	4.13735
17.25511	-4.83371	4.13735
17.25931	-4.89963	4.13735
17.26351	-4.89963	4.13735
17.26770	-4.96554	4.13735
17.27201	-5.03146	4.13735
17.27621	-5.09738	4.13735
17.28040	-5.16330	4.13735
17.28459	-5.22922	4.13735
17.28877	-5.22922	4.13735
17.29296	-5.29513	4.13735
17.29714	-5.33908	4.13735
17.30155	-5.40500	4.13735
17.30576	-5.47091	4.13735
17.30995	-5.53683	4.13735
17.31413	-5.60275	4.13735
17.31832	-5.60275	4.13735
17.32253	-5.66867	4.13735
17.32673	-5.73459	4.13735
17.33125	-5.80050	4.13735
17.33553	-5.86642	4.13735
17.33972	-5.93234	4.13735
17.34391	-5.93234	4.13735
17.34810	-5.97629	4.13735
17.35228	-6.04220	4.13735
17.35647	-6.10812	4.13735
17.36077	-6.17404	4.13735
17.36507	-6.23996	4.13735
17.36927	-6.23996	4.13735
17.37347	-6.30588	4.13735
17.37767	-6.37179	4.13735
17.38185	-6.41574	4.13735
17.38604	-6.45968	4.13735
17.39023	-6.52560	4.13735
17.39453	-6.52560	4.13735
17.39874	-6.59152	4.13735
17.40293	-6.65744	4.13735
17.40711	-6.72336	4.13735
17.41130	-6.76730	4.13735
17.41548	-6.83322	4.13735
17.41966	-6.87716	4.13735
17.42406	-6.87716	4.13735
17.42826	-6.92111	4.13735
17.43256	-6.98703	4.13735
17.43674	-7.05295	4.13735
17.44093	-7.09689	4.13735
17.44511	-7.16281	4.13735
17.44929	-7.16281	4.13735
17.45357	-7.20675	4.13735
17.45784	-7.27267	4.13735
17.46205	-7.31662	4.13735
17.46624	-7.36056	4.13735
17.47044	-7.42648	4.13735
17.47462	-7.47043	4.13735
17.47882	-7.47043	4.13735
17.48308	-7.53634	4.13735
17.48735	-7.58029	4.13735
17.49156	-7.62423	4.13735
17.49575	-7.69015	4.13735
17.49996	-7.69015	4.13735
17.50416	-7.73410	4.13735
17.50834	-7.77804	4.13735
17.51253	-7.82199	4.13735
17.51688	-7.86593	4.13735
17.52109	-7.93185	4.13735
17.52528	-7.95382	4.13735
17.52946	-7.95382	4.13735
17.53379	-8.01974	4.13735
17.53797	-8.06369	4.13735
17.54216	-8.10763	4.13735
17.54681	-8.17355	4.13735
17.55104	-8.19552	4.13735
17.55523	-8.23947	4.13735
17.55943	-8.23947	4.13735
17.56362	-8.28341	4.13735
17.56782	-8.32736	4.13735
17.57201	-8.37131	4.13735
17.57628	-8.41525	4.13735
17.58056	-8.45920	4.13735
17.58475	-8.45920	4.13735
17.58894	-8.50314	4.13735
17.59312	-8.54709	4.13735
17.59731	-8.59103	4.13735
17.60150	-8.61300	4.13735
17.60575	-8.65695	4.13735
17.61004	-8.65695	4.13735
17.61424	-8.70089	4.13735
17.61843	-8.74484	4.13735
17.62261	-8.78879	4.13735
17.62680	-8.81076	4.13735
17.63098	-8.81076	4.13735
17.63527	-8.85470	4.13735
17.63956	-8.87668	4.13735
17.64376	-8.92062	4.13735
17.64795	-8.94259	4.13735
17.65214	-8.98654	4.13735
17.65632	-9.03048	4.13735
17.66052	-9.03048	4.13735
17.66472	-9.05246	4.13735
17.66918	-9.07443	4.13735
17.67339	-9.11838	4.13735
17.67760	-9.14035	4.13735
17.68178	-9.16232	4.13735
17.68597	-9.20627	4.13735
17.69016	-9.20627	4.13735
17.69434	-9.22824	4.13735
17.69860	-9.25021	4.13735
17.70288	-9.27218	4.13735
17.70708	-9.31613	4.13735
17.71127	-9.33810	4.13735
17.71546	-9.33810	4.13735
17.71965	-9.36007	4.13735
17.72383	-9.38205	4.13735
17.72811	-9.40402	4.13735
17.73239	-9.44797	4.13735
17.73670	-9.46994	4.13735
17.74088	-9.49191	4.13735
17.74507	-9.49191	4.13735
17.74926	-9.51388	4.13735
17.75345	-9.53586	4.13735
17.75764	-9.55783	4.13735
17.76196	-9.55783	4.13735
17.76618	-9.57980	4.13735
17.77037	-9.57980	4.13735
17.77455	-9.60177	4.13735
17.77874	-9.62375	4.13735
17.78292	-9.64572	4.13735
17.78710	-9.66769	4.13735
17.79152	-9.68966	4.13735
17.79573	-9.68966	4.13735
17.79992	-9.68966	4.13735
17.80410	-9.71164	4.13735
17.80829	-9.71164	4.13735
17.81248	-9.73361	4.13735
17.81666	-9.75558	4.13735
17.82093	-9.75558	4.13735
17.82520	-9.75558	4.13735
17.82939	-9.77756	4.13735
17.83359	-9.79953	4.13735
17.83788	-9.79953	4.13735
17.84207	-9.79953	4.13735
17.84625	-9.79953	4.13735
17.85051	-9.82150	4.13735
17.85479	-9.82150	4.13735
17.85901	-9.84347	4.13735
17.86321	-9.84347	4.13735
17.86740	-9.84347	4.13735
17.87159	-9.84347	4.13735
17.87578	-9.86545	4.13735
17.87997	-9.86545	4.13735
17.88426	-9.86545	4.13735
17.88846	-9.86545	4.13735
17.89265	-9.88742	4.13735
17.89683	-9.88742	4.13735
17.90102	-9.88742	4.13735
17.90520	-9.88742	4.13735
17.90941	-9.88742	4.13735
17.91382	-9.88742	4.13735
17.91803	-9.88742	4.13735
17.92222	-9.88742	4.13735
17.92641	-9.88742	4.13735
17.93059	-9.88742	4.13735
17.93478	-9.88742	4.13735
17.93906	-9.88742	4.13735
17.94333	-9.86545	4.13735
17.94760	-9.88742	4.13735
17.95180	-9.86545	4.13735
17.95598	-9.86545	4.13735
17.96019	-9.86545	4.13735
17.96438	-9.86545	4.13735
17.96857	-9.84347	4.13735
17.97283	-9.84347	4.13735
17.97712	-9.84347	4.13735
17.98148	-9.82150	4.13735
17.98570	-9.82150	4.13735
17.98989	-9.82150	4.13735
17.99408	-9.82150	4.13735
17.99827	-9.79953	4.13735
18.00246	-9.79953	4.13735
18.00676	-9.79953	4.13735
18.01098	-9.77756	4.13735
18.01517	-9.77756	4.13735
18.01936	-9.75558	4.13735
18.02355	-9.75558	4.13735
18.02773	-9.73361	4.13735
18.03192	-9.73361	4.13735
18.03634	-9.73361	4.13735
18.04080	-9.71164	4.13735
18.04506	-9.68966	4.13735
18.04932	-9.68966	4.13735
18.05355	-9.66769	4.13735
18.05775	-9.64572	4.13735
18.06196	-9.62375	4.13735
18.06626	-9.62375	4.13735
18.07054	-9.60177	4.13735
18.07474	-9.60177	4.13735
18.07893	-9.57980	4.13735
18.08313	-9.55783	4.13735
18.08732	-9.53586	4.13735
18.09151	-9.53586	4.13735
18.09577	-9.51388	4.13735
18.10006	-9.49191	4.13735
18.10427	-9.46994	4.13735
18.10846	-9.44797	4.13735
18.11266	-9.42599	4.13735
18.11685	-9.42599	4.13735
18.12104	-9.40402	4.13735
18.12523	-9.38205	4.13735
18.12955	-9.36007	4.13735
18.13377	-9.33810	4.13735
18.13796	-9.33810	4.13735
18.14226	-9.31613	4.13735
18.14645	-9.29416	4.13735
18.15064	-9.27218	4.13735
18.15483	-9.22824	4.13735
18.15929	-9.20627	4.13735
18.16351	-9.18429	4.13735
18.16771	-9.18429	4.13735
18.17191	-9.16232	4.13735
18.17610	-9.11838	4.13735
18.18029	-9.09640	4.13735
18.18448	-9.07443	4.13735
18.18878	-9.05246	4.13735
18.19305	-9.00851	4.13735
18.19725	-9.00851	4.13735
18.20144	-9.00851	4.13735
18.20564	-8.96457	4.13735
18.20983	-8.94259	4.13735
18.21403	-8.89865	4.13735
18.21828	-8.89865	4.13735
18.22257	-8.89865	4.13735
18.22677	-8.85470	4.13735
18.23096	-8.81076	4.13735
18.23516	-8.78879	4.13735
18.23935	-8.76681	4.13735
18.24365	-8.74484	4.13735
18.24783	-8.70089	4.13735
18.25213	-8.70089	4.13735
18.25634	-8.67892	4.13735
18.26056	-8.63498	4.13735
18.26476	-8.61300	4.13735
18.26897	-8.56906	4.13735
18.27316	-8.54709	4.13735
18.27735	-8.54709	4.13735
18.28179	-8.52511	4.13735
18.28600	-8.48117	4.13735
18.29019	-8.45920	4.13735
18.29437	-8.41525	4.13735
18.29856	-8.39328	4.13735
18.30274	-8.39328	4.13735
18.30693	-8.34933	4.13735
18.31119	-8.32736	4.13735
18.31545	-8.30539	4.13735
18.31967	-8.26144	4.13735
18.32387	-8.23947	4.13735
18.32806	-8.21750	4.13735
18.33225	-8.21750	4.13735
18.33644	-8.17355	4.13735
18.34069	-8.15158	4.13735
18.34511	-8.10763	4.13735
18.34932	-8.06369	4.13735
18.35351	-8.04172	4.13735
18.35768	-8.04172	4.13735
18.36188	-7.99777	4.13735
18.36607	-7.97580	4.13735
18.37027	-7.95382	4.13735
18.37457	-7.90988	4.13735
18.37877	-7.86593	4.13735
18.38296	-7.86593	4.13735
18.38715	-7.84396	4.13735
18.39134	-7.80002	4.13735
18.39552	-7.77804	4.13735
18.39970	-7.73410	4.13735
18.40410	-7.69015	4.13735
18.40830	-7.69015	4.13735
18.41249	-7.66818	4.13735
18.41669	-7.64621	4.13735
18.42088	-7.60226	4.13735
18.42506	-7.58029	4.13735
18.42924	-7.53634	4.13735
18.43351	-7.53634	4.13735
18.43775	-7.51437	4.13735
18.44194	-7.47043	4.13735
18.44623	-7.44845	4.13735
18.45041	-7.40451	4.13735
18.45460	-7.38254	4.13735
18.45878	-7.33859	4.13735
18.46306	-7.33859	4.13735
18.46735	-7.31662	4.13735
18.47155	-7.27267	4.13735
18.47574	-7.25070	4.13735
18.47992	-7.20675	4.13735
18.48411	-7.20675	4.13735
18.48830	-7.18478	4.13735
18.49248	-7.14084	4.13735
18.49678	-7.11886	4.13735
18.50099	-7.09689	4.13735
18.50517	-7.05295	4.13735
18.50936	-7.00900	4.13735
18.51356	-7.00900	4.13735
18.51774	-6.96506	4.13735
18.52193	-6.94308	4.13735
18.52633	-6.92111	4.13735
18.53054	-6.89914	4.13735
18.53473	-6.85519	4.13735
18.53892	-6.81125	4.13735
18.54311	-6.81125	4.13735
18.54739	-6.78927	4.13735
18.55158	-6.76730	4.13735
18.55584	-6.72336	4.13735
18.56011	-6.70138	4.13735
18.56432	-6.65744	4.13735
18.56852	-6.65744	4.13735
18.57270	-6.61349	4.13735
18.57689	-6.59152	4.13735
18.58108	-6.56955	4.13735
18.58534	-6.52560	4.13735
18.58963	-6.50363	4.13735
18.59383	-6.48166	4.13735
18.59802	-6.48166	4.13735
18.60220	-6.43771	4.13735
18.60639	-6.41574	4.13735
18.61057	-6.39377	4.13735
18.61476	-6.34982	4.13735
18.61905	-6.34982	4.13735
18.62326	-6.32785	4.13735
18.62744	-6.28390	4.13735
18.63163	-6.26193	4.13735
18.63581	-6.21798	4.13735
18.64000	-6.19601	4.13735
18.64418	-6.19601	4.13735
18.64870	-6.17404	4.13735
18.65290	-6.15207	4.13735
18.65709	-6.10812	4.13735
18.66129	-6.08615	4.13735
18.66549	-6.06418	4.13735
18.66969	-6.04220	4.13735
18.67387	-6.04220	4.13735
18.67814	-5.99826	4.13735
18.68240	-5.97629	4.13735
18.68660	-5.95431	4.13735
18.69079	-5.93234	4.13735
18.69497	-5.93234	4.13735
18.69916	-5.88839	4.13735
18.70334	-5.86642	4.13735
18.70759	-5.84445	4.13735
18.71188	-5.82248	4.13735
18.71609	-5.80050	4.13735
18.72029	-5.75656	4.13735
18.72448	-5.75656	4.13735
18.72866	-5.73459	4.13735
18.73285	-5.73459	4.13735
18.73703	-5.69064	4.13735
18.74133	-5.66867	4.13735
18.74553	-5.64670	4.13735
18.74978	-5.62472	4.13735
18.75397	-5.62472	4.13735
18.75815	-5.60275	4.13735
18.76236	-5.58078	4.13735
18.76655	-5.55881	4.13735
18.77096	-5.53683	4.13735
18.77516	-5.51486	4.13735
18.77935	-5.51486	4.13735
18.78354	-5.49289	4.13735
18.78773	-5.47091	4.13735
18.79192	-5.44894	4.13735
18.79610	-5.42697	4.13735
18.80036	-5.40500	4.13735
18.80463	-5.40500	4.13735
18.80882	-5.38302	4.13735
18.81301	-5.36105	4.13735
18.81720	-5.33908	4.13735
18.82139	-5.31711	4.13735
18.82558	-5.29513	4.13735
18.82984	-5.29513	4.13735
18.83412	-5.29513	4.13735
18.83832	-5.25119	4.13735
18.84251	-5.25119	4.13735
18.84669	-5.22922	4.13735
18.85098	-5.20724	4.13735
18.85517	-5.20724	4.13735
18.85935	-5.20724	4.13735
18.86366	-5.18527	4.13735
18.86788	-5.16330	4.13735
18.87207	-5.14132	4.13735
18.87625	-5.11935	4.13735
18.88044	-5.11935	4.13735
18.88462	-5.11935	4.13735
18.88882	-5.09738	4.13735
18.89325	-5.07541	4.13735
18.89746	-5.07541	4.13735
18.90166	-5.05343	4.13735
18.90586	-5.05343	4.13735
18.91005	-5.03146	4.13735
18.91423	-5.03146	4.13735
18.91842	-5.03146	4.13735
18.92268	-5.00949	4.13735
18.92694	-4.98752	4.13735
18.93114	-4.98752	4.13735
18.93533	-4.98752	4.13735
18.93952	-4.96554	4.13735
18.94370	-4.96554	4.13735
18.94789	-4.94357	4.13735
18.95226	-4.94357	4.13735
18.95653	-4.92160	4.13735
18.96075	-4.92160	4.13735
18.96495	-4.92160	4.13735
18.96915	-4.89963	4.13735
18.97333	-4.89963	4.13735
18.97752	-4.87765	4.13735
18.98168	-4.87765	4.13735
18.98598	-4.87765	4.13735
18.99018	-4.87765	4.13735
18.99437	-4.85568	4.13735
18.99857	-4.85568	4.13735
19.00276	-4.83371	4.13735
19.00695	-4.85568	4.13735
19.01114	-4.83371	4.13735
19.01556	-4.83371	4.13735
19.01976	-4.83371	4.13735
19.02395	-4.83371	4.13735
19.02814	-4.81173	4.13735
19.03232	-4.81173	4.13735
19.03651	-4.81173	4.13735
19.04070	-4.81173	4.13735
19.04497	-4.81173	4.13735
19.04922	-4.81173	4.13735
19.05352	-4.78976	4.13735
19.05768	-4.78976	4.13735
19.06189	-4.78976	4.13735
19.06608	-4.78976	4.13735
19.07027	-4.78976	4.13735
19.07452	-4.78976	4.13735
19.07881	-4.78976	4.13735
19.08301	-4.78976	4.13735
19.08722	-4.78976	4.13735
19.09141	-4.76779	4.13735
19.09560	-4.76779	4.13735
19.09978	-4.78976	4.13735
19.10397	-4.78976	4.13735
19.10827	-4.78976	4.13735
19.11247	-4.78976	4.13735
19.11666	-4.78976	4.13735
19.12084	-4.78976	4.13735
19.12504	-4.78976	4.13735
19.12922	-4.78976	4.13735
19.13341	-4.78976	4.13735
19.13784	-4.81173	4.13735
19.14207	-4.78976	4.13735
19.14626	-4.78976	4.13735
19.15045	-4.78976	4.13735
19.15474	-4.81173	4.13735
19.15893	-4.81173	4.13735
19.16313	-4.81173	4.13735
19.16740	-4.81173	4.13735
19.17167	-4.81173	4.13735
19.17586	-4.81173	4.13735
19.18005	-4.83371	4.13735
19.18424	-4.83371	4.13735
19.18843	-4.83371	4.13735
19.19261	-4.83371	4.13735
19.19687	-4.83371	4.13735
19.20115	-4.85568	4.13735
19.20535	-4.85568	4.13735
19.20953	-4.87765	4.13735
19.21368	-4.87765	4.13735
19.21787	-4.87765	4.13735
19.22205	-4.89963	4.13735
19.22624	-4.89963	4.13735
19.23054	-4.89963	4.13735
19.23475	-4.92160	4.13735
19.23894	-4.92160	4.13735
19.24312	-4.94357	4.13735
19.24731	-4.94357	4.13735
19.25149	-4.94357	4.13735
19.25577	-4.94357	4.13735
19.26019	-4.94357	4.13735
19.26442	-4.96554	4.13735
19.26862	-4.96554	4.13735
19.27280	-4.98752	4.13735
19.27699	-4.98752	4.13735
19.28117	-4.98752	4.13735
19.28536	-5.00949	4.13735
19.28965	-5.00949	4.13735
19.29391	-5.03146	4.13735
19.29811	-5.03146	4.13735
19.30230	-5.05343	4.13735
19.30649	-5.05343	4.13735
19.31067	-5.05343	4.13735
19.31486	-5.07541	4.13735
19.31911	-5.07541	4.13735
19.32338	-5.09738	4.13735
19.32758	-5.11935	4.13735
19.33177	-5.11935	4.13735
19.33595	-5.11935	4.13735
19.34014	-5.11935	4.13735
19.34432	-5.14132	4.13735
19.34850	-5.16330	4.13735
19.35280	-5.16330	4.13735
19.35710	-5.18527	4.13735
19.36131	-5.18527	4.13735
19.36550	-5.18527	4.13735
19.36968	-5.20724	4.13735
19.37388	-5.20724	4.13735
19.37806	-5.22922	4.13735
19.38250	-5.25119	4.13735
19.38671	-5.25119	4.13735
19.39090	-5.25119	4.13735
19.39508	-5.27316	4.13735
19.39927	-5.29513	4.13735
19.40345	-5.29513	4.13735
19.40764	-5.29513	4.13735
19.41190	-5.31711	4.13735
19.41616	-5.31711	4.13735
19.42036	-5.33908	4.13735
19.42454	-5.36105	4.13735
19.42873	-5.36105	4.13735
19.43292	-5.38302	4.13735
19.43710	-5.38302	4.13735
19.44136	-5.38302	4.13735
19.44564	-5.40500	4.13735
19.44985	-5.42697	4.13735
19.45403	-5.42697	4.13735
19.45832	-5.44894	4.13735
19.46253	-5.44894	4.13735
19.46672	-5.44894	4.13735
19.47091	-5.47091	4.13735
19.47520	-5.47091	4.13735
19.47940	-5.49289	4.13735
19.48361	-5.51486	4.13735
19.48781	-5.51486	4.13735
19.49200	-5.51486	4.13735
19.49618	-5.53683	4.13735
19.50037	-5.55881	4.13735
19.50505	-5.55881	4.13735
19.50925	-5.58078	4.13735
19.51344	-5.58078	4.13735
19.51765	-5.60275	4.13735
19.52184	-5.60275	4.13735
19.52603	-5.62472	4.13735
19.53022	-5.62472	4.13735
19.53448	-5.64670	4.13735
19.53876	-5.66867	4.13735
19.54296	-5.66867	4.13735
19.54714	-5.66867	4.13735
19.55133	-5.69064	4.13735
19.55551	-5.71261	4.13735
19.55980	-5.71261	4.13735
19.56409	-5.73459	4.13735
19.56839	-5.73459	4.13735
19.57259	-5.73459	4.13735
19.57678	-5.75656	4.13735
19.58097	-5.77853	4.13735
19.58515	-5.77853	4.13735
19.58933	-5.80050	4.13735
19.59352	-5.80050	4.13735
19.59780	-5.82248	4.13735
19.60199	-5.82248	4.13735
19.60618	-5.82248	4.13735
19.61036	-5.84445	4.13735
19.61455	-5.86642	4.13735
19.61873	-5.86642	4.13735
19.62292	-5.86642	4.13735
19.62735	-5.88839	4.13735
19.63156	-5.91037	4.13735
19.63575	-5.91037	4.13735
19.63993	-5.93234	4.13735
19.64411	-5.93234	4.13735
19.64830	-5.93234	4.13735
19.65248	-5.95431	4.13735
19.65673	-5.95431	4.13735
19.66112	-5.97629	4.13735
19.66533	-5.97629	4.13735
19.66953	-5.99826	4.13735
19.67368	-5.99826	4.13735
19.67786	-6.02023	4.13735
19.68205	-6.02023	4.13735
19.68630	-6.04220	4.13735
19.69059	-6.04220	4.13735
19.69478	-6.06418	4.13735
19.69897	-6.08615	4.13735
19.70315	-6.08615	4.13735
19.70734	-6.08615	4.13735
19.71152	-6.10812	4.13735
19.71570	-6.10812	4.13735
19.72000	-6.10812	4.13735
19.72421	-6.13009	4.13735
19.72840	-6.13009	4.13735
19.73258	-6.13009	4.13735
19.73677	-6.15207	4.13735
19.74095	-6.15207	4.13735
19.74514	-6.17404	4.13735
19.74959	-6.17404	4.13735
19.75380	-6.17404	4.13735
19.75798	-6.19601	4.13735
19.76229	-6.19601	4.13735
19.76648	-6.21798	4.13735
19.77066	-6.21798	4.13735
19.77485	-6.23996	4.13735
19.77911	-6.23996	4.13735
19.78337	-6.23996	4.13735
19.78756	-6.26193	4.13735
19.79174	-6.26193	4.13735
19.79593	-6.26193	4.13735
19.80011	-6.28390	4.13735
19.80429	-6.30588	4.13735
19.80854	-6.30588	4.13735
19.81281	-6.30588	4.13735
19.81702	-6.32785	4.13735
19.82120	-6.32785	4.13735
19.82539	-6.32785	4.13735
19.82958	-6.34982	4.13735
19.83376	-6.34982	4.13735
19.83795	-6.34982	4.13735
19.84224	-6.37179	4.13735
19.84645	-6.37179	4.13735
19.85063	-6.37179	4.13735
19.85482	-6.39377	4.13735
19.85900	-6.39377	4.13735
19.86333	-6.39377	4.13735
19.86752	-6.41574	4.13735
19.87193	-6.41574	4.13735
19.87614	-6.41574	4.13735
19.88033	-6.43771	4.13735
19.88451	-6.43771	4.13735
19.88870	-6.43771	4.13735
19.89288	-6.43771	4.13735
19.89707	-6.45968	4.13735
19.90133	-6.45968	4.13735
19.90561	-6.45968	4.13735
19.90981	-6.48166	4.13735
19.91399	-6.48166	4.13735
19.91818	-6.48166	4.13735
19.92236	-6.50363	4.13735
19.92655	-6.50363	4.13735
19.93080	-6.50363	4.13735
19.93508	-6.50363	4.13735
19.93928	-6.52560	4.13735
19.94346	-6.54757	4.13735
19.94765	-6.54757	4.13735
19.95183	-6.54757	4.13735
19.95602	-6.54757	4.13735
19.96020	-6.56955	4.13735
19.96463	-6.56955	4.13735
19.96884	-6.56955	4.13735
19.97303	-6.56955	4.13735
19.97721	-6.56955	4.13735
19.98140	-6.59152	4.13735
19.98559	-6.59152	4.13735
19.98977	-6.59152	4.13735
19.99417	-6.59152	4.13735
19.99838	-6.59152	4.13735
20.00257	-6.61349	4.13735
20.00675	-6.61349	4.13735
20.01094	-6.61349	4.13735
20.01512	-6.61349	4.13735
20.01931	-6.61349	4.13735
20.02357	-6.63547	4.13735
20.02784	-6.63547	4.13735
20.03204	-6.63547	4.13735
20.03623	-6.63547	4.13735
20.04042	-6.63547	4.13735
20.04461	-6.63547	4.13735
20.04879	-6.65744	4.13735
20.05306	-6.65744	4.13735
20.05734	-6.65744	4.13735
20.06156	-6.65744	4.13735
20.06587	-6.65744	4.13735
20.07007	-6.65744	4.13735
20.07426	-6.65744	4.13735
20.07844	-6.67941	4.13735
20.08262	-6.67941	4.13735
20.08692	-6.67941	4.13735
20.09112	-6.67941	4.13735
20.09531	-6.67941	4.13735
20.09949	-6.67941	4.13735
20.10368	-6.67941	4.13735
20.10786	-6.67941	4.13735
20.11204	-6.67941	4.13735
20.11645	-6.67941	4.13735
20.12065	-6.67941	4.13735
20.12484	-6.67941	4.13735
20.12903	-6.67941	4.13735
20.13322	-6.67941	4.13735
20.13741	-6.67941	4.13735
20.14160	-6.67941	4.13735
20.14587	-6.67941	4.13735
20.15014	-6.67941	4.13735
20.15433	-6.67941	4.13735
20.15852	-6.67941	4.13735
20.16272	-6.67941	4.13735
20.16702	-6.67941	4.13735
20.17121	-6.67941	4.13735
20.17546	-6.67941	4.13735
20.17974	-6.67941	4.13735
20.18394	-6.67941	4.13735
20.18813	-6.67941	4.13735
20.19231	-6.67941	4.13735
20.19650	-6.67941	4.13735
20.20069	-6.65744	4.13735
20.20488	-6.65744	4.13735
20.20917	-6.67941	4.13735
20.21338	-6.65744	4.13735
20.21758	-6.65744	4.13735
20.22177	-6.65744	4.13735
20.22595	-6.65744	4.13735
20.23019	-6.65744	4.13735
20.23439	-6.65744	4.13735
20.23888	-6.65744	4.13735
20.24309	-6.65744	4.13735
20.24728	-6.65744	4.13735
20.25147	-6.63547	4.13735
20.25565	-6.63547	4.13735
20.25984	-6.63547	4.13735
20.26404	-6.63547	4.13735
20.26844	-6.63547	4.13735
20.27271	-6.63547	4.13735
20.27690	-6.61349	4.13735
20.28109	-6.61349	4.13735
20.28528	-6.61349	4.13735
20.28946	-6.61349	4.13735
20.29366	-6.61349	4.13735
20.29792	-6.59152	4.13735
20.30220	-6.61349	4.13735
20.30639	-6.59152	4.13735
20.31058	-6.59152	4.13735
20.31476	-6.59152	4.13735
20.31895	-6.59152	4.13735
20.32314	-6.56955	4.13735
20.32732	-6.56955	4.13735
20.33162	-6.56955	4.13735
20.33583	-6.56955	4.13735
20.34001	-6.56955	4.13735
20.34420	-6.56955	4.13735
20.34839	-6.54757	4.13735
20.35257	-6.54757	4.13735
20.35676	-6.54757	4.13735
20.36116	-6.54757	4.13735
20.36539	-6.54757	4.13735
20.36970	-6.54757	4.13735
20.37390	-6.52560	4.13735
20.37809	-6.52560	4.13735
20.38228	-6.52560	4.13735
20.38646	-6.50363	4.13735
20.39073	-6.50363	4.13735
20.39500	-6.50363	4.13735
20.39920	-6.50363	4.13735
20.40339	-6.50363	4.13735
20.40757	-6.50363	4.13735
20.41176	-6.50363	4.13735
20.41594	-6.50363	4.13735
20.42021	-6.48166	4.13735
20.42448	-6.48166	4.13735
20.42868	-6.48166	4.13735
20.43287	-6.48166	4.13735
20.43706	-6.48166	4.13735
20.44125	-6.45968	4.13735
20.44544	-6.45968	4.13735
20.44963	-6.45968	4.13735
20.45393	-6.45968	4.13735
20.45813	-6.43771	4.13735
20.46237	-6.43771	4.13735
20.46656	-6.43771	4.13735
20.47088	-6.43771	4.13735
20.47507	-6.43771	4.13735
20.47925	-6.43771	4.13735
20.48367	-6.41574	4.13735
20.48788	-6.43771	4.13735
20.49207	-6.43771	4.13735
20.49625	-6.43771	4.13735
20.50043	-6.41574	4.13735
20.50462	-6.41574	4.13735
20.50880	-6.39377	4.13735
20.51307	-6.39377	4.13735
20.51735	-6.39377	4.13735
20.52155	-6.39377	4.13735
20.52574	-6.39377	4.13735
20.52993	-6.39377	4.13735
20.53412	-6.37179	4.13735
20.53830	-6.39377	4.13735
20.54256	-6.37179	4.13735
20.54684	-6.37179	4.13735
20.55104	-6.37179	4.13735
20.55522	-6.37179	4.13735
20.55941	-6.37179	4.13735
20.56361	-6.37179	4.13735
20.56781	-6.34982	4.13735
20.57210	-6.34982	4.13735
20.57640	-6.37179	4.13735
20.58061	-6.37179	4.13735
20.58479	-6.34982	4.13735
20.58898	-6.34982	4.13735
20.59317	-6.34982	4.13735
20.59736	-6.34982	4.13735
20.60155	-6.34982	4.13735
20.60592	-6.34982	4.13735
20.61013	-6.34982	4.13735
20.61431	-6.32785	4.13735
20.61850	-6.32785	4.13735
20.62269	-6.32785	4.13735
20.62687	-6.32785	4.13735
20.63105	-6.32785	4.13735
20.63532	-6.30588	4.13735
20.63959	-6.32785	4.13735
20.64378	-6.32785	4.13735
20.64797	-6.30588	4.13735
20.65215	-6.30588	4.13735
20.65634	-6.30588	4.13735
20.66052	-6.30588	4.13735
20.66480	-6.30588	4.13735
20.66910	-6.28390	4.13735
20.67340	-6.28390	4.13735
20.67761	-6.28390	4.13735
20.68180	-6.28390	4.13735
20.68599	-6.28390	4.13735
20.69017	-6.28390	4.13735
20.69436	-6.28390	4.13735
20.69865	-6.28390	4.13735
20.70285	-6.28390	4.13735
20.70704	-6.26193	4.13735
20.71122	-6.26193	4.13735
20.71540	-6.26193	4.13735
20.71959	-6.26193	4.13735
20.72377	-6.26193	4.13735
20.72815	-6.26193	4.13735
20.73236	-6.26193	4.13735
20.73655	-6.23996	4.13735
20.74074	-6.23996	4.13735
20.74493	-6.23996	4.13735
20.74911	-6.21798	4.13735
20.75329	-6.23996	4.13735
20.75756	-6.23996	4.13735
20.76183	-6.21798	4.13735
20.76604	-6.21798	4.13735
20.77023	-6.21798	4.13735
20.77452	-6.21798	4.13735
20.77871	-6.21798	4.13735
20.78289	-6.21798	4.13735
20.78714	-6.21798	4.13735
20.79141	-6.21798	4.13735
20.79561	-6.19601	4.13735
20.79980	-6.19601	4.13735
20.80398	-6.19601	4.13735
20.80816	-6.19601	4.13735
20.81235	-6.19601	4.13735
20.81653	-6.19601	4.13735
20.82082	-6.19601	4.13735
20.82503	-6.19601	4.13735
20.82921	-6.17404	4.13735
20.83340	-6.17404	4.13735
20.83760	-6.17404	4.13735
20.84179	-6.17404	4.13735
20.84597	-6.17404	4.13735
20.85038	-6.17404	4.13735
20.85459	-6.17404	4.13735
20.85877	-6.17404	4.13735
20.86298	-6.17404	4.13735
20.86717	-6.17404	4.13735
20.87136	-6.17404	4.13735
20.87566	-6.17404	4.13735
20.87992	-6.15207	4.13735
20.88420	-6.17404	4.13735
20.88840	-6.17404	4.13735
20.89258	-6.17404	4.13735
20.89677	-6.15207	4.13735
20.90095	-6.17404	4.13735
20.90513	-6.15207	4.13735
20.90938	-6.15207	4.13735
20.91368	-6.15207	4.13735
20.91788	-6.15207	4.13735
20.92206	-6.15207	4.13735
20.92624	-6.15207	4.13735
20.93043	-6.15207	4.13735
20.93461	-6.15207	4.13735
20.93879	-6.15207	4.13735
20.94308	-6.15207	4.13735
20.94728	-6.15207	4.13735
20.95147	-6.15207	4.13735
20.95565	-6.17404	4.13735
20.95983	-6.15207	4.13735
20.96403	-6.15207	4.13735
20.96823	-6.15207	4.13735
20.97267	-6.15207	4.13735
20.97698	-6.15207	4.13735
20.98117	-6.15207	4.13735
20.98535	-6.15207	4.13735
20.98955	-6.15207	4.13735
20.99373	-6.15207	4.13735
20.99794	-6.15207	4.13735
21.00220	-6.13009	4.13735
21.00648	-6.15207	4.13735
21.01067	-6.15207	4.13735
21.01486	-6.15207	4.13735
21.01904	-6.15207	4.13735
21.02322	-6.15207	4.13735
21.02741	-6.13009	4.13735
21.03165	-6.15207	4.13735
21.03593	-6.15207	4.13735
21.04013	-6.13009	4.13735
21.04432	-6.13009	4.13735
21.04850	-6.13009	4.13735
21.05269	-6.13009	4.13735
21.05687	-6.15207	4.13735
21.06105	-6.15207	4.13735
21.06537	-6.13009	4.13735
21.06959	-6.13009	4.13735
21.07378	-6.13009	4.13735
21.07807	-6.15207	4.13735
21.08225	-6.13009	4.13735
21.08643	-6.15207	4.13735
21.09062	-6.15207	4.13735
21.09504	-6.13009	4.13735
21.09925	-6.15207	4.13735
21.10343	-6.15207	4.13735
21.10761	-6.13009	4.13735
21.11180	-6.13009	4.13735
21.11598	-6.15207	4.13735
21.12016	-6.15207	4.13735
21.12441	-6.15207	4.13735
21.12867	-6.15207	4.13735
21.13286	-6.15207	4.13735
21.13705	-6.15207	4.13735
21.14123	-6.13009	4.13735
21.14542	-6.15207	4.13735
21.14961	-6.13009	4.13735
21.15385	-6.13009	4.13735
21.15814	-6.13009	4.13735
21.16233	-6.13009	4.13735
21.16653	-6.13009	4.13735
21.17072	-6.15207	4.13735
21.17490	-6.13009	4.13735
21.17919	-6.13009	4.13735
21.18337	-6.13009	4.13735
21.18768	-6.15207	4.13735
21.19188	-6.13009	4.13735
21.19606	-6.15207	4.13735
21.20025	-6.13009	4.13735
21.20443	-6.13009	4.13735
21.20861	-6.15207	4.13735
21.21280	-6.13009	4.13735
21.21720	-6.13009	4.13735
21.22142	-6.13009	4.13735
21.22561	-6.13009	4.13735
21.22980	-6.13009	4.13735
21.23398	-6.13009	4.13735
21.23817	-6.13009	4.13735
21.24235	-6.13009	4.13735
21.24662	-6.15207	4.13735
21.25090	-6.13009	4.13735
21.25509	-6.13009	4.13735
21.25928	-6.13009	4.13735
21.26349	-6.13009	4.13735
21.26768	-6.13009	4.13735
21.27188	-6.13009	4.13735
21.27615	-6.13009	4.13735
21.28054	-6.13009	4.13735
21.28474	-6.13009	4.13735
21.28892	-6.13009	4.13735
21.29311	-6.13009	4.13735
21.29729	-6.13009	4.13735
21.30147	-6.13009	4.13735
21.30567	-6.13009	4.13735
21.30996	-6.13009	4.13735
21.31416	-6.13009	4.13735
21.31835	-6.13009	4.13735
21.32255	-6.15207	4.13735
21.32674	-6.15207	4.13735
21.33093	-6.13009	4.13735
21.33512	-6.13009	4.13735
21.33953	-6.13009	4.13735
21.34373	-6.15207	4.13735
21.34792	-6.13009	4.13735
21.35210	-6.13009	4.13735
21.35630	-6.13009	4.13735
21.36048	-6.13009	4.13735
21.36468	-6.13009	4.13735
21.36895	-6.15207	4.13735
21.37326	-6.13009	4.13735
21.37747	-6.13009	4.13735
21.38181	-6.15207	4.13735
21.38600	-6.13009	4.13735
21.39019	-6.13009	4.13735
21.39438	-6.13009	4.13735
21.39867	-6.15207	4.13735
21.40297	-6.13009	4.13735
21.40717	-6.13009	4.13735
21.41136	-6.15207	4.13735
21.41555	-6.13009	4.13735
21.41974	-6.13009	4.13735
21.42393	-6.15207	4.13735
21.42812	-6.13009	4.13735
21.43243	-6.15207	4.13735
21.43664	-6.13009	4.13735
21.44083	-6.13009	4.13735
21.44502	-6.13009	4.13735
21.44922	-6.13009	4.13735
21.45341	-6.13009	4.13735
21.45761	-6.13009	4.13735
21.46203	-6.13009	4.13735
21.46627	-6.13009	4.13735
21.47047	-6.13009	4.13735
21.47467	-6.13009	4.13735
21.47887	-6.13009	4.13735
21.48317	-6.13009	4.13735
21.48736	-6.13009	4.13735
21.49164	-6.10812	4.13735
21.49590	-6.10812	4.13735
21.50010	-6.10812	4.13735
21.50428	-6.10812	4.13735
21.50847	-6.10812	4.13735
21.51266	-6.10812	4.13735
21.51684	-6.10812	4.13735
21.52110	-6.10812	4.13735
21.52538	-6.10812	4.13735
21.52959	-6.10812	4.13735
21.53378	-6.10812	4.13735
21.53796	-6.08615	4.13735
21.54215	-6.10812	4.13735
21.54633	-6.08615	4.13735
21.55051	-6.08615	4.13735
21.55481	-6.08615	4.13735
21.55901	-6.08615	4.13735
21.56319	-6.08615	4.13735
21.56739	-6.08615	4.13735
21.57159	-6.08615	4.13735
21.57578	-6.08615	4.13735
21.57996	-6.06418	4.13735
21.58450	-6.06418	4.13735
21.58871	-6.06418	4.13735
21.59289	-6.08615	4.13735
21.59708	-6.06418	4.13735
21.60126	-6.06418	4.13735
21.60545	-6.06418	4.13735
21.60964	-6.06418	4.13735
21.61391	-6.06418	4.13735
21.61818	-6.04220	4.13735
21.62237	-6.06418	4.13735
21.62656	-6.06418	4.13735
21.63075	-6.06418	4.13735
21.63493	-6.06418	4.13735
21.63911	-6.04220	4.13735
21.64337	-6.04220	4.13735
21.64764	-6.04220	4.13735
21.65184	-6.04220	4.13735
21.65603	-6.04220	4.13735
21.66021	-6.04220	4.13735
21.66442	-6.04220	4.13735
21.66861	-6.02023	4.13735
21.67279	-6.04220	4.13735
21.67710	-6.02023	4.13735
21.68131	-6.02023	4.13735
21.68562	-6.02023	4.13735
21.68981	-6.02023	4.13735
21.69399	-6.02023	4.13735
21.69817	-6.02023	4.13735
21.70236	-6.02023	4.13735
21.70677	-6.02023	4.13735
21.71097	-5.99826	4.13735
21.71516	-6.02023	4.13735
21.71935	-5.99826	4.13735
21.72353	-5.99826	4.13735
21.72772	-5.99826	4.13735
21.73190	-5.99826	4.13735
21.73615	-5.99826	4.13735
21.74042	-5.99826	4.13735
21.74461	-5.99826	4.13735
21.74880	-5.99826	4.13735
21.75298	-5.99826	4.13735
21.75717	-5.99826	4.13735
21.76135	-5.99826	4.13735
21.76564	-5.99826	4.13735
21.76993	-5.99826	4.13735
21.77413	-5.97629	4.13735
21.77832	-5.97629	4.13735
21.78251	-5.97629	4.13735
21.78679	-5.97629	4.13735
21.79098	-5.97629	4.13735
21.79516	-5.97629	4.13735
21.79947	-5.97629	4.13735
21.80368	-5.97629	4.13735
21.80786	-5.97629	4.13735
21.81205	-5.97629	4.13735
21.81623	-5.97629	4.13735
21.82042	-5.97629	4.13735
21.82460	-5.97629	4.13735
21.82901	-5.97629	4.13735
21.83322	-5.97629	4.13735
21.83740	-5.97629	4.13735
21.84160	-5.97629	4.13735
21.84578	-5.97629	4.13735
21.84998	-5.97629	4.13735
21.85416	-5.97629	4.13735
21.85843	-5.97629	4.13735
21.86268	-5.97629	4.13735
21.86689	-5.97629	4.13735
21.87109	-5.97629	4.13735
21.87528	-5.97629	4.13735
21.87946	-5.95431	4.13735
21.88365	-5.97629	4.13735
21.88802	-5.97629	4.13735
21.89230	-5.97629	4.13735
21.89650	-5.97629	4.13735
21.90068	-5.97629	4.13735
21.90487	-5.97629	4.13735
21.90906	-5.97629	4.13735
21.91325	-5.97629	4.13735
21.91743	-5.97629	4.13735
21.92175	-5.97629	4.13735
21.92595	-5.97629	4.13735
21.93013	-5.97629	4.13735
21.93432	-5.97629	4.13735
21.93850	-5.97629	4.13735
21.94268	-5.97629	4.13735
21.94687	-5.97629	4.13735
21.95127	-5.97629	4.13735
21.95548	-5.97629	4.13735
21.95966	-5.97629	4.13735
21.96385	-5.97629	4.13735
21.96805	-5.97629	4.13735
21.97224	-5.97629	4.13735
21.97642	-5.95431	4.13735
21.98068	-5.97629	4.13735
21.98495	-5.97629	4.13735
21.98926	-5.97629	4.13735
21.99345	-5.97629	4.13735
21.99765	-5.97629	4.13735
22.00184	-5.97629	4.13735
22.00603	-5.97629	4.13735
22.01029	-5.97629	4.13735
22.01457	-5.97629	4.13735
22.01877	-5.97629	4.13735
22.02296	-5.97629	4.13735
22.02715	-5.97629	4.13735
22.03134	-5.95431	4.13735
22.03553	-5.97629	4.13735
22.03972	-5.97629	4.13735
22.04402	-5.95431	4.13735
22.04823	-5.97629	4.13735
22.05243	-5.97629	4.13735
22.05662	-5.95431	4.13735
22.06081	-5.95431	4.13735
22.06502	-5.95431	4.13735
22.06921	-5.95431	4.13735
22.07363	-5.97629	4.13735
22.07784	-5.95431	4.13735
22.08203	-5.95431	4.13735
22.08622	-5.95431	4.13735
22.09052	-5.95431	4.13735
22.09471	-5.95431	4.13735
22.09890	-5.95431	4.13735
22.10319	-5.95431	4.13735
22.10745	-5.95431	4.13735
22.11164	-5.95431	4.13735
22.11583	-5.95431	4.13735
22.12002	-5.95431	4.13735
22.12421	-5.95431	4.13735
22.12840	-5.95431	4.13735
22.13265	-5.95431	4.13735
22.13693	-5.93234	4.13735
22.14113	-5.93234	4.13735
22.14532	-5.93234	4.13735
22.14951	-5.93234	4.13735
22.15368	-5.93234	4.13735
22.15787	-5.93234	4.13735
22.16206	-5.93234	4.13735
22.16639	-5.93234	4.13735
22.17060	-5.93234	4.13735
22.17480	-5.93234	4.13735
22.17899	-5.93234	4.13735
22.18318	-5.93234	4.13735
22.18737	-5.93234	4.13735
22.19167	-5.93234	4.13735
22.19607	-5.93234	4.13735
22.20028	-5.93234	4.13735
22.20447	-5.93234	4.13735
22.20866	-5.93234	4.13735
22.21284	-5.93234	4.13735
22.21703	-5.91037	4.13735
22.22125	-5.91037	4.13735
22.22557	-5.93234	4.13735
22.22984	-5.91037	4.13735
22.23403	-5.91037	4.13735
22.23823	-5.91037	4.13735
22.24243	-5.91037	4.13735
22.24662	-5.91037	4.13735
22.25081	-5.91037	4.13735
22.25508	-5.91037	4.13735
22.25936	-5.91037	4.13735
22.26359	-5.91037	4.13735
22.26780	-5.91037	4.13735
22.27201	-5.91037	4.13735
22.27620	-5.91037	4.13735
22.28039	-5.91037	4.13735
22.28459	-5.91037	4.13735
22.28890	-5.91037	4.13735
22.29322	-5.91037	4.13735
22.29742	-5.91037	4.13735
22.30162	-5.91037	4.13735
22.30581	-5.91037	4.13735
22.31000	-5.88839	4.13735
22.31419	-5.88839	4.13735
22.31859	-5.91037	4.13735
22.32280	-5.88839	4.13735
22.32699	-5.91037	4.13735
22.33118	-5.91037	4.13735
22.33538	-5.88839	4.13735
22.33957	-5.91037	4.13735
22.34379	-5.91037	4.13735
22.34808	-5.91037	4.13735
22.35235	-5.91037	4.13735
22.35655	-5.91037	4.13735
22.36074	-5.91037	4.13735
22.36495	-5.91037	4.13735
22.36915	-5.91037	4.13735
22.37335	-5.91037	4.13735
22.37764	-5.91037	4.13735
22.38194	-5.91037	4.13735
22.38615	-5.91037	4.13735
22.39034	-5.91037	4.13735
22.39464	-5.91037	4.13735
22.39883	-5.91037	4.13735
22.40302	-5.91037	4.13735
22.40721	-5.91037	4.13735
22.41152	-5.91037	4.13735
22.41573	-5.91037	4.13735
22.41993	-5.91037	4.13735
22.42412	-5.91037	4.13735
22.42830	-5.91037	4.13735
22.43249	-5.91037	4.13735
22.43668	-5.91037	4.13735
22.44105	-5.93234	4.13735
22.44526	-5.93234	4.13735
22.44946	-5.93234	4.13735
22.45366	-5.93234	4.13735
22.45785	-5.93234	4.13735
22.46204	-5.93234	4.13735
22.46625	-5.93234	4.13735
22.47056	-5.93234	4.13735
22.47484	-5.93234	4.13735
22.47904	-5.93234	4.13735
22.48323	-5.93234	4.13735
22.48742	-5.95431	4.13735
22.49161	-5.93234	4.13735
22.49592	-5.93234	4.13735
22.50018	-5.95431	4.13735
22.50446	-5.95431	4.13735
22.50866	-5.95431	4.13735
22.51286	-5.95431	4.13735
22.51705	-5.95431	4.13735
22.52124	-5.95431	4.13735
22.52543	-5.95431	4.13735
22.52963	-5.95431	4.13735
22.53394	-5.95431	4.13735
22.53814	-5.95431	4.13735
22.54233	-5.95431	4.13735
22.54652	-5.97629	4.13735
22.55071	-5.97629	4.13735
22.55491	-5.97629	4.13735
22.55910	-5.97629	4.13735
22.56348	-5.97629	4.13735
22.56771	-5.97629	4.13735
22.57191	-5.97629	4.13735
22.57611	-5.97629	4.13735
22.58032	-5.97629	4.13735
22.58451	-5.99826	4.13735
22.58871	-5.97629	4.13735
22.59301	-5.97629	4.13735
22.59740	-5.99826	4.13735
22.60161	-5.97629	4.13735
22.60580	-5.99826	4.13735
22.60999	-5.99826	4.13735
22.61418	-5.99826	4.13735
22.61837	-5.99826	4.13735
22.62263	-5.99826	4.13735
22.62691	-5.99826	4.13735
22.63112	-5.99826	4.13735
22.63531	-6.02023	4.13735
22.63951	-6.02023	4.13735
22.64370	-5.99826	4.13735
22.64789	-5.99826	4.13735
22.65208	-5.99826	4.13735
22.65638	-5.99826	4.13735
22.66059	-6.02023	4.13735
22.66478	-6.02023	4.13735
22.66899	-6.02023	4.13735
22.67318	-6.02023	4.13735
22.67737	-6.02023	4.13735
22.68157	-6.02023	4.13735
22.68598	-6.02023	4.13735
22.69019	-6.02023	4.13735
22.69438	-6.02023	4.13735
22.69868	-6.02023	4.13735
22.70286	-6.02023	4.13735
22.70704	-6.02023	4.13735
22.71123	-6.02023	4.13735
22.71549	-6.02023	4.13735
22.71975	-6.02023	4.13735
22.72394	-6.02023	4.13735
22.72813	-6.02023	4.13735
22.73231	-5.99826	4.13735
22.73650	-6.02023	4.13735
22.74068	-6.02023	4.13735
22.74494	-6.02023	4.13735
22.74922	-6.02023	4.13735
22.75343	-6.02023	4.13735
22.75763	-6.02023	4.13735
22.76182	-6.02023	4.13735
22.76602	-6.02023	4.13735
22.77021	-6.02023	4.13735
22.77440	-6.02023	4.13735
22.77870	-6.02023	4.13735
22.78290	-6.02023	4.13735
22.78709	-6.02023	4.13735
22.79127	-6.02023	4.13735
22.79546	-6.02023	4.13735
22.79975	-6.02023	4.13735
22.80393	-5.99826	4.13735
22.80833	-5.99826	4.13735
22.81254	-5.99826	4.13735
22.81673	-5.99826	4.13735
22.82091	-5.99826	4.13735
22.82509	-6.02023	4.13735
22.82928	-5.99826	4.13735
22.83346	-5.99826	4.13735
22.83774	-5.99826	4.13735
22.84200	-5.99826	4.13735
22.84619	-5.99826	4.13735
22.85038	-5.99826	4.13735
22.85457	-5.99826	4.13735
22.85875	-5.99826	4.13735
22.86293	-5.99826	4.13735
22.86722	-5.99826	4.13735
22.87151	-5.99826	4.13735
22.87572	-5.99826	4.13735
22.87991	-5.97629	4.13735
22.88409	-5.99826	4.13735
22.88828	-5.99826	4.13735
22.89246	-5.97629	4.13735
22.89665	-5.97629	4.13735
22.90105	-5.97629	4.13735
22.90524	-5.97629	4.13735
22.90943	-5.97629	4.13735
22.91362	-5.97629	4.13735
22.91781	-5.97629	4.13735
22.92199	-5.97629	4.13735
22.92618	-5.97629	4.13735
22.93058	-5.97629	4.13735
22.93479	-5.97629	4.13735
22.93897	-5.97629	4.13735
22.94315	-5.95431	4.13735
22.94734	-5.95431	4.13735
22.95152	-5.95431	4.13735
22.95571	-5.95431	4.13735
22.95997	-5.95431	4.13735
22.96424	-5.95431	4.13735
22.96845	-5.95431	4.13735
22.97266	-5.95431	4.13735
22.97685	-5.93234	4.13735
22.98104	-5.93234	4.13735
22.98524	-5.95431	4.13735
22.98952	-5.93234	4.13735
22.99378	-5.93234	4.13735
22.99802	-5.93234	4.13735
23.00232	-5.93234	4.13735
23.00651	-5.93234	4.13735
23.01069	-5.93234	4.13735
23.01488	-5.93234	4.13735
23.01906	-5.93234	4.13735
23.02336	-5.93234	4.13735
23.02757	-5.93234	4.13735
23.03176	-5.93234	4.13735
23.03594	-5.93234	4.13735
23.04013	-5.93234	4.13735
23.04431	-5.91037	4.13735
23.04849	-5.91037	4.13735
23.05289	-5.91037	4.13735
23.05710	-5.91037	4.13735
23.06128	-5.91037	4.13735
23.06547	-5.91037	4.13735
23.06968	-5.91037	4.13735
23.07389	-5.91037	4.13735
23.07809	-5.91037	4.13735
23.08288	-5.88839	4.13735
23.08719	-5.88839	4.13735
23.09147	-5.91037	4.13735
23.09568	-5.88839	4.13735
23.09989	-5.88839	4.13735
23.10419	-5.88839	4.13735
23.10838	-5.88839	4.13735
23.11266	-5.91037	4.13735
23.11696	-5.91037	4.13735
23.12117	-5.88839	4.13735
23.12536	-5.88839	4.13735
23.12956	-5.88839	4.13735
23.13375	-5.88839	4.13735
23.13794	-5.88839	4.13735
23.14212	-5.88839	4.13735
23.14641	-5.88839	4.13735
23.15061	-5.86642	4.13735
23.15479	-5.86642	4.13735
23.15899	-5.86642	4.13735
23.16317	-5.86642	4.13735
23.16735	-5.86642	4.13735
23.17154	-5.86642	4.13735
23.17595	-5.86642	4.13735
23.18016	-5.86642	4.13735
23.18435	-5.86642	4.13735
23.18854	-5.86642	4.13735
23.19272	-5.86642	4.13735
23.19691	-5.86642	4.13735
23.20109	-5.84445	4.13735
23.20547	-5.84445	4.13735
23.20973	-5.84445	4.13735
23.21393	-5.84445	4.13735
23.21811	-5.84445	4.13735
23.22230	-5.84445	4.13735
23.22648	-5.84445	4.13735
23.23066	-5.84445	4.13735
23.23490	-5.84445	4.13735
23.23918	-5.84445	4.13735
23.24338	-5.84445	4.13735
23.24757	-5.84445	4.13735
23.25175	-5.84445	4.13735
23.25593	-5.84445	4.13735
23.26012	-5.84445	4.13735
23.26431	-5.84445	4.13735
23.26861	-5.82248	4.13735
23.27281	-5.84445	4.13735
23.27700	-5.84445	4.13735
23.28118	-5.82248	4.13735
23.28536	-5.82248	4.13735
23.28956	-5.84445	4.13735
23.29374	-5.82248	4.13735
23.29818	-5.82248	4.13735
23.30238	-5.82248	4.13735
23.30667	-5.82248	4.13735
23.31085	-5.82248	4.13735
23.31504	-5.82248	4.13735
23.31922	-5.82248	4.13735
23.32341	-5.82248	4.13735
23.32768	-5.82248	4.13735
23.33196	-5.82248	4.13735
23.33616	-5.82248	4.13735
23.34035	-5.82248	4.13735
23.34453	-5.84445	4.13735
23.34871	-5.82248	4.13735
23.35290	-5.82248	4.13735
23.35716	-5.82248	4.13735
23.36145	-5.82248	4.13735
23.36566	-5.82248	4.13735
23.36985	-5.82248	4.13735
23.37404	-5.82248	4.13735
23.37823	-5.82248	4.13735
23.38241	-5.82248	4.13735
23.38660	-5.82248	4.13735
23.39091	-5.82248	4.13735
23.39511	-5.84445	4.13735
23.39930	-5.84445	4.13735
23.40348	-5.84445	4.13735
23.40776	-5.84445	4.13735
23.41195	-5.84445	4.13735
23.41613	-5.84445	4.13735
23.42055	-5.84445	4.13735
23.42475	-5.84445	4.13735
23.42894	-5.84445	4.13735
23.43312	-5.84445	4.13735
23.43731	-5.84445	4.13735
23.44149	-5.84445	4.13735
23.44567	-5.84445	4.13735
23.44993	-5.84445	4.13735
23.45420	-5.84445	4.13735
23.45839	-5.84445	4.13735
23.46258	-5.84445	4.13735
23.46676	-5.84445	4.13735
23.47094	-5.86642	4.13735
23.47513	-5.86642	4.13735
23.47938	-5.86642	4.13735
23.48367	-5.86642	4.13735
23.48786	-5.86642	4.13735
23.49205	-5.86642	4.13735
23.49623	-5.86642	4.13735
23.50041	-5.88839	4.13735
23.50459	-5.88839	4.13735
23.50888	-5.88839	4.13735
23.51317	-5.88839	4.13735
23.51738	-5.88839	4.13735
23.52157	-5.88839	4.13735
23.52575	-5.88839	4.13735
23.52994	-5.88839	4.13735
23.53412	-5.88839	4.13735
23.53830	-5.88839	4.13735
23.54271	-5.88839	4.13735
23.54692	-5.91037	4.13735
23.55110	-5.91037	4.13735
23.55529	-5.91037	4.13735
23.55947	-5.91037	4.13735
23.56365	-5.91037	4.13735
23.56784	-5.91037	4.13735
23.57210	-5.91037	4.13735
23.57637	-5.91037	4.13735
23.58056	-5.93234	4.13735
23.58475	-5.93234	4.13735
23.58893	-5.93234	4.13735
23.59312	-5.91037	4.13735
23.59730	-5.93234	4.13735
23.60157	-5.93234	4.13735
23.60586	-5.95431	4.13735
23.61016	-5.93234	4.13735
23.61434	-5.93234	4.13735
23.61853	-5.93234	4.13735
23.62271	-5.93234	4.13735
23.62690	-5.93234	4.13735
23.63108	-5.95431	4.13735
23.63537	-5.93234	4.13735
23.63957	-5.95431	4.13735
23.64376	-5.95431	4.13735
23.64794	-5.95431	4.13735
23.65213	-5.95431	4.13735
23.65631	-5.95431	4.13735
23.66049	-5.95431	4.13735
23.66487	-5.95431	4.13735
23.66908	-5.95431	4.13735
23.67327	-5.95431	4.13735
23.67745	-5.95431	4.13735
23.68164	-5.95431	4.13735
23.68583	-5.97629	4.13735
23.69001	-5.97629	4.13735
23.69428	-5.95431	4.13735
23.69854	-5.95431	4.13735
23.70273	-5.97629	4.13735
23.70691	-5.97629	4.13735
23.71120	-5.97629	4.13735
23.71538	-5.97629	4.13735
23.71956	-5.97629	4.13735
23.72381	-5.97629	4.13735
23.72810	-5.97629	4.13735
23.73230	-5.97629	4.13735
23.73649	-5.97629	4.13735
23.74067	-5.97629	4.13735
23.74486	-5.97629	4.13735
23.74904	-5.97629	4.13735
23.75322	-5.97629	4.13735
23.75752	-5.99826	4.13735
23.76170	-5.97629	4.13735
23.76589	-5.99826	4.13735
23.77008	-5.99826	4.13735
23.77426	-5.99826	4.13735
23.77845	-5.99826	4.13735
23.78263	-5.99826	4.13735
23.78701	-5.99826	4.13735
23.79122	-5.99826	4.13735
23.79540	-5.99826	4.13735
23.79959	-5.99826	4.13735
23.80377	-5.99826	4.13735
23.80796	-5.99826	4.13735
23.81224	-5.99826	4.13735
23.81651	-5.99826	4.13735
23.82077	-5.99826	4.13735
23.82496	-5.99826	4.13735
23.82915	-5.99826	4.13735
23.83333	-5.99826	4.13735
23.83752	-5.99826	4.13735
23.84168	-5.99826	4.13735
23.84593	-5.99826	4.13735
23.85021	-5.99826	4.13735
23.85441	-5.99826	4.13735
23.85859	-5.99826	4.13735
23.86278	-5.99826	4.13735
23.86699	-5.99826	4.13735
23.87118	-5.99826	4.13735
23.87538	-6.02023	4.13735
23.87967	-6.02023	4.13735
23.88388	-5.99826	4.13735
23.88807	-6.02023	4.13735
23.89225	-6.02023	4.13735
23.89644	-5.99826	4.13735
23.90062	-6.02023	4.13735
23.90480	-6.02023	4.13735
23.90918	-6.02023	4.13735
23.91349	-5.99826	4.13735
23.91768	-6.02023	4.13735
23.92186	-6.02023	4.13735
23.92605	-6.02023	4.13735
23.93023	-6.02023	4.13735
23.93442	-6.02023	4.13735
23.93869	-6.02023	4.13735
23.94295	-6.02023	4.13735
23.94715	-6.02023	4.13735
23.95133	-6.02023	4.13735
23.95552	-6.02023	4.13735
23.95970	-6.02023	4.13735
23.96390	-6.02023	4.13735
23.96815	-6.02023	4.13735
23.97242	-6.02023	4.13735
23.97662	-6.02023	4.13735
23.98081	-6.02023	4.13735
23.98499	-6.02023	4.13735
23.98918	-6.02023	4.13735
23.99338	-6.02023	4.13735
23.99789	-5.99826	4.13735
24.00227	-5.99826	4.13735
24.00649	-6.02023	4.13735
24.01070	-6.02023	4.13735
24.01506	-5.99826	4.13735
24.01929	-6.02023	4.13735
24.02352	-6.02023	4.13735
24.02775	-6.02023	4.13735
24.03228	-6.02023	4.13735
24.03650	-6.02023	4.13735
24.04069	-6.02023	4.13735
24.04495	-5.99826	4.13735
24.04919	-5.99826	4.13735
24.05340	-5.99826	4.13735
24.05760	-5.99826	4.13735
24.06202	-5.99826	4.13735
24.06631	-5.99826	4.13735
24.07048	-5.99826	4.13735
24.07467	-5.99826	4.13735
24.07886	-5.99826	4.13735
24.08305	-5.99826	4.13735
24.08723	-5.99826	4.13735
24.09269	-5.99826	4.13735
24.09698	-5.99826	4.13735
24.10118	-5.99826	4.13735
24.10536	-5.99826	4.13735
24.10960	-5.97629	4.13735
24.11381	-5.99826	4.13735
24.11811	-5.99826	4.13735
24.12260	-5.99826	4.13735
24.12686	-5.99826	4.13735
24.13111	-5.99826	4.13735
24.13528	-5.99826	4.13735
24.13949	-5.99826	4.13735
24.14367	-5.99826	4.13735
24.14785	-5.97629	4.13735
24.15202	-5.97629	4.13735
24.15632	-5.97629	4.13735
24.16052	-5.97629	4.13735
24.16471	-5.97629	4.13735
24.16890	-5.97629	4.13735
24.17318	-5.97629	4.13735
24.17738	-5.97629	4.13735
24.18161	-5.97629	4.13735
24.18596	-5.97629	4.13735
24.19021	-5.97629	4.13735
24.19440	-5.97629	4.13735
24.19860	-5.95431	4.13735
24.20280	-5.97629	4.13735
24.20699	-5.95431	4.13735
24.21117	-5.95431	4.13735
24.21546	-5.95431	4.13735
24.21982	-5.95431	4.13735
24.22402	-5.95431	4.13735
24.22820	-5.95431	4.13735
24.23240	-5.95431	4.13735
24.23660	-5.95431	4.13735
24.24078	-5.95431	4.13735
24.24507	-5.95431	4.13735
24.24935	-5.95431	4.13735
24.25359	-5.93234	4.13735
24.25778	-5.93234	4.13735
24.26201	-5.93234	4.13735
24.26623	-5.93234	4.13735
24.27044	-5.93234	4.13735
24.27465	-5.93234	4.13735
24.27904	-5.93234	4.13735
24.28327	-5.93234	4.13735
24.28746	-5.93234	4.13735
24.29165	-5.93234	4.13735
24.29584	-5.93234	4.13735
24.30004	-5.91037	4.13735
24.30422	-5.91037	4.13735
24.30851	-5.91037	4.13735
24.31283	-5.91037	4.13735
24.31705	-5.91037	4.13735
24.32134	-5.91037	4.13735
24.32553	-5.91037	4.13735
24.32969	-5.91037	4.13735
24.33390	-5.91037	4.13735
24.33817	-5.91037	4.13735
24.34244	-5.91037	4.13735
24.34673	-5.91037	4.13735
24.35093	-5.88839	4.13735
24.35512	-5.88839	4.13735
24.35931	-5.91037	4.13735
24.36354	-5.91037	4.13735
24.36790	-5.88839	4.13735
24.37220	-5.88839	4.13735
24.37643	-5.88839	4.13735
24.38068	-5.91037	4.13735
24.38488	-5.88839	4.13735
24.38908	-5.88839	4.13735
24.39326	-5.88839	4.13735
24.39750	-5.88839	4.13735
24.40182	-5.88839	4.13735
24.40604	-5.88839	4.13735
24.41026	-5.88839	4.13735
24.41449	-5.88839	4.13735
24.41868	-5.88839	4.13735
24.42298	-5.88839	4.13735
24.42719	-5.88839	4.13735
24.43155	-5.88839	4.13735
24.43579	-5.88839	4.13735
24.43998	-5.88839	4.13735
24.44419	-5.88839	4.13735
24.44842	-5.88839	4.13735
24.45261	-5.88839	4.13735
24.45680	-5.88839	4.13735
24.46116	-5.88839	4.13735
24.46549	-5.86642	4.13735
24.46973	-5.88839	4.13735
24.47397	-5.86642	4.13735
24.47816	-5.86642	4.13735
24.48237	-5.88839	4.13735
24.48656	-5.88839	4.13735
24.49075	-5.88839	4.13735
24.49503	-5.88839	4.13735
24.49929	-5.86642	4.13735
24.50348	-5.86642	4.13735
24.50767	-5.86642	4.13735
24.51186	-5.86642	4.13735
24.51604	-5.86642	4.13735
24.52023	-5.86642	4.13735
24.52480	-5.86642	4.13735
24.52901	-5.86642	4.13735
24.53319	-5.86642	4.13735
24.53738	-5.86642	4.13735
24.54157	-5.86642	4.13735
24.54579	-5.88839	4.13735
24.54998	-5.86642	4.13735
24.55425	-5.86642	4.13735
24.55852	-5.86642	4.13735
24.56272	-5.86642	4.13735
24.56691	-5.86642	4.13735
24.57111	-5.86642	4.13735
24.57530	-5.86642	4.13735
24.57949	-5.86642	4.13735
24.58368	-5.86642	4.13735
24.58799	-5.86642	4.13735
24.59220	-5.86642	4.13735
24.59639	-5.86642	4.13735
24.60057	-5.86642	4.13735
24.60476	-5.86642	4.13735
24.60894	-5.86642	4.13735
24.61313	-5.86642	4.13735
24.61764	-5.86642	4.13735
24.62185	-5.86642	4.13735
24.62615	-5.86642	4.13735
24.63034	-5.86642	4.13735
24.63452	-5.86642	4.13735
24.63871	-5.86642	4.13735
24.64289	-5.86642	4.13735
24.64715	-5.86642	4.13735
24.65143	-5.86642	4.13735
24.65562	-5.86642	4.13735
24.65980	-5.86642	4.13735
24.66399	-5.86642	4.13735
24.66819	-5.86642	4.13735
24.67239	-5.86642	4.13735
24.67658	-5.86642	4.13735
24.68090	-5.84445	4.13735
24.68511	-5.86642	4.13735
24.68929	-5.86642	4.13735
24.69348	-5.86642	4.13735
24.69768	-5.86642	4.13735
24.70187	-5.86642	4.13735
24.70606	-5.86642	4.13735
24.71034	-5.86642	4.13735
24.71463	-5.86642	4.13735
24.71882	-5.86642	4.13735
24.72301	-5.86642	4.13735
24.72730	-5.86642	4.13735
24.73149	-5.86642	4.13735
24.73569	-5.86642	4.13735
24.73997	-5.86642	4.13735
24.74421	-5.86642	4.13735
24.74846	-5.86642	4.13735
24.75265	-5.86642	4.13735
24.75684	-5.86642	4.13735
24.76102	-5.84445	4.13735
24.76522	-5.86642	4.13735
24.76942	-5.86642	4.13735
24.77373	-5.86642	4.13735
24.77795	-5.84445	4.13735
24.78216	-5.86642	4.13735
24.78635	-5.86642	4.13735
24.79054	-5.86642	4.13735
24.79472	-5.84445	4.13735
24.79892	-5.84445	4.13735
24.80335	-5.84445	4.13735
24.80757	-5.84445	4.13735
24.81178	-5.84445	4.13735
24.81598	-5.84445	4.13735
24.82016	-5.84445	4.13735
24.82435	-5.84445	4.13735
24.82865	-5.84445	4.13735
24.83291	-5.84445	4.13735
24.83717	-5.82248	4.13735
24.84138	-5.84445	4.13735
24.84559	-5.84445	4.13735
24.84978	-5.82248	4.13735
24.85396	-5.82248	4.13735
24.85815	-5.82248	4.13735
24.86236	-5.82248	4.13735
24.86665	-5.82248	4.13735
24.87088	-5.84445	4.13735
24.87509	-5.82248	4.13735
24.87930	-5.82248	4.13735
24.88349	-5.82248	4.13735
24.88767	-5.82248	4.13735
24.89186	-5.82248	4.13735
24.89617	-5.82248	4.13735
24.90041	-5.80050	4.13735
24.90459	-5.82248	4.13735
24.90879	-5.82248	4.13735
24.91298	-5.82248	4.13735
24.91717	-5.80050	4.13735
24.92136	-5.82248	4.13735
24.92560	-5.80050	4.13735
24.92999	-5.80050	4.13735
24.93419	-5.80050	4.13735
24.93838	-5.80050	4.13735
24.94256	-5.80050	4.13735
24.94675	-5.80050	4.13735
24.95093	-5.77853	4.13735
24.95512	-5.77853	4.13735
24.95940	-5.77853	4.13735
24.96362	-5.77853	4.13735
24.96781	-5.77853	4.13735
24.97202	-5.77853	4.13735
24.97621	-5.77853	4.13735
24.98040	-5.77853	4.13735
24.98459	-5.77853	4.13735
24.98884	-5.77853	4.13735
24.99309	-5.77853	4.13735
24.99731	-5.77853	4.13735
25.00150	-5.77853	4.13735
25.00568	-5.75656	4.13735
25.00987	-5.75656	4.13735
25.01406	-5.75656	4.13735
25.01824	-5.75656	4.13735
25.02255	-5.75656	4.13735
25.02675	-5.75656	4.13735
25.03105	-5.75656	4.13735
25.03523	-5.73459	4.13735
25.03942	-5.73459	4.13735
25.04360	-5.73459	4.13735
25.04779	-5.73459	4.13735
25.05205	-5.73459	4.13735
25.05632	-5.73459	4.13735
25.06051	-5.73459	4.13735
25.06470	-5.73459	4.13735
25.06891	-5.73459	4.13735
25.07310	-5.73459	4.13735
25.07730	-5.71261	4.13735
25.08149	-5.73459	4.13735
25.08580	-5.71261	4.13735
25.09001	-5.71261	4.13735
25.09419	-5.71261	4.13735
25.09838	-5.71261	4.13735
25.10256	-5.71261	4.13735
25.10675	-5.71261	4.13735
25.11093	-5.71261	4.13735
25.11520	-5.69064	4.13735
25.11947	-5.69064	4.13735
25.12366	-5.69064	4.13735
25.12784	-5.69064	4.13735
25.13214	-5.69064	4.13735
25.13633	-5.69064	4.13735
25.14051	-5.69064	4.13735
25.14470	-5.69064	4.13735
25.14900	-5.69064	4.13735
25.15322	-5.66867	4.13735
25.15741	-5.66867	4.13735
25.16161	-5.66867	4.13735
25.16580	-5.66867	4.13735
25.17000	-5.66867	4.13735
25.17419	-5.66867	4.13735
25.17848	-5.66867	4.13735
25.18275	-5.64670	4.13735
25.18695	-5.66867	4.13735
25.19114	-5.64670	4.13735
25.19533	-5.64670	4.13735
25.19952	-5.64670	4.13735
25.20371	-5.64670	4.13735
25.20789	-5.62472	4.13735
25.21219	-5.64670	4.13735
25.21640	-5.64670	4.13735
25.22059	-5.62472	4.13735
25.22478	-5.62472	4.13735
25.22896	-5.62472	4.13735
25.23325	-5.62472	4.13735
25.23744	-5.62472	4.13735
25.24171	-5.62472	4.13735
25.24604	-5.60275	4.13735
25.25027	-5.62472	4.13735
25.25447	-5.62472	4.13735
25.25870	-5.60275	4.13735
25.26290	-5.60275	4.13735
25.26709	-5.60275	4.13735
25.27137	-5.60275	4.13735
25.27567	-5.60275	4.13735
25.27988	-5.60275	4.13735
25.28407	-5.58078	4.13735
25.28826	-5.58078	4.13735
25.29245	-5.58078	4.13735
25.29663	-5.55881	4.13735
25.30082	-5.55881	4.13735
25.30512	-5.58078	4.13735
25.30933	-5.55881	4.13735
25.31352	-5.55881	4.13735
25.31768	-5.55881	4.13735
25.32187	-5.55881	4.13735
25.32605	-5.55881	4.13735
25.33023	-5.55881	4.13735
25.33459	-5.55881	4.13735
25.33886	-5.55881	4.13735
25.34305	-5.53683	4.13735
25.34724	-5.55881	4.13735
25.35143	-5.55881	4.13735
25.35561	-5.55881	4.13735
25.35979	-5.53683	4.13735
25.36398	-5.53683	4.13735
25.36828	-5.53683	4.13735
25.37250	-5.53683	4.13735
25.37670	-5.51486	4.13735
25.38089	-5.51486	4.13735
25.38508	-5.51486	4.13735
25.38927	-5.51486	4.13735
25.39345	-5.51486	4.13735
25.39773	-5.51486	4.13735
25.40201	-5.51486	4.13735
25.40620	-5.49289	4.13735
25.41039	-5.49289	4.13735
25.41458	-5.51486	4.13735
25.41877	-5.51486	4.13735
25.42295	-5.49289	4.13735
25.42713	-5.49289	4.13735
25.43143	-5.49289	4.13735
25.43574	-5.49289	4.13735
25.43993	-5.49289	4.13735
25.44411	-5.49289	4.13735
25.44830	-5.49289	4.13735
25.45248	-5.49289	4.13735
25.45666	-5.49289	4.13735
25.46092	-5.49289	4.13735
25.46519	-5.47091	4.13735
25.46939	-5.47091	4.13735
25.47359	-5.47091	4.13735
25.47777	-5.47091	4.13735
25.48196	-5.47091	4.13735
25.48615	-5.47091	4.13735
25.49034	-5.47091	4.13735
25.49465	-5.47091	4.13735
25.49887	-5.47091	4.13735
25.50306	-5.47091	4.13735
25.50725	-5.47091	4.13735
25.51143	-5.44894	4.13735
25.51562	-5.44894	4.13735
25.51982	-5.44894	4.13735
25.52408	-5.47091	4.13735
25.52837	-5.44894	4.13735
25.53258	-5.44894	4.13735
25.53687	-5.44894	4.13735
25.54105	-5.44894	4.13735
25.54524	-5.44894	4.13735
25.54942	-5.44894	4.13735
25.55363	-5.44894	4.13735
25.55794	-5.44894	4.13735
25.56215	-5.44894	4.13735
25.56634	-5.44894	4.13735
25.57052	-5.44894	4.13735
25.57471	-5.44894	4.13735
25.57889	-5.42697	4.13735
25.58308	-5.42697	4.13735
25.58733	-5.42697	4.13735
25.59160	-5.42697	4.13735
25.59579	-5.42697	4.13735
25.59998	-5.44894	4.13735
25.60416	-5.42697	4.13735
25.60835	-5.42697	4.13735
25.61254	-5.44894	4.13735
25.61672	-5.44894	4.13735
25.62102	-5.42697	4.13735
25.62524	-5.42697	4.13735
25.62943	-5.42697	4.13735
25.63363	-5.42697	4.13735
25.63792	-5.42697	4.13735
25.64210	-5.42697	4.13735
25.64629	-5.42697	4.13735
25.65066	-5.42697	4.13735
25.65489	-5.42697	4.13735
25.65908	-5.42697	4.13735
25.66326	-5.42697	4.13735
25.66745	-5.42697	4.13735
25.67164	-5.42697	4.13735
25.67582	-5.42697	4.13735
25.68006	-5.42697	4.13735
25.68435	-5.42697	4.13735
25.68855	-5.42697	4.13735
25.69273	-5.42697	4.13735
25.69692	-5.40500	4.13735
25.70111	-5.40500	4.13735
25.70529	-5.42697	4.13735
25.70947	-5.40500	4.13735
25.71389	-5.40500	4.13735
25.71810	-5.40500	4.13735
25.72229	-5.40500	4.13735
25.72648	-5.40500	4.13735
25.73066	-5.42697	4.13735
25.73484	-5.42697	4.13735
25.73913	-5.40500	4.13735
25.74336	-5.40500	4.13735
25.74765	-5.42697	4.13735
25.75184	-5.42697	4.13735
25.75603	-5.40500	4.13735
25.76021	-5.42697	4.13735
25.76440	-5.40500	4.13735
25.76858	-5.42697	4.13735
25.77277	-5.42697	4.13735
25.77713	-5.42697	4.13735
25.78140	-5.42697	4.13735
25.78560	-5.42697	4.13735
25.78980	-5.40500	4.13735
25.79398	-5.42697	4.13735
25.79817	-5.40500	4.13735
25.80235	-5.40500	4.13735
25.80664	-5.40500	4.13735
25.81093	-5.42697	4.13735
25.81513	-5.42697	4.13735
25.81932	-5.42697	4.13735
25.82351	-5.42697	4.13735
25.82769	-5.42697	4.13735
25.83188	-5.42697	4.13735
25.83606	-5.42697	4.13735
25.84047	-5.42697	4.13735
25.84467	-5.42697	4.13735
25.84886	-5.42697	4.13735
25.85305	-5.42697	4.13735
25.85724	-5.42697	4.13735
25.86143	-5.42697	4.13735
25.86562	-5.42697	4.13735
25.86992	-5.44894	4.13735
25.87416	-5.44894	4.13735
25.87838	-5.44894	4.13735
25.88260	-5.44894	4.13735
25.88679	-5.44894	4.13735
25.89098	-5.44894	4.13735
25.89519	-5.44894	4.13735
25.89949	-5.44894	4.13735
25.90374	-5.44894	4.13735
25.90793	-5.44894	4.13735
25.91215	-5.44894	4.13735
25.91635	-5.44894	4.13735
25.92054	-5.44894	4.13735
25.92473	-5.44894	4.13735
25.92892	-5.44894	4.13735
25.93323	-5.44894	4.13735
25.93745	-5.44894	4.13735
25.94176	-5.44894	4.13735
25.94595	-5.44894	4.13735
25.95014	-5.44894	4.13735
25.95433	-5.44894	4.13735
25.95851	-5.47091	4.13735
25.96295	-5.44894	4.13735
25.96716	-5.44894	4.13735
25.97136	-5.47091	4.13735
25.97555	-5.44894	4.13735
25.97975	-5.44894	4.13735
25.98395	-5.47091	4.13735
25.98814	-5.47091	4.13735
25.99240	-5.44894	4.13735
25.99671	-5.47091	4.13735
26.00091	-5.44894	4.13735
26.00510	-5.44894	4.13735
26.00929	-5.47091	4.13735
26.01349	-5.44894	4.13735
26.01770	-5.44894	4.13735
26.02190	-5.44894	4.13735
26.02620	-5.44894	4.13735
26.03046	-5.44894	4.13735
26.03466	-5.44894	4.13735
26.03884	-5.44894	4.13735
26.04314	-5.44894	4.13735
26.04733	-5.44894	4.13735
26.05152	-5.44894	4.13735
26.05596	-5.44894	4.13735
26.06020	-5.44894	4.13735
26.06441	-5.44894	4.13735
26.06860	-5.44894	4.13735
26.07280	-5.44894	4.13735
26.07699	-5.44894	4.13735
26.08118	-5.44894	4.13735
26.08547	-5.44894	4.13735
26.08973	-5.44894	4.13735
26.09394	-5.44894	4.13735
26.09814	-5.44894	4.13735
26.10233	-5.44894	4.13735
26.10651	-5.44894	4.13735
26.11070	-5.44894	4.13735
26.11496	-5.44894	4.13735
26.11924	-5.44894	4.13735
26.12345	-5.44894	4.13735
26.12764	-5.44894	4.13735
26.13183	-5.44894	4.13735
26.13602	-5.44894	4.13735
26.14020	-5.44894	4.13735
26.14449	-5.44894	4.13735
26.14879	-5.44894	4.13735
26.15299	-5.44894	4.13735
26.15718	-5.44894	4.13735
26.16137	-5.44894	4.13735
26.16557	-5.44894	4.13735
26.16976	-5.44894	4.13735
26.17394	-5.44894	4.13735
26.17820	-5.44894	4.13735
26.18247	-5.44894	4.13735
26.18668	-5.44894	4.13735
26.19087	-5.44894	4.13735
26.19505	-5.44894	4.13735
26.19924	-5.44894	4.13735
26.20342	-5.44894	4.13735
26.20760	-5.44894	4.13735
26.21190	-5.44894	4.13735
26.21610	-5.44894	4.13735
26.22028	-5.44894	4.13735
26.22447	-5.44894	4.13735
26.22865	-5.44894	4.13735
26.23284	-5.44894	4.13735
26.23703	-5.44894	4.13735
26.24132	-5.44894	4.13735
26.24573	-5.44894	4.13735
26.24993	-5.44894	4.13735
26.25413	-5.44894	4.13735
26.25832	-5.44894	4.13735
26.26252	-5.42697	4.13735
26.26671	-5.44894	4.13735
26.27097	-5.42697	4.13735
26.27520	-5.42697	4.13735
26.27944	-5.44894	4.13735
26.28363	-5.44894	4.13735
26.28781	-5.42697	4.13735
26.29200	-5.42697	4.13735
26.29618	-5.42697	4.13735
26.30036	-5.42697	4.13735
26.30466	-5.42697	4.13735
26.30887	-5.44894	4.13735
26.31305	-5.42697	4.13735
26.31724	-5.42697	4.13735
26.32143	-5.42697	4.13735
26.32562	-5.42697	4.13735
26.32980	-5.42697	4.13735
26.33423	-5.42697	4.13735
26.33844	-5.42697	4.13735
26.34263	-5.42697	4.13735
26.34692	-5.42697	4.13735
26.35111	-5.42697	4.13735
26.35529	-5.42697	4.13735
26.35948	-5.42697	4.13735
26.36373	-5.40500	4.13735
26.36799	-5.42697	4.13735
26.37220	-5.40500	4.13735
26.37639	-5.40500	4.13735
26.38058	-5.40500	4.13735
26.38477	-5.40500	4.13735
26.38896	-5.40500	4.13735
26.39314	-5.40500	4.13735
26.39745	-5.40500	4.13735
26.40167	-5.40500	4.13735
26.40586	-5.40500	4.13735
26.41004	-5.40500	4.13735
26.41423	-5.40500	4.13735
26.41842	-5.40500	4.13735
26.42260	-5.40500	4.13735
26.42703	-5.40500	4.13735
26.43125	-5.40500	4.13735
26.43544	-5.40500	4.13735
26.43963	-5.40500	4.13735
26.44384	-5.38302	4.13735
26.44815	-5.38302	4.13735
26.45234	-5.38302	4.13735
26.45663	-5.38302	4.13735
26.46092	-5.38302	4.13735
26.46515	-5.38302	4.13735
26.46934	-5.38302	4.13735
26.47354	-5.38302	4.13735
26.47774	-5.38302	4.13735
26.48194	-5.38302	4.13735
26.48625	-5.38302	4.13735
26.49052	-5.38302	4.13735
26.49474	-5.38302	4.13735
26.49895	-5.38302	4.13735
26.50314	-5.38302	4.13735
26.50734	-5.36105	4.13735
26.51157	-5.38302	4.13735
26.51577	-5.38302	4.13735
26.52007	-5.36105	4.13735
26.52432	-5.36105	4.13735
26.52857	-5.38302	4.13735
26.53278	-5.36105	4.13735
26.53697	-5.36105	4.13735
26.54116	-5.38302	4.13735
26.54536	-5.38302	4.13735
26.54977	-5.36105	4.13735
26.55398	-5.36105	4.13735
26.55818	-5.36105	4.13735
26.56238	-5.36105	4.13735
26.56657	-5.36105	4.13735
26.57076	-5.36105	4.13735
26.57495	-5.36105	4.13735
26.57925	-5.36105	4.13735
26.58353	-5.36105	4.13735
26.58775	-5.36105	4.13735
26.59194	-5.36105	4.13735
26.59613	-5.38302	4.13735
26.60032	-5.38302	4.13735
26.60451	-5.36105	4.13735
26.60870	-5.36105	4.13735
26.61301	-5.36105	4.13735
26.61721	-5.36105	4.13735
26.62140	-5.38302	4.13735
26.62559	-5.38302	4.13735
26.62978	-5.38302	4.13735
26.63397	-5.36105	4.13735
26.63815	-5.38302	4.13735
26.64240	-5.36105	4.13735
26.64667	-5.38302	4.13735
26.65097	-5.38302	4.13735
26.65516	-5.38302	4.13735
26.65934	-5.38302	4.13735
26.66352	-5.38302	4.13735
26.66771	-5.38302	4.13735
26.67189	-5.38302	4.13735
26.67624	-5.38302	4.13735
26.68045	-5.40500	4.13735
26.68463	-5.38302	4.13735
26.68883	-5.40500	4.13735
26.69301	-5.40500	4.13735
26.69719	-5.40500	4.13735
26.70139	-5.40500	4.13735
26.70566	-5.40500	4.13735
26.70990	-5.40500	4.13735
26.71413	-5.40500	4.13735
26.71832	-5.40500	4.13735
26.72250	-5.40500	4.13735
26.72669	-5.40500	4.13735
26.73088	-5.40500	4.13735
26.73507	-5.40500	4.13735
26.73935	-5.40500	4.13735
26.74356	-5.40500	4.13735
26.74778	-5.42697	4.13735
26.75207	-5.42697	4.13735
26.75625	-5.42697	4.13735
26.76044	-5.42697	4.13735
26.76463	-5.40500	4.13735
26.76892	-5.42697	4.13735
26.77314	-5.42697	4.13735
26.77732	-5.42697	4.13735
26.78153	-5.42697	4.13735
26.78568	-5.42697	4.13735
26.78987	-5.42697	4.13735
26.79405	-5.42697	4.13735
26.79830	-5.42697	4.13735
26.80258	-5.42697	4.13735
26.80678	-5.44894	4.13735
26.81097	-5.44894	4.13735
26.81515	-5.44894	4.13735
26.81933	-5.44894	4.13735
26.82352	-5.44894	4.13735
26.82770	-5.44894	4.13735
26.83211	-5.44894	4.13735
26.83632	-5.44894	4.13735
26.84051	-5.47091	4.13735
26.84469	-5.44894	4.13735
26.84888	-5.44894	4.13735
26.85316	-5.47091	4.13735
26.85735	-5.47091	4.13735
26.86160	-5.47091	4.13735
26.86589	-5.47091	4.13735
26.87008	-5.47091	4.13735
26.87427	-5.47091	4.13735
26.87846	-5.49289	4.13735
26.88264	-5.47091	4.13735
26.88682	-5.47091	4.13735
26.89101	-5.49289	4.13735
26.89539	-5.49289	4.13735
26.89961	-5.49289	4.13735
26.90380	-5.49289	4.13735
26.90798	-5.47091	4.13735
26.91217	-5.47091	4.13735
26.91636	-5.49289	4.13735
26.92054	-5.49289	4.13735
26.92479	-5.49289	4.13735
26.92907	-5.49289	4.13735
26.93327	-5.49289	4.13735
26.93746	-5.49289	4.13735
26.94166	-5.49289	4.13735
26.94585	-5.49289	4.13735
26.95004	-5.49289	4.13735
26.95432	-5.49289	4.13735
26.95862	-5.49289	4.13735
26.96282	-5.51486	4.13735
26.96700	-5.51486	4.13735
26.97119	-5.51486	4.13735
26.97537	-5.51486	4.13735
26.97955	-5.51486	4.13735
26.98373	-5.51486	4.13735
26.98812	-5.51486	4.13735
26.99234	-5.51486	4.13735
26.99652	-5.51486	4.13735
27.00070	-5.53683	4.13735
27.00489	-5.51486	4.13735
27.00907	-5.51486	4.13735
27.01325	-5.51486	4.13735
27.01748	-5.51486	4.13735
27.02178	-5.53683	4.13735
27.02597	-5.53683	4.13735
27.03016	-5.51486	4.13735
27.03434	-5.53683	4.13735
27.03853	-5.53683	4.13735
27.04271	-5.53683	4.13735
27.04689	-5.53683	4.13735
27.05130	-5.51486	4.13735
27.05561	-5.53683	4.13735
27.05980	-5.51486	4.13735
27.06398	-5.53683	4.13735
27.06816	-5.53683	4.13735
27.07234	-5.53683	4.13735
27.07653	-5.53683	4.13735
27.08076	-5.53683	4.13735
27.08504	-5.53683	4.13735
27.08925	-5.53683	4.13735
27.09345	-5.53683	4.13735
27.09766	-5.53683	4.13735
27.10185	-5.53683	4.13735
27.10603	-5.53683	4.13735
27.11022	-5.53683	4.13735
27.11459	-5.53683	4.13735
27.11883	-5.53683	4.13735
27.12302	-5.53683	4.13735
27.12721	-5.53683	4.13735
27.13140	-5.53683	4.13735
27.13558	-5.53683	4.13735
27.13977	-5.53683	4.13735
27.14402	-5.53683	4.13735
27.14831	-5.53683	4.13735
27.15251	-5.53683	4.13735
27.15679	-5.53683	4.13735
27.16098	-5.53683	4.13735
27.16517	-5.53683	4.13735
27.16935	-5.53683	4.13735
27.17353	-5.53683	4.13735
27.17786	-5.53683	4.13735
27.18208	-5.53683	4.13735
27.18627	-5.53683	4.13735
27.19046	-5.53683	4.13735
27.19465	-5.53683	4.13735
27.19883	-5.53683	4.13735
27.20301	-5.53683	4.13735
27.20725	-5.53683	4.13735
27.21154	-5.53683	4.13735
27.21574	-5.53683	4.13735
27.21992	-5.53683	4.13735
27.22411	-5.53683	4.13735
27.22829	-5.53683	4.13735
27.23247	-5.53683	4.13735
27.23666	-5.53683	4.13735
27.24104	-5.51486	4.13735
27.24527	-5.53683	4.13735
27.24946	-5.51486	4.13735
27.25365	-5.53683	4.13735
27.25794	-5.53683	4.13735
27.26212	-5.53683	4.13735
27.26630	-5.53683	4.13735
27.27055	-5.53683	4.13735
27.27484	-5.51486	4.13735
27.27904	-5.51486	4.13735
27.28323	-5.51486	4.13735
27.28741	-5.51486	4.13735
27.29160	-5.51486	4.13735
27.29579	-5.51486	4.13735
27.29997	-5.51486	4.13735
27.30438	-5.51486	4.13735
27.30859	-5.51486	4.13735
27.31278	-5.51486	4.13735
27.31697	-5.51486	4.13735
27.32115	-5.51486	4.13735
27.32533	-5.49289	4.13735
27.32952	-5.51486	4.13735
27.33375	-5.51486	4.13735
27.33803	-5.49289	4.13735
27.34223	-5.49289	4.13735
27.34641	-5.49289	4.13735
27.35060	-5.49289	4.13735
27.35478	-5.49289	4.13735
27.35907	-5.49289	4.13735
27.36325	-5.49289	4.13735
27.36754	-5.49289	4.13735
27.37175	-5.49289	4.13735
27.37595	-5.49289	4.13735
27.38015	-5.49289	4.13735
27.38434	-5.47091	4.13735
27.38852	-5.47091	4.13735
27.39271	-5.49289	4.13735
27.39698	-5.47091	4.13735
27.40126	-5.47091	4.13735
27.40546	-5.47091	4.13735
27.40966	-5.47091	4.13735
27.41384	-5.47091	4.13735
27.41803	-5.49289	4.13735
27.42221	-5.47091	4.13735
27.42640	-5.47091	4.13735
27.43070	-5.47091	4.13735
27.43490	-5.47091	4.13735
27.43909	-5.47091	4.13735
27.44327	-5.47091	4.13735
27.44746	-5.47091	4.13735
27.45165	-5.47091	4.13735
27.45583	-5.47091	4.13735
27.46019	-5.47091	4.13735
27.46446	-5.47091	4.13735
27.46866	-5.47091	4.13735
27.47284	-5.47091	4.13735
27.47703	-5.47091	4.13735
27.48121	-5.47091	4.13735
27.48540	-5.47091	4.13735
27.48959	-5.47091	4.13735
27.49389	-5.47091	4.13735
27.49809	-5.47091	4.13735
27.50228	-5.47091	4.13735
27.50646	-5.47091	4.13735
27.51065	-5.47091	4.13735
27.51483	-5.47091	4.13735
27.51901	-5.47091	4.13735
27.52326	-5.44894	4.13735
27.52753	-5.47091	4.13735
27.53173	-5.47091	4.13735
27.53591	-5.44894	4.13735
27.54009	-5.47091	4.13735
27.54428	-5.44894	4.13735
27.54846	-5.44894	4.13735
27.55264	-5.47091	4.13735
27.55694	-5.44894	4.13735
27.56125	-5.44894	4.13735
27.56544	-5.44894	4.13735
27.56963	-5.44894	4.13735
27.57381	-5.44894	4.13735
27.57800	-5.44894	4.13735
27.58218	-5.44894	4.13735
27.58656	-5.44894	4.13735
27.59078	-5.44894	4.13735
27.59497	-5.44894	4.13735
27.59915	-5.44894	4.13735
27.60334	-5.44894	4.13735
27.60752	-5.44894	4.13735
27.61170	-5.44894	4.13735
27.61593	-5.44894	4.13735
27.62021	-5.44894	4.13735
27.62441	-5.44894	4.13735
27.62860	-5.44894	4.13735
27.63278	-5.44894	4.13735
27.63696	-5.44894	4.13735
27.64114	-5.44894	4.13735
27.64533	-5.44894	4.13735
27.64977	-5.44894	4.13735
27.65397	-5.44894	4.13735
27.65816	-5.44894	4.13735
27.66245	-5.44894	4.13735
27.66663	-5.44894	4.13735
27.67081	-5.44894	4.13735
27.67500	-5.44894	4.13735
27.67923	-5.44894	4.13735
27.68352	-5.44894	4.13735
27.68771	-5.44894	4.13735
27.69190	-5.44894	4.13735
27.69608	-5.44894	4.13735
27.70026	-5.44894	4.13735
27.70445	-5.44894	4.13735
27.70863	-5.44894	4.13735
27.71306	-5.44894	4.13735
27.71727	-5.44894	4.13735
27.72146	-5.42697	4.13735
27.72565	-5.42697	4.13735
27.72983	-5.42697	4.13735
27.73402	-5.42697	4.13735
27.73820	-5.42697	4.13735
27.74243	-5.42697	4.13735
27.74671	-5.42697	4.13735
27.75090	-5.42697	4.13735
27.75509	-5.42697	4.13735
27.75927	-5.42697	4.13735
27.76355	-5.42697	4.13735
27.76774	-5.42697	4.13735
27.77192	-5.42697	4.13735
27.77622	-5.42697	4.13735
27.78044	-5.42697	4.13735
27.78462	-5.42697	4.13735
27.78881	-5.42697	4.13735
27.79299	-5.42697	4.13735
27.79718	-5.42697	4.13735
27.80137	-5.42697	4.13735
27.80562	-5.42697	4.13735
27.80989	-5.42697	4.13735
27.81409	-5.42697	4.13735
27.81828	-5.42697	4.13735
27.82246	-5.42697	4.13735
27.82664	-5.42697	4.13735
27.83082	-5.42697	4.13735
27.83501	-5.42697	4.13735
27.83930	-5.42697	4.13735
27.84350	-5.42697	4.13735
27.84769	-5.42697	4.13735
27.85187	-5.42697	4.13735
27.85606	-5.42697	4.13735
27.86024	-5.42697	4.13735
27.86452	-5.42697	4.13735
27.86877	-5.42697	4.13735
27.87304	-5.42697	4.13735
27.87723	-5.42697	4.13735
27.88142	-5.42697	4.13735
27.88562	-5.42697	4.13735
27.88980	-5.42697	4.13735
27.89398	-5.42697	4.13735
27.89817	-5.42697	4.13735
27.90246	-5.42697	4.13735
27.90666	-5.42697	4.13735
27.91085	-5.42697	4.13735
27.91503	-5.42697	4.13735
27.91922	-5.42697	4.13735
27.92340	-5.42697	4.13735
27.92758	-5.42697	4.13735
27.93182	-5.42697	4.13735
27.93609	-5.42697	4.13735
27.94028	-5.42697	4.13735
27.94447	-5.42697	4.13735
27.94865	-5.42697	4.13735
27.95283	-5.42697	4.13735
27.95702	-5.42697	4.13735
27.96120	-5.42697	4.13735
27.96563	-5.42697	4.13735
27.96983	-5.42697	4.13735
27.97402	-5.42697	4.13735
27.97820	-5.42697	4.13735
27.98239	-5.42697	4.13735
27.98657	-5.42697	4.13735
27.99075	-5.42697	4.13735
27.99513	-5.42697	4.13735
27.99934	-5.42697	4.13735
28.00353	-5.42697	4.13735
28.00771	-5.42697	4.13735
28.01189	-5.42697	4.13735
28.01607	-5.42697	4.13735
28.02026	-5.42697	4.13735
28.02449	-5.42697	4.13735
28.02877	-5.42697	4.13735
28.03297	-5.44894	4.13735
28.03716	-5.42697	4.13735
28.04134	-5.42697	4.13735
28.04555	-5.42697	4.13735
28.04975	-5.44894	4.13735
28.05393	-5.42697	4.13735
28.05833	-5.42697	4.13735
28.06256	-5.42697	4.13735
28.06685	-5.42697	4.13735
28.07104	-5.42697	4.13735
28.07522	-5.42697	4.13735
28.07941	-5.42697	4.13735
28.08359	-5.42697	4.13735
28.08782	-5.42697	4.13735
28.09211	-5.42697	4.13735
28.09631	-5.42697	4.13735
28.10050	-5.42697	4.13735
28.10469	-5.42697	4.13735
28.10887	-5.42697	4.13735
28.11305	-5.42697	4.13735
28.11724	-5.42697	4.13735
28.12165	-5.42697	4.13735
28.12588	-5.42697	4.13735
28.13007	-5.42697	4.13735
28.13425	-5.42697	4.13735
28.13844	-5.42697	4.13735
28.14262	-5.42697	4.13735
28.14681	-5.42697	4.13735
28.15105	-5.42697	4.13735
28.15533	-5.42697	4.13735
28.15953	-5.42697	4.13735
28.16371	-5.42697	4.13735
28.16800	-5.42697	4.13735
28.17219	-5.42697	4.13735
28.17637	-5.42697	4.13735
28.18056	-5.42697	4.13735
28.18485	-5.42697	4.13735
28.18906	-5.42697	4.13735
28.19324	-5.42697	4.13735
28.19742	-5.40500	4.13735
28.20163	-5.40500	4.13735
28.20581	-5.42697	4.13735
28.21000	-5.40500	4.13735
28.21424	-5.40500	4.13735
28.21851	-5.42697	4.13735
28.22270	-5.40500	4.13735
28.22688	-5.40500	4.13735
28.23107	-5.40500	4.13735
28.23525	-5.40500	4.13735
28.23943	-5.40500	4.13735
28.24362	-5.40500	4.13735
28.24792	-5.40500	4.13735
28.25213	-5.40500	4.13735
28.25631	-5.40500	4.13735
28.26050	-5.40500	4.13735
28.26469	-5.40500	4.13735
28.26897	-5.40500	4.13735
28.27316	-5.40500	4.13735
28.27753	-5.40500	4.13735
28.28172	-5.40500	4.13735
28.28590	-5.38302	4.13735
28.29009	-5.38302	4.13735
28.29427	-5.38302	4.13735
28.29846	-5.38302	4.13735
28.30265	-5.38302	4.13735
28.30689	-5.38302	4.13735
28.31117	-5.38302	4.13735
28.31537	-5.38302	4.13735
28.31955	-5.38302	4.13735
28.32374	-5.38302	4.13735
28.32792	-5.38302	4.13735
28.33211	-5.38302	4.13735
28.33629	-5.36105	4.13735
28.34068	-5.36105	4.13735
28.34491	-5.36105	4.13735
28.34909	-5.36105	4.13735
28.35328	-5.36105	4.13735
28.35746	-5.36105	4.13735
28.36165	-5.33908	4.13735
28.36584	-5.33908	4.13735
28.37021	-5.33908	4.13735
28.37451	-5.33908	4.13735
28.37872	-5.33908	4.13735
28.38291	-5.33908	4.13735
28.38710	-5.31711	4.13735
28.39128	-5.33908	4.13735
28.39546	-5.31711	4.13735
28.39965	-5.31711	4.13735
28.40395	-5.31711	4.13735
28.40815	-5.31711	4.13735
28.41234	-5.31711	4.13735
28.41653	-5.29513	4.13735
28.42072	-5.29513	4.13735
28.42490	-5.29513	4.13735
28.42909	-5.29513	4.13735
28.43334	-5.29513	4.13735
28.43762	-5.29513	4.13735
28.44181	-5.29513	4.13735
28.44600	-5.27316	4.13735
28.45019	-5.27316	4.13735
28.45437	-5.27316	4.13735
28.45856	-5.25119	4.13735
28.46274	-5.25119	4.13735
28.46703	-5.27316	4.13735
28.47134	-5.25119	4.13735
28.47552	-5.25119	4.13735
28.47970	-5.25119	4.13735
28.48389	-5.22922	4.13735
28.48807	-5.22922	4.13735
28.49225	-5.22922	4.13735
28.49650	-5.22922	4.13735
28.50077	-5.22922	4.13735
28.50496	-5.22922	4.13735
28.50915	-5.20724	4.13735
28.51333	-5.20724	4.13735
28.51751	-5.20724	4.13735
28.52168	-5.20724	4.13735
28.52587	-5.20724	4.13735
28.53017	-5.18527	4.13735
28.53436	-5.18527	4.13735
28.53855	-5.18527	4.13735
28.54274	-5.18527	4.13735
28.54692	-5.18527	4.13735
28.55110	-5.16330	4.13735
28.55529	-5.16330	4.13735
28.55955	-5.16330	4.13735
28.56384	-5.16330	4.13735
28.56803	-5.16330	4.13735
28.57233	-5.16330	4.13735
28.57651	-5.14132	4.13735
28.58070	-5.14132	4.13735
28.58488	-5.14132	4.13735
28.58907	-5.14132	4.13735
28.59337	-5.14132	4.13735
28.59758	-5.11935	4.13735
28.60177	-5.11935	4.13735
28.60596	-5.11935	4.13735
28.61015	-5.09738	4.13735
28.61433	-5.09738	4.13735
28.61851	-5.09738	4.13735
28.62287	-5.09738	4.13735
28.62710	-5.09738	4.13735
28.63129	-5.07541	4.13735
28.63548	-5.07541	4.13735
28.63966	-5.07541	4.13735
28.64385	-5.07541	4.13735
28.64803	-5.07541	4.13735
28.65228	-5.05343	4.13735
28.65657	-5.05343	4.13735
28.66077	-5.05343	4.13735
28.66495	-5.03146	4.13735
28.66914	-5.03146	4.13735
28.67342	-5.05343	4.13735
28.67761	-5.03146	4.13735
28.68180	-5.00949	4.13735
28.68611	-5.00949	4.13735
28.69031	-5.00949	4.13735
28.69449	-5.00949	4.13735
28.69869	-5.00949	4.13735
28.70288	-5.00949	4.13735
28.70707	-4.98752	4.13735
28.71125	-4.98752	4.13735
28.71552	-4.98752	4.13735
28.71979	-4.96554	4.13735
28.72399	-4.96554	4.13735
28.72817	-4.96554	4.13735
28.73236	-4.96554	4.13735
28.73657	-4.96554	4.13735
28.74076	-4.94357	4.13735
28.74494	-4.94357	4.13735
28.74925	-4.94357	4.13735
28.75346	-4.94357	4.13735
28.75766	-4.92160	4.13735
28.76187	-4.92160	4.13735
28.76606	-4.92160	4.13735
28.77024	-4.89963	4.13735
28.77453	-4.89963	4.13735
28.77896	-4.89963	4.13735
28.78318	-4.89963	4.13735
28.78738	-4.89963	4.13735
28.79157	-4.89963	4.13735
28.79576	-4.89963	4.13735
28.79995	-4.89963	4.13735
28.80414	-4.89963	4.13735
28.80841	-4.87765	4.13735
28.81273	-4.87765	4.13735
28.81694	-4.87765	4.13735
28.82115	-4.87765	4.13735
28.82534	-4.87765	4.13735
28.82955	-4.87765	4.13735
28.83375	-4.87765	4.13735
28.83794	-4.85568	4.13735
28.84223	-4.85568	4.13735
28.84648	-4.85568	4.13735
28.85068	-4.83371	4.13735
28.85487	-4.83371	4.13735
28.85906	-4.83371	4.13735
28.86325	-4.83371	4.13735
28.86744	-4.83371	4.13735
28.87173	-4.83371	4.13735
28.87611	-4.83371	4.13735
28.88030	-4.83371	4.13735
28.88449	-4.83371	4.13735
28.88868	-4.81173	4.13735
28.89286	-4.81173	4.13735
28.89705	-4.81173	4.13735
28.90132	-4.81173	4.13735
28.90562	-4.81173	4.13735
28.90986	-4.81173	4.13735
28.91407	-4.81173	4.13735
28.91826	-4.81173	4.13735
28.92245	-4.81173	4.13735
28.92663	-4.81173	4.13735
28.93082	-4.81173	4.13735
28.93512	-4.81173	4.13735
28.93933	-4.81173	4.13735
28.94352	-4.81173	4.13735
28.94771	-4.81173	4.13735
28.95189	-4.81173	4.13735
28.95608	-4.81173	4.13735
28.96026	-4.81173	4.13735
28.96452	-4.81173	4.13735
28.96879	-4.81173	4.13735
28.97299	-4.81173	4.13735
28.97729	-4.81173	4.13735
28.98148	-4.81173	4.13735
28.98567	-4.81173	4.13735
28.98985	-4.81173	4.13735
28.99404	-4.81173	4.13735
28.99833	-4.81173	4.13735
29.00253	-4.81173	4.13735
29.00672	-4.81173	4.13735
29.01091	-4.81173	4.13735
29.01509	-4.81173	4.13735
29.01928	-4.81173	4.13735
29.02347	-4.83371	4.13735
29.02772	-4.83371	4.13735
29.03198	-4.81173	4.13735
29.03618	-4.83371	4.13735
29.04036	-4.83371	4.13735
29.04455	-4.83371	4.13735
29.04873	-4.85568	4.13735
29.05292	-4.85568	4.13735
29.05710	-4.85568	4.13735
29.06139	-4.85568	4.13735
29.06562	-4.85568	4.13735
29.06981	-4.87765	4.13735
29.07399	-4.85568	4.13735
29.07828	-4.85568	4.13735
29.08247	-4.87765	4.13735
29.08665	-4.87765	4.13735
29.09109	-4.87765	4.13735
29.09532	-4.87765	4.13735
29.09952	-4.89963	4.13735
29.10371	-4.89963	4.13735
29.10790	-4.89963	4.13735
29.11209	-4.89963	4.13735
29.11627	-4.92160	4.13735
29.12055	-4.92160	4.13735
29.12482	-4.92160	4.13735
29.12904	-4.92160	4.13735
29.13323	-4.92160	4.13735
29.13743	-4.94357	4.13735
29.14163	-4.94357	4.13735
29.14582	-4.94357	4.13735
29.15000	-4.94357	4.13735
29.15430	-4.96554	4.13735
29.15851	-4.96554	4.13735
29.16271	-4.98752	4.13735
29.16690	-4.98752	4.13735
29.17109	-4.98752	4.13735
29.17528	-4.98752	4.13735
29.17958	-5.00949	4.13735
29.18399	-5.00949	4.13735
29.18820	-5.00949	4.13735
29.19240	-5.03146	4.13735
29.19659	-5.03146	4.13735
29.20078	-5.03146	4.13735
29.20497	-5.03146	4.13735
29.20916	-5.03146	4.13735
29.21342	-5.05343	4.13735
29.21771	-5.05343	4.13735
29.22191	-5.07541	4.13735
29.22610	-5.07541	4.13735
29.23029	-5.07541	4.13735
29.23447	-5.07541	4.13735
29.23866	-5.09738	4.13735
29.24284	-5.09738	4.13735
29.24713	-5.09738	4.13735
29.25134	-5.11935	4.13735
29.25553	-5.11935	4.13735
29.25972	-5.11935	4.13735
29.26392	-5.11935	4.13735
29.26811	-5.14132	4.13735
29.27230	-5.14132	4.13735
29.27656	-5.14132	4.13735
29.28093	-5.14132	4.13735
29.28512	-5.14132	4.13735
29.28931	-5.16330	4.13735
29.29349	-5.16330	4.13735
29.29768	-5.18527	4.13735
29.30186	-5.18527	4.13735
29.30605	-5.18527	4.13735
29.31034	-5.20724	4.13735
29.31455	-5.20724	4.13735
29.31874	-5.20724	4.13735
29.32293	-5.20724	4.13735
29.32712	-5.22922	4.13735
29.33131	-5.22922	4.13735
29.33550	-5.22922	4.13735
29.33995	-5.25119	4.13735
29.34417	-5.25119	4.13735
29.34836	-5.25119	4.13735
29.35255	-5.25119	4.13735
29.35673	-5.27316	4.13735
29.36092	-5.27316	4.13735
29.36510	-5.27316	4.13735
29.36937	-5.27316	4.13735
29.37367	-5.29513	4.13735
29.37788	-5.29513	4.13735
29.38217	-5.29513	4.13735
29.38636	-5.29513	4.13735
29.39054	-5.31711	4.13735
29.39473	-5.31711	4.13735
29.39891	-5.31711	4.13735
29.40320	-5.33908	4.13735
29.40741	-5.33908	4.13735
29.41160	-5.33908	4.13735
29.41579	-5.33908	4.13735
29.41997	-5.36105	4.13735
29.42416	-5.36105	4.13735
29.42834	-5.38302	4.13735
29.43259	-5.38302	4.13735
29.43685	-5.38302	4.13735
29.44104	-5.38302	4.13735
29.44523	-5.38302	4.13735
29.44941	-5.40500	4.13735
29.45361	-5.40500	4.13735
29.45779	-5.42697	4.13735
29.46198	-5.42697	4.13735
29.46627	-5.42697	4.13735
29.47047	-5.42697	4.13735
29.47466	-5.42697	4.13735
29.47885	-5.44894	4.13735
29.48319	-5.44894	4.13735
29.48738	-5.44894	4.13735
29.49157	-5.47091	4.13735
29.49601	-5.47091	4.13735
29.50024	-5.47091	4.13735
29.50444	-5.49289	4.13735
29.50863	-5.49289	4.13735
29.51282	-5.49289	4.13735
29.51701	-5.49289	4.13735
29.52120	-5.51486	4.13735
29.52549	-5.51486	4.13735
29.52978	-5.51486	4.13735
29.53399	-5.53683	4.13735
29.53818	-5.55881	4.13735
29.54237	-5.55881	4.13735
29.54656	-5.55881	4.13735
29.55075	-5.55881	4.13735
29.55494	-5.58078	4.13735
29.55925	-5.58078	4.13735
29.56347	-5.60275	4.13735
29.56766	-5.60275	4.13735
29.57186	-5.60275	4.13735
29.57605	-5.62472	4.13735
29.58027	-5.62472	4.13735
29.58460	-5.62472	4.13735
29.58890	-5.64670	4.13735
29.59312	-5.64670	4.13735
29.59735	-5.66867	4.13735
29.60156	-5.66867	4.13735
29.60575	-5.66867	4.13735
29.60993	-5.69064	4.13735
29.61413	-5.69064	4.13735
29.61839	-5.71261	4.13735
29.62265	-5.71261	4.13735
29.62687	-5.71261	4.13735
29.63108	-5.73459	4.13735
29.63527	-5.73459	4.13735
29.63946	-5.75656	4.13735
29.64365	-5.75656	4.13735
29.64783	-5.75656	4.13735
29.65212	-5.77853	4.13735
29.65633	-5.77853	4.13735
29.66052	-5.80050	4.13735
29.66470	-5.80050	4.13735
29.66889	-5.82248	4.13735
29.67307	-5.82248	4.13735
29.67726	-5.82248	4.13735
29.68169	-5.84445	4.13735
29.68600	-5.84445	4.13735
29.69019	-5.86642	4.13735
29.69437	-5.86642	4.13735
29.69856	-5.86642	4.13735
29.70275	-5.88839	4.13735
29.70693	-5.88839	4.13735
29.71119	-5.88839	4.13735
29.71546	-5.91037	4.13735
29.71966	-5.93234	4.13735
29.72384	-5.93234	4.13735
29.72803	-5.93234	4.13735
29.73222	-5.95431	4.13735
29.73640	-5.95431	4.13735
29.74059	-5.95431	4.13735
29.74488	-5.97629	4.13735
29.74909	-5.99826	4.13735
29.75327	-5.99826	4.13735
29.75746	-5.99826	4.13735
29.76165	-5.99826	4.13735
29.76584	-6.02023	4.13735
29.77002	-6.02023	4.13735
29.77441	-6.04220	4.13735
29.77868	-6.06418	4.13735
29.78287	-6.06418	4.13735
29.78716	-6.06418	4.13735
29.79135	-6.08615	4.13735
29.79553	-6.08615	4.13735
29.79972	-6.10812	4.13735
29.80398	-6.10812	4.13735
29.80825	-6.10812	4.13735
29.81245	-6.10812	4.13735
29.81665	-6.13009	4.13735
29.82083	-6.13009	4.13735
29.82502	-6.15207	4.13735
29.82920	-6.15207	4.13735
29.83339	-6.15207	4.13735
29.83770	-6.17404	4.13735
29.84192	-6.17404	4.13735
29.84611	-6.17404	4.13735
29.85029	-6.19601	4.13735
29.85448	-6.19601	4.13735
29.85866	-6.21798	4.13735
29.86285	-6.21798	4.13735
29.86724	-6.21798	4.13735
29.87149	-6.21798	4.13735
29.87569	-6.21798	4.13735
29.87991	-6.23996	4.13735
29.88410	-6.23996	4.13735
29.88839	-6.23996	4.13735
29.89258	-6.23996	4.13735
29.89691	-6.26193	4.13735
29.90119	-6.26193	4.13735
29.90539	-6.28390	4.13735
29.90959	-6.28390	4.13735
29.91378	-6.28390	4.13735
29.91797	-6.28390	4.13735
29.92215	-6.30588	4.13735
29.92634	-6.30588	4.13735
29.93063	-6.30588	4.13735
29.93484	-6.32785	4.13735
29.93903	-6.32785	4.13735
29.94321	-6.30588	4.13735
29.94740	-6.32785	4.13735
29.95159	-6.32785	4.13735
29.95577	-6.32785	4.13735
29.96003	-6.32785	4.13735
29.96429	-6.32785	4.13735
29.96848	-6.32785	4.13735
29.97267	-6.32785	4.13735
29.97686	-6.34982	4.13735
29.98105	-6.32785	4.13735
29.98524	-6.32785	4.13735
29.98953	-6.34982	4.13735
29.99378	-6.34982	4.13735
29.99799	-6.32785	4.13735
