Time (s)   roll (deg)   Delta
0.00033	-11.60129	11.27051
0.00462	-11.57931	11.27051
0.00890	-11.60129	11.27051
0.01312	-11.57931	11.27051
0.01732	-11.57931	11.27051
0.02151	-11.57931	11.27051
0.02569	-11.57931	11.27051
0.02987	-11.57931	11.27051
0.03412	-11.57931	11.27051
0.03838	-11.57931	11.27051
0.04259	-11.57931	11.27051
0.04678	-11.55734	11.27051
0.05096	-11.55734	11.27051
0.05513	-11.55734	11.27051
0.05930	-11.53537	11.27051
0.06347	-11.53537	11.27051
0.06776	-11.55734	11.27051
0.07195	-11.53537	11.27051
0.07612	-11.53537	11.27051
0.08029	-11.53537	11.27051
0.08446	-11.53537	11.27051
0.08863	-11.53537	11.27051
0.09280	-11.55734	11.27051
0.09708	-11.53537	11.27051
0.10137	-11.53537	11.27051
0.10554	-11.53537	11.27051
0.10972	-11.51339	11.27051
0.11389	-11.53537	11.27051
0.11806	-11.53537	11.27051
0.12222	-11.51339	11.27051
0.12651	-11.51339	11.27051
0.13073	-11.53537	11.27051
0.13491	-11.51339	11.27051
0.13908	-11.53537	11.27051
0.14325	-11.53537	11.27051
0.14742	-11.51339	11.27051
0.15159	-11.51339	11.27051
0.15584	-11.51339	11.27051
0.16012	-11.51339	11.27051
0.16431	-11.53537	11.27051
0.16850	-11.53537	11.27051
0.17268	-11.51339	11.27051
0.17687	-11.53537	11.27051
0.18106	-11.51339	11.27051
0.18524	-11.53537	11.27051
0.18953	-11.53537	11.27051
0.19386	-11.53537	11.27051
0.19810	-11.53537	11.27051
0.20243	-11.55734	11.27051
0.20662	-11.53537	11.27051
0.21081	-11.55734	11.27051
0.21500	-11.55734	11.27051
0.21941	-11.55734	11.27051
0.22361	-11.55734	11.27051
0.22778	-11.55734	11.27051
0.23197	-11.55734	11.27051
0.23616	-11.57931	11.27051
0.24034	-11.55734	11.27051
0.24453	-11.57931	11.27051
0.24886	-11.57931	11.27051
0.25311	-11.57931	11.27051
0.25730	-11.60129	11.27051
0.26149	-11.60129	11.27051
0.26569	-11.60129	11.27051
0.26993	-11.62326	11.27051
0.27414	-11.60129	11.27051
0.27971	-11.62326	11.27051
0.28401	-11.62326	11.27051
0.28823	-11.64523	11.27051
0.29243	-11.64523	11.27051
0.29664	-11.64523	11.27051
0.30084	-11.66720	11.27051
0.30519	-11.66720	11.27051
0.31057	-11.68918	11.27051
0.31488	-11.68918	11.27051
0.31909	-11.68918	11.27051
0.32330	-11.68918	11.27051
0.32750	-11.71115	11.27051
0.33172	-11.73312	11.27051
0.33592	-11.73312	11.27051
0.34149	-11.73312	11.27051
0.34583	-11.75509	11.27051
0.35005	-11.77707	11.27051
0.35425	-11.77707	11.27051
0.35846	-11.77707	11.27051
0.36266	-11.79904	11.27051
0.36687	-11.79904	11.27051
0.37195	-11.82101	11.27051
0.37626	-11.82101	11.27051
0.38047	-11.84298	11.27051
0.38469	-11.84298	11.27051
0.38889	-11.84298	11.27051
0.39309	-11.86496	11.27051
0.39728	-11.88693	11.27051
0.40153	-11.90890	11.27051
0.40581	-11.90890	11.27051
0.41013	-11.93088	11.27051
0.41433	-11.93088	11.27051
0.41852	-11.95285	11.27051
0.42271	-11.95285	11.27051
0.42690	-11.97482	11.27051
0.43109	-11.99679	11.27051
0.43540	-12.01877	11.27051
0.43960	-12.01877	11.27051
0.44380	-12.01877	11.27051
0.44800	-12.04074	11.27051
0.45218	-12.06271	11.27051
0.45638	-12.06271	11.27051
0.46058	-12.08468	11.27051
0.46500	-12.10666	11.27051
0.46921	-12.10666	11.27051
0.47341	-12.12863	11.27051
0.47760	-12.15060	11.27051
0.48179	-12.17257	11.27051
0.48598	-12.19455	11.27051
0.49016	-12.19455	11.27051
0.49451	-12.23849	11.27051
0.49877	-12.23849	11.27051
0.50297	-12.23849	11.27051
0.50716	-12.26047	11.27051
0.51145	-12.28244	11.27051
0.51564	-12.30441	11.27051
0.51983	-12.30441	11.27051
0.52408	-12.32638	11.27051
0.52836	-12.34836	11.27051
0.53255	-12.37033	11.27051
0.53674	-12.39230	11.27051
0.54092	-12.41427	11.27051
0.54510	-12.41427	11.27051
0.54929	-12.43625	11.27051
0.55347	-12.45822	11.27051
0.55776	-12.48019	11.27051
0.56197	-12.50216	11.27051
0.56616	-12.52414	11.27051
0.57034	-12.52414	11.27051
0.57452	-12.54611	11.27051
0.57871	-12.56808	11.27051
0.58289	-12.61203	11.27051
0.58718	-12.61203	11.27051
0.59140	-12.63400	11.27051
0.59559	-12.63400	11.27051
0.59978	-12.67795	11.27051
0.60396	-12.69992	11.27051
0.60814	-12.72189	11.27051
0.61243	-12.74386	11.27051
0.61676	-12.76584	11.27051
0.62101	-12.78781	11.27051
0.62520	-12.78781	11.27051
0.62939	-12.80978	11.27051
0.63357	-12.83175	11.27051
0.63775	-12.85373	11.27051
0.64194	-12.89767	11.27051
0.64618	-12.91964	11.27051
0.65045	-12.91964	11.27051
0.65465	-12.94162	11.27051
0.65883	-12.96359	11.27051
0.66301	-13.00754	11.27051
0.66720	-13.02951	11.27051
0.67138	-13.05148	11.27051
0.67556	-13.05148	11.27051
0.67988	-13.07345	11.27051
0.68409	-13.09543	11.27051
0.68828	-13.13937	11.27051
0.69247	-13.16134	11.27051
0.69666	-13.18332	11.27051
0.70084	-13.18332	11.27051
0.70503	-13.20529	11.27051
0.70939	-13.22726	11.27051
0.71370	-13.24923	11.27051
0.71789	-13.29318	11.27051
0.72207	-13.31515	11.27051
0.72626	-13.33713	11.27051
0.73044	-13.33713	11.27051
0.73463	-13.38107	11.27051
0.73895	-13.40304	11.27051
0.74321	-13.42502	11.27051
0.74741	-13.44699	11.27051
0.75160	-13.46896	11.27051
0.75578	-13.51291	11.27051
0.75996	-13.51291	11.27051
0.76414	-13.53488	11.27051
0.76841	-13.57882	11.27051
0.77269	-13.60080	11.27051
0.77689	-13.62277	11.27051
0.78108	-13.64474	11.27051
0.78526	-13.64474	11.27051
0.78945	-13.68869	11.27051
0.79363	-13.71066	11.27051
0.79782	-13.73263	11.27051
0.80211	-13.77658	11.27051
0.80632	-13.77658	11.27051
0.81050	-13.79855	11.27051
0.81479	-13.82052	11.27051
0.81897	-13.84250	11.27051
0.82316	-13.88644	11.27051
0.82734	-13.90841	11.27051
0.83165	-13.90841	11.27051
0.83585	-13.93039	11.27051
0.84004	-13.97433	11.27051
0.84422	-13.99631	11.27051
0.84841	-14.01828	11.27051
0.85259	-14.04025	11.27051
0.85677	-14.04025	11.27051
0.86111	-14.06222	11.27051
0.86535	-14.10617	11.27051
0.86954	-14.12814	11.27051
0.87373	-14.15011	11.27051
0.87791	-14.17209	11.27051
0.88209	-14.21603	11.27051
0.88628	-14.21603	11.27051
0.89052	-14.23800	11.27051
0.89479	-14.25998	11.27051
0.89898	-14.28195	11.27051
0.90317	-14.32589	11.27051
0.90735	-14.34787	11.27051
0.91153	-14.34787	11.27051
0.91583	-14.36984	11.27051
0.92001	-14.41379	11.27051
0.92430	-14.41379	11.27051
0.92850	-14.45773	11.27051
0.93269	-14.47970	11.27051
0.93687	-14.50168	11.27051
0.94105	-14.50168	11.27051
0.94523	-14.54562	11.27051
0.94941	-14.56759	11.27051
0.95371	-14.58957	11.27051
0.95795	-14.61154	11.27051
0.96215	-14.63351	11.27051
0.96634	-14.63351	11.27051
0.97053	-14.65548	11.27051
0.97471	-14.67746	11.27051
0.97890	-14.72140	11.27051
0.98321	-14.74338	11.27051
0.98747	-14.76535	11.27051
0.99167	-14.76535	11.27051
0.99586	-14.78732	11.27051
1.00005	-14.80929	11.27051
1.00423	-14.83127	11.27051
1.00842	-14.85324	11.27051
1.01266	-14.87521	11.27051
1.01703	-14.89718	11.27051
1.02123	-14.89718	11.27051
1.02541	-14.91916	11.27051
1.02960	-14.96310	11.27051
1.03378	-14.98507	11.27051
1.03796	-15.00705	11.27051
1.04214	-15.00705	11.27051
1.04644	-15.02902	11.27051
1.05064	-15.05099	11.27051
1.05483	-15.07297	11.27051
1.05901	-15.11691	11.27051
1.06319	-15.11691	11.27051
1.06738	-15.11691	11.27051
1.07156	-15.13888	11.27051
1.07587	-15.18283	11.27051
1.08007	-15.20480	11.27051
1.08430	-15.22677	11.27051
1.08851	-15.22677	11.27051
1.09272	-15.27072	11.27051
1.09693	-15.27072	11.27051
1.10113	-15.27072	11.27051
1.10560	-15.31466	11.27051
1.10990	-15.33664	11.27051
1.11411	-15.33664	11.27051
1.11845	-15.38058	11.27051
1.12268	-15.38058	11.27051
1.12692	-15.40256	11.27051
1.13114	-15.42453	11.27051
1.13593	-15.42453	11.27051
1.14023	-15.44650	11.27051
1.14444	-15.46847	11.27051
1.14863	-15.49045	11.27051
1.15283	-15.51242	11.27051
1.15702	-15.51242	11.27051
1.16120	-15.53439	11.27051
1.16539	-15.55636	11.27051
1.16968	-15.57834	11.27051
1.17388	-15.60031	11.27051
1.17808	-15.62228	11.27051
1.18227	-15.62228	11.27051
1.18646	-15.64425	11.27051
1.19064	-15.66623	11.27051
1.19483	-15.68820	11.27051
1.19911	-15.71017	11.27051
1.20333	-15.73214	11.27051
1.20753	-15.73214	11.27051
1.21173	-15.75412	11.27051
1.21592	-15.75412	11.27051
1.22021	-15.77609	11.27051
1.22439	-15.79806	11.27051
1.22874	-15.82004	11.27051
1.23298	-15.84201	11.27051
1.23717	-15.84201	11.27051
1.24136	-15.86398	11.27051
1.24555	-15.86398	11.27051
1.24973	-15.88595	11.27051
1.25392	-15.90793	11.27051
1.25816	-15.90793	11.27051
1.26241	-15.92990	11.27051
1.26661	-15.92990	11.27051
1.27079	-15.95187	11.27051
1.27498	-15.97384	11.27051
1.27917	-15.99582	11.27051
1.28335	-16.01779	11.27051
1.28753	-16.01779	11.27051
1.29182	-16.03976	11.27051
1.29603	-16.03976	11.27051
1.30022	-16.06173	11.27051
1.30440	-16.08371	11.27051
1.30858	-16.10568	11.27051
1.31277	-16.10568	11.27051
1.31695	-16.10568	11.27051
1.32133	-16.12765	11.27051
1.32554	-16.14963	11.27051
1.32973	-16.14963	11.27051
1.33392	-16.14963	11.27051
1.33810	-16.17160	11.27051
1.34228	-16.19357	11.27051
1.34647	-16.19357	11.27051
1.35078	-16.21554	11.27051
1.35503	-16.21554	11.27051
1.35922	-16.23752	11.27051
1.36341	-16.23752	11.27051
1.36759	-16.23752	11.27051
1.37177	-16.25949	11.27051
1.37596	-16.28146	11.27051
1.38019	-16.30343	11.27051
1.38445	-16.30343	11.27051
1.38865	-16.30343	11.27051
1.39284	-16.30343	11.27051
1.39702	-16.32541	11.27051
1.40121	-16.32541	11.27051
1.40539	-16.34738	11.27051
1.40958	-16.34738	11.27051
1.41385	-16.34738	11.27051
1.41813	-16.36935	11.27051
1.42243	-16.36935	11.27051
1.42662	-16.39132	11.27051
1.43080	-16.41330	11.27051
1.43499	-16.39132	11.27051
1.43917	-16.41330	11.27051
1.44346	-16.41330	11.27051
1.44768	-16.41330	11.27051
1.45187	-16.41330	11.27051
1.45606	-16.43527	11.27051
1.46024	-16.43527	11.27051
1.46446	-16.45724	11.27051
1.46865	-16.45724	11.27051
1.47298	-16.45724	11.27051
1.47722	-16.45724	11.27051
1.48141	-16.45724	11.27051
1.48560	-16.45724	11.27051
1.48980	-16.45724	11.27051
1.49401	-16.47922	11.27051
1.49821	-16.47922	11.27051
1.50251	-16.50119	11.27051
1.50678	-16.50119	11.27051
1.51101	-16.50119	11.27051
1.51520	-16.50119	11.27051
1.51939	-16.50119	11.27051
1.52370	-16.52316	11.27051
1.52788	-16.52316	11.27051
1.53207	-16.52316	11.27051
1.53636	-16.52316	11.27051
1.54056	-16.52316	11.27051
1.54476	-16.52316	11.27051
1.54894	-16.52316	11.27051
1.55313	-16.52316	11.27051
1.55732	-16.52316	11.27051
1.56150	-16.52316	11.27051
1.56579	-16.52316	11.27051
1.57001	-16.54513	11.27051
1.57420	-16.54513	11.27051
1.57839	-16.54513	11.27051
1.58258	-16.54513	11.27051
1.58676	-16.54513	11.27051
1.59094	-16.54513	11.27051
1.59526	-16.54513	11.27051
1.59949	-16.54513	11.27051
1.60369	-16.54513	11.27051
1.60787	-16.54513	11.27051
1.61206	-16.54513	11.27051
1.61624	-16.54513	11.27051
1.62042	-16.54513	11.27051
1.62476	-16.54513	11.27051
1.62901	-16.52316	11.27051
1.63320	-16.54513	11.27051
1.63739	-16.54513	11.27051
1.64157	-16.54513	11.27051
1.64576	-16.54513	11.27051
1.64994	-16.54513	11.27051
1.65413	-16.54513	11.27051
1.65840	-16.54513	11.27051
1.66261	-16.52316	11.27051
1.66680	-16.52316	11.27051
1.67098	-16.52316	11.27051
1.67516	-16.52316	11.27051
1.67934	-16.52316	11.27051
1.68353	-16.52316	11.27051
1.68783	-16.52316	11.27051
1.69204	-16.52316	11.27051
1.69623	-16.52316	11.27051
1.70041	-16.50119	11.27051
1.70459	-16.50119	11.27051
1.70878	-16.50119	11.27051
1.71296	-16.50119	11.27051
1.71727	-16.50119	11.27051
1.72151	-16.50119	11.27051
1.72580	-16.47922	11.27051
1.72998	-16.47922	11.27051
1.73416	-16.47922	11.27051
1.73835	-16.47922	11.27051
1.74253	-16.47922	11.27051
1.74676	-16.45724	11.27051
1.75101	-16.45724	11.27051
1.75521	-16.45724	11.27051
1.75940	-16.45724	11.27051
1.76359	-16.45724	11.27051
1.76777	-16.43527	11.27051
1.77196	-16.43527	11.27051
1.77614	-16.43527	11.27051
1.78042	-16.43527	11.27051
1.78462	-16.43527	11.27051
1.78880	-16.41330	11.27051
1.79299	-16.41330	11.27051
1.79717	-16.39132	11.27051
1.80135	-16.39132	11.27051
1.80554	-16.39132	11.27051
1.80982	-16.39132	11.27051
1.81403	-16.36935	11.27051
1.81822	-16.36935	11.27051
1.82240	-16.36935	11.27051
1.82669	-16.34738	11.27051
1.83087	-16.34738	11.27051
1.83505	-16.34738	11.27051
1.83936	-16.32541	11.27051
1.84359	-16.32541	11.27051
1.84778	-16.32541	11.27051
1.85196	-16.30343	11.27051
1.85615	-16.30343	11.27051
1.86033	-16.30343	11.27051
1.86451	-16.30343	11.27051
1.86874	-16.28146	11.27051
1.87299	-16.28146	11.27051
1.87720	-16.25949	11.27051
1.88138	-16.25949	11.27051
1.88556	-16.25949	11.27051
1.88975	-16.25949	11.27051
1.89393	-16.23752	11.27051
1.89811	-16.21554	11.27051
1.90238	-16.21554	11.27051
1.90659	-16.21554	11.27051
1.91078	-16.19357	11.27051
1.91496	-16.19357	11.27051
1.91914	-16.19357	11.27051
1.92333	-16.19357	11.27051
1.92761	-16.17160	11.27051
1.93187	-16.17160	11.27051
1.93608	-16.17160	11.27051
1.94026	-16.14963	11.27051
1.94445	-16.14963	11.27051
1.94863	-16.14963	11.27051
1.95281	-16.12765	11.27051
1.95702	-16.10568	11.27051
1.96135	-16.10568	11.27051
1.96559	-16.10568	11.27051
1.96978	-16.10568	11.27051
1.97397	-16.08371	11.27051
1.97815	-16.08371	11.27051
1.98234	-16.06173	11.27051
1.98652	-16.06173	11.27051
1.99076	-16.03976	11.27051
1.99501	-16.03976	11.27051
1.99921	-16.03976	11.27051
2.00340	-16.03976	11.27051
2.00759	-16.03976	11.27051
2.01177	-16.01779	11.27051
2.01596	-16.01779	11.27051
2.02014	-15.99582	11.27051
2.02442	-15.99582	11.27051
2.02873	-15.97384	11.27051
2.03292	-15.97384	11.27051
2.03710	-15.97384	11.27051
2.04129	-15.95187	11.27051
2.04547	-15.95187	11.27051
2.04965	-15.95187	11.27051
2.05394	-15.92990	11.27051
2.05815	-15.92990	11.27051
2.06234	-15.90793	11.27051
2.06652	-15.90793	11.27051
2.07071	-15.90793	11.27051
2.07489	-15.90793	11.27051
2.07907	-15.88595	11.27051
2.08338	-15.86398	11.27051
2.08761	-15.86398	11.27051
2.09178	-15.86398	11.27051
2.09597	-15.86398	11.27051
2.10015	-15.84201	11.27051
2.10434	-15.84201	11.27051
2.10852	-15.82004	11.27051
2.11275	-15.82004	11.27051
2.11700	-15.79806	11.27051
2.12120	-15.79806	11.27051
2.12538	-15.79806	11.27051
2.12967	-15.79806	11.27051
2.13386	-15.77609	11.27051
2.13804	-15.77609	11.27051
2.14222	-15.75412	11.27051
2.14650	-15.75412	11.27051
2.15071	-15.75412	11.27051
2.15489	-15.73214	11.27051
2.15908	-15.71017	11.27051
2.16326	-15.73214	11.27051
2.16745	-15.71017	11.27051
2.17163	-15.71017	11.27051
2.17588	-15.68820	11.27051
2.18008	-15.68820	11.27051
2.18427	-15.68820	11.27051
2.18845	-15.66623	11.27051
2.19264	-15.66623	11.27051
2.19682	-15.66623	11.27051
2.20101	-15.64425	11.27051
2.20535	-15.64425	11.27051
2.20959	-15.62228	11.27051
2.21378	-15.62228	11.27051
2.21797	-15.60031	11.27051
2.22216	-15.60031	11.27051
2.22634	-15.60031	11.27051
2.23063	-15.60031	11.27051
2.23488	-15.57834	11.27051
2.23913	-15.57834	11.27051
2.24333	-15.57834	11.27051
2.24752	-15.55636	11.27051
2.25171	-15.53439	11.27051
2.25589	-15.53439	11.27051
2.26009	-15.53439	11.27051
2.26427	-15.53439	11.27051
2.26855	-15.51242	11.27051
2.27275	-15.51242	11.27051
2.27694	-15.51242	11.27051
2.28112	-15.49045	11.27051
2.28531	-15.49045	11.27051
2.28949	-15.49045	11.27051
2.29367	-15.46847	11.27051
2.29796	-15.46847	11.27051
2.30217	-15.46847	11.27051
2.30635	-15.46847	11.27051
2.31054	-15.44650	11.27051
2.31472	-15.44650	11.27051
2.31891	-15.42453	11.27051
2.32309	-15.42453	11.27051
2.32740	-15.42453	11.27051
2.33174	-15.42453	11.27051
2.33593	-15.40256	11.27051
2.34012	-15.40256	11.27051
2.34430	-15.38058	11.27051
2.34849	-15.38058	11.27051
2.35267	-15.38058	11.27051
2.35691	-15.35861	11.27051
2.36116	-15.35861	11.27051
2.36536	-15.35861	11.27051
2.36955	-15.33664	11.27051
2.37373	-15.33664	11.27051
2.37791	-15.31466	11.27051
2.38210	-15.31466	11.27051
2.38629	-15.31466	11.27051
2.39057	-15.31466	11.27051
2.39478	-15.29269	11.27051
2.39897	-15.29269	11.27051
2.40316	-15.29269	11.27051
2.40734	-15.29269	11.27051
2.41152	-15.29269	11.27051
2.41572	-15.27072	11.27051
2.42002	-15.27072	11.27051
2.42424	-15.24875	11.27051
2.42844	-15.24875	11.27051
2.43274	-15.24875	11.27051
2.43693	-15.24875	11.27051
2.44111	-15.22677	11.27051
2.44529	-15.22677	11.27051
2.44963	-15.22677	11.27051
2.45387	-15.20480	11.27051
2.45806	-15.20480	11.27051
2.46226	-15.20480	11.27051
2.46648	-15.20480	11.27051
2.47066	-15.18283	11.27051
2.47485	-15.18283	11.27051
2.47913	-15.16086	11.27051
2.48340	-15.16086	11.27051
2.48761	-15.16086	11.27051
2.49178	-15.13888	11.27051
2.49597	-15.13888	11.27051
2.50016	-15.13888	11.27051
2.50434	-15.13888	11.27051
2.50853	-15.11691	11.27051
2.51281	-15.11691	11.27051
2.51702	-15.11691	11.27051
2.52121	-15.11691	11.27051
2.52541	-15.09494	11.27051
2.52960	-15.09494	11.27051
2.53390	-15.07297	11.27051
2.53808	-15.07297	11.27051
2.54237	-15.07297	11.27051
2.54659	-15.07297	11.27051
2.55078	-15.05099	11.27051
2.55497	-15.05099	11.27051
2.55915	-15.05099	11.27051
2.56335	-15.02902	11.27051
2.56753	-15.02902	11.27051
2.57186	-15.02902	11.27051
2.57610	-15.00705	11.27051
2.58029	-15.00705	11.27051
2.58448	-15.00705	11.27051
2.58866	-15.00705	11.27051
2.59285	-15.00705	11.27051
2.59703	-14.98507	11.27051
2.60127	-14.96310	11.27051
2.60552	-14.96310	11.27051
2.60972	-14.96310	11.27051
2.61390	-14.96310	11.27051
2.61809	-14.94113	11.27051
2.62227	-14.94113	11.27051
2.62646	-14.94113	11.27051
2.63064	-14.91916	11.27051
2.63502	-14.91916	11.27051
2.63923	-14.89718	11.27051
2.64341	-14.89718	11.27051
2.64760	-14.89718	11.27051
2.65178	-14.89718	11.27051
2.65596	-14.87521	11.27051
2.66015	-14.87521	11.27051
2.66443	-14.85324	11.27051
2.66864	-14.85324	11.27051
2.67283	-14.85324	11.27051
2.67701	-14.85324	11.27051
2.68120	-14.83127	11.27051
2.68538	-14.83127	11.27051
2.68956	-14.80929	11.27051
2.69387	-14.80929	11.27051
2.69810	-14.80929	11.27051
2.70229	-14.80929	11.27051
2.70647	-14.78732	11.27051
2.71066	-14.78732	11.27051
2.71485	-14.76535	11.27051
2.71903	-14.76535	11.27051
2.72326	-14.76535	11.27051
2.72752	-14.74338	11.27051
2.73173	-14.74338	11.27051
2.73602	-14.74338	11.27051
2.74021	-14.72140	11.27051
2.74439	-14.69943	11.27051
2.74857	-14.69943	11.27051
2.75276	-14.69943	11.27051
2.75704	-14.69943	11.27051
2.76124	-14.67746	11.27051
2.76543	-14.65548	11.27051
2.76962	-14.65548	11.27051
2.77380	-14.65548	11.27051
2.77799	-14.63351	11.27051
2.78217	-14.63351	11.27051
2.78645	-14.61154	11.27051
2.79067	-14.61154	11.27051
2.79486	-14.58957	11.27051
2.79905	-14.58957	11.27051
2.80323	-14.58957	11.27051
2.80741	-14.58957	11.27051
2.81160	-14.56759	11.27051
2.81590	-14.54562	11.27051
2.82013	-14.54562	11.27051
2.82432	-14.52365	11.27051
2.82850	-14.52365	11.27051
2.83269	-14.52365	11.27051
2.83697	-14.52365	11.27051
2.84116	-14.50168	11.27051
2.84542	-14.47970	11.27051
2.84968	-14.47970	11.27051
2.85388	-14.47970	11.27051
2.85807	-14.47970	11.27051
2.86226	-14.45773	11.27051
2.86645	-14.43576	11.27051
2.87064	-14.43576	11.27051
2.87482	-14.43576	11.27051
2.87911	-14.43576	11.27051
2.88332	-14.41379	11.27051
2.88750	-14.41379	11.27051
2.89170	-14.39181	11.27051
2.89588	-14.39181	11.27051
2.90006	-14.36984	11.27051
2.90425	-14.36984	11.27051
2.90853	-14.36984	11.27051
2.91274	-14.36984	11.27051
2.91693	-14.32589	11.27051
2.92112	-14.32589	11.27051
2.92530	-14.32589	11.27051
2.92949	-14.32589	11.27051
2.93367	-14.30392	11.27051
2.93810	-14.30392	11.27051
2.94231	-14.28195	11.27051
2.94650	-14.28195	11.27051
2.95068	-14.25998	11.27051
2.95487	-14.25998	11.27051
2.95905	-14.25998	11.27051
2.96323	-14.23800	11.27051
2.96748	-14.23800	11.27051
2.97174	-14.21603	11.27051
2.97595	-14.21603	11.27051
2.98014	-14.19406	11.27051
2.98432	-14.19406	11.27051
2.98851	-14.19406	11.27051
2.99269	-14.19406	11.27051
2.99688	-14.17209	11.27051
3.00115	-14.15011	11.27051
3.00536	-14.15011	11.27051
3.00954	-14.15011	11.27051
3.01373	-14.15011	11.27051
3.01791	-14.12814	11.27051
3.02210	-14.10617	11.27051
3.02628	-14.10617	11.27051
3.03056	-14.10617	11.27051
3.03478	-14.10617	11.27051
3.03907	-14.08420	11.27051
3.04325	-14.08420	11.27051
3.04744	-14.06222	11.27051
3.05162	-14.06222	11.27051
3.05577	-14.04025	11.27051
3.06009	-14.04025	11.27051
3.06432	-14.04025	11.27051
3.06852	-14.04025	11.27051
3.07270	-14.01828	11.27051
3.07688	-14.01828	11.27051
3.08107	-13.99631	11.27051
3.08525	-13.99631	11.27051
3.08948	-13.99631	11.27051
3.09373	-13.97433	11.27051
3.09793	-13.97433	11.27051
3.10212	-13.95236	11.27051
3.10630	-13.95236	11.27051
3.11049	-13.95236	11.27051
3.11467	-13.95236	11.27051
3.11885	-13.93039	11.27051
3.12313	-13.93039	11.27051
3.12734	-13.90841	11.27051
3.13153	-13.90841	11.27051
3.13572	-13.90841	11.27051
3.14001	-13.90841	11.27051
3.14419	-13.88644	11.27051
3.14838	-13.88644	11.27051
3.15266	-13.88644	11.27051
3.15688	-13.86447	11.27051
3.16107	-13.86447	11.27051
3.16525	-13.86447	11.27051
3.16945	-13.86447	11.27051
3.17363	-13.84250	11.27051
3.17781	-13.84250	11.27051
3.18212	-13.84250	11.27051
3.18635	-13.82052	11.27051
3.19055	-13.82052	11.27051
3.19473	-13.82052	11.27051
3.19892	-13.82052	11.27051
3.20310	-13.79855	11.27051
3.20729	-13.79855	11.27051
3.21155	-13.79855	11.27051
3.21582	-13.79855	11.27051
3.22002	-13.77658	11.27051
3.22421	-13.77658	11.27051
3.22839	-13.77658	11.27051
3.23258	-13.77658	11.27051
3.23676	-13.77658	11.27051
3.24105	-13.75461	11.27051
3.24532	-13.75461	11.27051
3.24953	-13.77658	11.27051
3.25371	-13.75461	11.27051
3.25790	-13.75461	11.27051
3.26208	-13.75461	11.27051
3.26627	-13.75461	11.27051
3.27046	-13.75461	11.27051
3.27475	-13.75461	11.27051
3.27896	-13.73263	11.27051
3.28315	-13.75461	11.27051
3.28734	-13.73263	11.27051
3.29152	-13.73263	11.27051
3.29572	-13.73263	11.27051
3.29990	-13.73263	11.27051
3.30421	-13.73263	11.27051
3.30844	-13.73263	11.27051
3.31263	-13.73263	11.27051
3.31682	-13.73263	11.27051
3.32100	-13.73263	11.27051
3.32518	-13.73263	11.27051
3.32937	-13.73263	11.27051
3.33359	-13.73263	11.27051
3.33784	-13.73263	11.27051
3.34215	-13.73263	11.27051
3.34633	-13.73263	11.27051
3.35052	-13.73263	11.27051
3.35470	-13.73263	11.27051
3.35888	-13.73263	11.27051
3.36307	-13.73263	11.27051
3.36735	-13.73263	11.27051
3.37157	-13.73263	11.27051
3.37577	-13.73263	11.27051
3.37995	-13.73263	11.27051
3.38414	-13.75461	11.27051
3.38832	-13.75461	11.27051
3.39251	-13.75461	11.27051
3.39680	-13.75461	11.27051
3.40101	-13.75461	11.27051
3.40520	-13.75461	11.27051
3.40939	-13.75461	11.27051
3.41357	-13.75461	11.27051
3.41776	-13.77658	11.27051
3.42196	-13.77658	11.27051
3.42629	-13.77658	11.27051
3.43053	-13.77658	11.27051
3.43472	-13.77658	11.27051
3.43890	-13.77658	11.27051
3.44323	-13.79855	11.27051
3.44742	-13.79855	11.27051
3.45161	-13.79855	11.27051
3.45585	-13.79855	11.27051
3.46011	-13.79855	11.27051
3.46436	-13.82052	11.27051
3.46855	-13.82052	11.27051
3.47274	-13.82052	11.27051
3.47692	-13.82052	11.27051
3.48111	-13.82052	11.27051
3.48530	-13.82052	11.27051
3.48958	-13.84250	11.27051
3.49379	-13.84250	11.27051
3.49798	-13.86447	11.27051
3.50217	-13.86447	11.27051
3.50635	-13.86447	11.27051
3.51054	-13.86447	11.27051
3.51472	-13.86447	11.27051
3.51901	-13.88644	11.27051
3.52322	-13.88644	11.27051
3.52741	-13.88644	11.27051
3.53160	-13.88644	11.27051
3.53578	-13.90841	11.27051
3.53996	-13.90841	11.27051
3.54425	-13.90841	11.27051
3.54857	-13.93039	11.27051
3.55280	-13.93039	11.27051
3.55699	-13.93039	11.27051
3.56118	-13.95236	11.27051
3.56537	-13.95236	11.27051
3.56955	-13.95236	11.27051
3.57374	-13.95236	11.27051
3.57797	-13.97433	11.27051
3.58223	-13.97433	11.27051
3.58643	-13.97433	11.27051
3.59061	-13.99631	11.27051
3.59480	-13.99631	11.27051
3.59898	-13.99631	11.27051
3.60317	-14.01828	11.27051
3.60735	-14.01828	11.27051
3.61163	-14.04025	11.27051
3.61579	-14.04025	11.27051
3.61998	-14.04025	11.27051
3.62417	-14.04025	11.27051
3.62835	-14.06222	11.27051
3.63254	-14.06222	11.27051
3.63672	-14.06222	11.27051
3.64100	-14.08420	11.27051
3.64531	-14.08420	11.27051
3.64950	-14.10617	11.27051
3.65369	-14.10617	11.27051
3.65787	-14.12814	11.27051
3.66205	-14.12814	11.27051
3.66624	-14.12814	11.27051
3.67055	-14.15011	11.27051
3.67479	-14.15011	11.27051
3.67898	-14.15011	11.27051
3.68316	-14.15011	11.27051
3.68735	-14.17209	11.27051
3.69153	-14.19406	11.27051
3.69573	-14.19406	11.27051
3.69997	-14.19406	11.27051
3.70422	-14.21603	11.27051
3.70842	-14.21603	11.27051
3.71261	-14.21603	11.27051
3.71679	-14.23800	11.27051
3.72097	-14.23800	11.27051
3.72516	-14.25998	11.27051
3.72934	-14.25998	11.27051
3.73362	-14.28195	11.27051
3.73782	-14.28195	11.27051
3.74201	-14.28195	11.27051
3.74630	-14.30392	11.27051
3.75048	-14.30392	11.27051
3.75467	-14.30392	11.27051
3.75885	-14.32589	11.27051
3.76314	-14.32589	11.27051
3.76735	-14.32589	11.27051
3.77153	-14.34787	11.27051
3.77573	-14.34787	11.27051
3.77991	-14.36984	11.27051
3.78410	-14.36984	11.27051
3.78828	-14.39181	11.27051
3.79258	-14.39181	11.27051
3.79681	-14.39181	11.27051
3.80100	-14.39181	11.27051
3.80519	-14.41379	11.27051
3.80937	-14.41379	11.27051
3.81355	-14.43576	11.27051
3.81774	-14.43576	11.27051
3.82197	-14.43576	11.27051
3.82621	-14.45773	11.27051
3.83041	-14.45773	11.27051
3.83460	-14.47970	11.27051
3.83878	-14.47970	11.27051
3.84297	-14.47970	11.27051
3.84725	-14.50168	11.27051
3.85143	-14.50168	11.27051
3.85573	-14.52365	11.27051
3.85995	-14.52365	11.27051
3.86413	-14.52365	11.27051
3.86832	-14.52365	11.27051
3.87250	-14.54562	11.27051
3.87668	-14.54562	11.27051
3.88087	-14.54562	11.27051
3.88515	-14.56759	11.27051
3.88936	-14.58957	11.27051
3.89355	-14.58957	11.27051
3.89774	-14.58957	11.27051
3.90192	-14.58957	11.27051
3.90610	-14.61154	11.27051
3.91029	-14.61154	11.27051
3.91458	-14.61154	11.27051
3.91881	-14.63351	11.27051
3.92300	-14.63351	11.27051
3.92718	-14.63351	11.27051
3.93137	-14.65548	11.27051
3.93555	-14.65548	11.27051
3.93974	-14.65548	11.27051
3.94397	-14.65548	11.27051
3.94833	-14.67746	11.27051
3.95252	-14.67746	11.27051
3.95671	-14.67746	11.27051
3.96089	-14.69943	11.27051
3.96508	-14.69943	11.27051
3.96926	-14.72140	11.27051
3.97344	-14.72140	11.27051
3.97772	-14.72140	11.27051
3.98192	-14.72140	11.27051
3.98611	-14.72140	11.27051
3.99029	-14.74338	11.27051
3.99448	-14.74338	11.27051
3.99866	-14.76535	11.27051
4.00285	-14.76535	11.27051
4.00713	-14.76535	11.27051
4.01134	-14.78732	11.27051
4.01552	-14.78732	11.27051
4.01972	-14.78732	11.27051
4.02390	-14.78732	11.27051
4.02808	-14.78732	11.27051
4.03227	-14.80929	11.27051
4.03657	-14.80929	11.27051
4.04082	-14.80929	11.27051
4.04503	-14.83127	11.27051
4.04939	-14.83127	11.27051
4.05362	-14.83127	11.27051
4.05785	-14.83127	11.27051
4.06208	-14.83127	11.27051
4.06736	-14.85324	11.27051
4.07166	-14.85324	11.27051
4.07587	-14.85324	11.27051
4.08006	-14.87521	11.27051
4.08425	-14.87521	11.27051
4.08844	-14.87521	11.27051
4.09263	-14.87521	11.27051
4.09687	-14.87521	11.27051
4.10112	-14.89718	11.27051
4.10532	-14.89718	11.27051
4.10952	-14.89718	11.27051
4.11371	-14.89718	11.27051
4.11790	-14.91916	11.27051
4.12209	-14.91916	11.27051
4.12628	-14.91916	11.27051
4.13056	-14.91916	11.27051
4.13477	-14.91916	11.27051
4.13896	-14.91916	11.27051
4.14314	-14.91916	11.27051
4.14733	-14.94113	11.27051
4.15161	-14.94113	11.27051
4.15577	-14.94113	11.27051
4.16006	-14.94113	11.27051
4.16427	-14.96310	11.27051
4.16845	-14.96310	11.27051
4.17264	-14.96310	11.27051
4.17683	-14.96310	11.27051
4.18101	-14.96310	11.27051
4.18519	-14.96310	11.27051
4.18949	-14.96310	11.27051
4.19373	-14.96310	11.27051
4.19791	-14.96310	11.27051
4.20210	-14.98507	11.27051
4.20629	-14.98507	11.27051
4.21048	-14.98507	11.27051
4.21467	-14.98507	11.27051
4.21892	-14.98507	11.27051
4.22318	-14.98507	11.27051
4.22738	-14.98507	11.27051
4.23157	-15.00705	11.27051
4.23576	-15.00705	11.27051
4.23994	-15.00705	11.27051
4.24413	-15.00705	11.27051
4.24831	-15.00705	11.27051
4.25269	-15.00705	11.27051
4.25690	-15.00705	11.27051
4.26109	-15.00705	11.27051
4.26528	-15.00705	11.27051
4.26946	-15.00705	11.27051
4.27364	-15.00705	11.27051
4.27783	-15.02902	11.27051
4.28212	-15.02902	11.27051
4.28632	-15.02902	11.27051
4.29051	-15.02902	11.27051
4.29470	-15.02902	11.27051
4.29888	-15.02902	11.27051
4.30306	-15.02902	11.27051
4.30724	-15.05099	11.27051
4.31155	-15.02902	11.27051
4.31579	-15.02902	11.27051
4.31998	-15.02902	11.27051
4.32417	-15.02902	11.27051
4.32836	-15.02902	11.27051
4.33254	-15.02902	11.27051
4.33673	-15.05099	11.27051
4.34096	-15.05099	11.27051
4.34521	-15.05099	11.27051
4.34941	-15.05099	11.27051
4.35370	-15.05099	11.27051
4.35789	-15.05099	11.27051
4.36207	-15.05099	11.27051
4.36626	-15.05099	11.27051
4.37044	-15.05099	11.27051
4.37471	-15.05099	11.27051
4.37893	-15.05099	11.27051
4.38313	-15.05099	11.27051
4.38731	-15.05099	11.27051
4.39149	-15.05099	11.27051
4.39568	-15.05099	11.27051
4.39987	-15.05099	11.27051
4.40415	-15.05099	11.27051
4.40836	-15.05099	11.27051
4.41255	-15.05099	11.27051
4.41673	-15.05099	11.27051
4.42094	-15.07297	11.27051
4.42513	-15.07297	11.27051
4.42931	-15.05099	11.27051
4.43367	-15.05099	11.27051
4.43791	-15.05099	11.27051
4.44226	-15.05099	11.27051
4.44661	-15.05099	11.27051
4.45084	-15.05099	11.27051
4.45515	-15.05099	11.27051
4.45934	-15.05099	11.27051
4.46383	-15.07297	11.27051
4.46813	-15.05099	11.27051
4.47234	-15.05099	11.27051
4.47653	-15.05099	11.27051
4.48073	-15.05099	11.27051
4.48492	-15.05099	11.27051
4.48911	-15.05099	11.27051
4.49330	-15.05099	11.27051
4.49759	-15.05099	11.27051
4.50181	-15.05099	11.27051
4.50600	-15.05099	11.27051
4.51019	-15.05099	11.27051
4.51438	-15.05099	11.27051
4.51857	-15.02902	11.27051
4.52276	-15.05099	11.27051
4.52706	-15.05099	11.27051
4.53127	-15.05099	11.27051
4.53547	-15.05099	11.27051
4.53967	-15.05099	11.27051
4.54390	-15.02902	11.27051
4.54811	-15.05099	11.27051
4.55231	-15.05099	11.27051
4.55689	-15.02902	11.27051
4.56113	-15.02902	11.27051
4.56532	-15.02902	11.27051
4.56952	-15.02902	11.27051
4.57371	-15.02902	11.27051
4.57790	-15.02902	11.27051
4.58209	-15.02902	11.27051
4.58635	-15.02902	11.27051
4.59061	-15.02902	11.27051
4.59481	-15.02902	11.27051
4.59899	-15.02902	11.27051
4.60318	-15.02902	11.27051
4.60736	-15.02902	11.27051
4.61155	-15.02902	11.27051
4.61574	-15.02902	11.27051
4.62002	-15.02902	11.27051
4.62423	-15.02902	11.27051
4.62841	-15.02902	11.27051
4.63260	-15.02902	11.27051
4.63678	-15.02902	11.27051
4.64096	-15.02902	11.27051
4.64515	-15.02902	11.27051
4.64943	-15.02902	11.27051
4.65364	-15.02902	11.27051
4.65794	-15.02902	11.27051
4.66212	-15.02902	11.27051
4.66630	-15.00705	11.27051
4.67049	-15.02902	11.27051
4.67467	-15.02902	11.27051
4.67899	-15.02902	11.27051
4.68328	-15.02902	11.27051
4.68747	-15.02902	11.27051
4.69167	-15.02902	11.27051
4.69586	-15.02902	11.27051
4.70004	-15.02902	11.27051
4.70423	-15.02902	11.27051
4.70848	-15.02902	11.27051
4.71274	-15.02902	11.27051
4.71694	-15.02902	11.27051
4.72113	-15.02902	11.27051
4.72531	-15.02902	11.27051
4.72950	-15.05099	11.27051
4.73368	-15.02902	11.27051
4.73787	-15.02902	11.27051
4.74215	-15.05099	11.27051
4.74636	-15.05099	11.27051
4.75055	-15.05099	11.27051
4.75474	-15.05099	11.27051
4.75903	-15.05099	11.27051
4.76321	-15.05099	11.27051
4.76740	-15.05099	11.27051
4.77170	-15.05099	11.27051
4.77592	-15.05099	11.27051
4.78011	-15.05099	11.27051
4.78429	-15.07297	11.27051
4.78848	-15.05099	11.27051
4.79266	-15.05099	11.27051
4.79684	-15.05099	11.27051
4.80117	-15.07297	11.27051
4.80540	-15.07297	11.27051
4.80959	-15.07297	11.27051
4.81377	-15.07297	11.27051
4.81796	-15.07297	11.27051
4.82214	-15.07297	11.27051
4.82632	-15.07297	11.27051
4.83056	-15.07297	11.27051
4.83481	-15.09494	11.27051
4.83901	-15.09494	11.27051
4.84320	-15.09494	11.27051
4.84738	-15.09494	11.27051
4.85157	-15.09494	11.27051
4.85576	-15.09494	11.27051
4.86005	-15.09494	11.27051
4.86432	-15.09494	11.27051
4.86853	-15.11691	11.27051
4.87271	-15.11691	11.27051
4.87690	-15.11691	11.27051
4.88108	-15.11691	11.27051
4.88528	-15.13888	11.27051
4.88946	-15.11691	11.27051
4.89375	-15.13888	11.27051
4.89796	-15.13888	11.27051
4.90215	-15.13888	11.27051
4.90633	-15.13888	11.27051
4.91052	-15.13888	11.27051
4.91470	-15.13888	11.27051
4.91889	-15.13888	11.27051
4.92319	-15.13888	11.27051
4.92742	-15.16086	11.27051
4.93161	-15.16086	11.27051
4.93577	-15.16086	11.27051
4.93996	-15.16086	11.27051
4.94415	-15.16086	11.27051
4.94833	-15.18283	11.27051
4.95257	-15.18283	11.27051
4.95682	-15.18283	11.27051
4.96113	-15.18283	11.27051
4.96531	-15.20480	11.27051
4.96950	-15.20480	11.27051
4.97368	-15.20480	11.27051
4.97786	-15.20480	11.27051
4.98205	-15.20480	11.27051
4.98633	-15.22677	11.27051
4.99054	-15.22677	11.27051
4.99473	-15.22677	11.27051
4.99892	-15.22677	11.27051
5.00310	-15.22677	11.27051
5.00728	-15.22677	11.27051
5.01147	-15.24875	11.27051
5.01577	-15.24875	11.27051
5.01998	-15.24875	11.27051
5.02417	-15.24875	11.27051
5.02835	-15.24875	11.27051
5.03254	-15.24875	11.27051
5.03672	-15.27072	11.27051
5.04090	-15.27072	11.27051
5.04528	-15.27072	11.27051
5.04952	-15.27072	11.27051
5.05371	-15.27072	11.27051
5.05790	-15.29269	11.27051
5.06219	-15.29269	11.27051
5.06637	-15.29269	11.27051
5.07055	-15.29269	11.27051
5.07480	-15.29269	11.27051
5.07905	-15.31466	11.27051
5.08325	-15.31466	11.27051
5.08753	-15.31466	11.27051
5.09175	-15.31466	11.27051
5.09596	-15.31466	11.27051
5.10017	-15.31466	11.27051
5.10461	-15.33664	11.27051
5.10898	-15.33664	11.27051
5.11322	-15.33664	11.27051
5.11743	-15.33664	11.27051
5.12164	-15.33664	11.27051
5.12584	-15.33664	11.27051
5.13005	-15.35861	11.27051
5.13426	-15.33664	11.27051
5.13867	-15.35861	11.27051
5.14293	-15.35861	11.27051
5.14714	-15.35861	11.27051
5.15135	-15.35861	11.27051
5.15556	-15.35861	11.27051
5.15978	-15.35861	11.27051
5.16413	-15.35861	11.27051
5.16854	-15.35861	11.27051
5.17282	-15.35861	11.27051
5.17702	-15.38058	11.27051
5.18123	-15.38058	11.27051
5.18544	-15.38058	11.27051
5.18964	-15.38058	11.27051
5.19385	-15.38058	11.27051
5.19927	-15.38058	11.27051
5.20356	-15.38058	11.27051
5.20778	-15.38058	11.27051
5.21198	-15.38058	11.27051
5.21617	-15.40256	11.27051
5.22036	-15.38058	11.27051
5.22455	-15.40256	11.27051
5.22880	-15.40256	11.27051
5.23305	-15.40256	11.27051
5.23726	-15.40256	11.27051
5.24146	-15.40256	11.27051
5.24566	-15.40256	11.27051
5.24985	-15.40256	11.27051
5.25404	-15.40256	11.27051
5.25823	-15.40256	11.27051
5.26252	-15.42453	11.27051
5.26685	-15.40256	11.27051
5.27104	-15.40256	11.27051
5.27523	-15.40256	11.27051
5.27942	-15.40256	11.27051
5.28360	-15.40256	11.27051
5.28777	-15.42453	11.27051
5.29207	-15.40256	11.27051
5.29628	-15.42453	11.27051
5.30047	-15.42453	11.27051
5.30465	-15.40256	11.27051
5.30884	-15.40256	11.27051
5.31302	-15.42453	11.27051
5.31721	-15.40256	11.27051
5.32153	-15.42453	11.27051
5.32577	-15.40256	11.27051
5.32996	-15.42453	11.27051
5.33414	-15.42453	11.27051
5.33832	-15.42453	11.27051
5.34251	-15.42453	11.27051
5.34669	-15.42453	11.27051
5.35092	-15.40256	11.27051
5.35517	-15.42453	11.27051
5.35937	-15.42453	11.27051
5.36356	-15.42453	11.27051
5.36786	-15.42453	11.27051
5.37204	-15.40256	11.27051
5.37623	-15.42453	11.27051
5.38041	-15.42453	11.27051
5.38473	-15.40256	11.27051
5.38895	-15.40256	11.27051
5.39314	-15.42453	11.27051
5.39733	-15.40256	11.27051
5.40151	-15.42453	11.27051
5.40569	-15.40256	11.27051
5.40988	-15.40256	11.27051
5.41417	-15.40256	11.27051
5.41838	-15.40256	11.27051
5.42261	-15.40256	11.27051
5.42680	-15.40256	11.27051
5.43099	-15.40256	11.27051
5.43517	-15.40256	11.27051
5.43936	-15.40256	11.27051
5.44371	-15.40256	11.27051
5.44797	-15.40256	11.27051
5.45218	-15.40256	11.27051
5.45637	-15.40256	11.27051
5.46057	-15.40256	11.27051
5.46478	-15.40256	11.27051
5.46908	-15.38058	11.27051
5.47335	-15.38058	11.27051
5.47761	-15.38058	11.27051
5.48180	-15.38058	11.27051
5.48599	-15.38058	11.27051
5.49018	-15.35861	11.27051
5.49437	-15.35861	11.27051
5.49855	-15.35861	11.27051
5.50274	-15.35861	11.27051
5.50702	-15.35861	11.27051
5.51122	-15.35861	11.27051
5.51541	-15.35861	11.27051
5.51959	-15.35861	11.27051
5.52377	-15.35861	11.27051
5.52796	-15.33664	11.27051
5.53214	-15.33664	11.27051
5.53643	-15.33664	11.27051
5.54064	-15.33664	11.27051
5.54483	-15.33664	11.27051
5.54902	-15.33664	11.27051
5.55320	-15.31466	11.27051
5.55739	-15.31466	11.27051
5.56157	-15.31466	11.27051
5.56589	-15.29269	11.27051
5.57023	-15.29269	11.27051
5.57442	-15.29269	11.27051
5.57860	-15.29269	11.27051
5.58279	-15.29269	11.27051
5.58697	-15.27072	11.27051
5.59116	-15.27072	11.27051
5.59539	-15.24875	11.27051
5.59966	-15.24875	11.27051
5.60386	-15.24875	11.27051
5.60805	-15.24875	11.27051
5.61224	-15.24875	11.27051
5.61642	-15.22677	11.27051
5.62060	-15.22677	11.27051
5.62479	-15.22677	11.27051
5.62907	-15.22677	11.27051
5.63327	-15.22677	11.27051
5.63746	-15.20480	11.27051
5.64164	-15.20480	11.27051
5.64583	-15.20480	11.27051
5.65001	-15.20480	11.27051
5.65419	-15.18283	11.27051
5.65848	-15.18283	11.27051
5.66269	-15.18283	11.27051
5.66688	-15.16086	11.27051
5.67117	-15.16086	11.27051
5.67536	-15.16086	11.27051
5.67954	-15.16086	11.27051
5.68374	-15.13888	11.27051
5.68806	-15.13888	11.27051
5.69230	-15.13888	11.27051
5.69649	-15.13888	11.27051
5.70067	-15.11691	11.27051
5.70486	-15.11691	11.27051
5.70904	-15.09494	11.27051
5.71323	-15.09494	11.27051
5.71746	-15.07297	11.27051
5.72171	-15.07297	11.27051
5.72591	-15.07297	11.27051
5.73010	-15.07297	11.27051
5.73429	-15.05099	11.27051
5.73847	-15.05099	11.27051
5.74265	-15.05099	11.27051
5.74684	-15.02902	11.27051
5.75112	-15.02902	11.27051
5.75534	-15.02902	11.27051
5.75953	-15.00705	11.27051
5.76372	-15.00705	11.27051
5.76791	-15.00705	11.27051
5.77220	-14.98507	11.27051
5.77639	-14.98507	11.27051
5.78067	-14.98507	11.27051
5.78488	-14.98507	11.27051
5.78907	-14.96310	11.27051
5.79326	-14.96310	11.27051
5.79744	-14.94113	11.27051
5.80163	-14.91916	11.27051
5.80581	-14.91916	11.27051
5.81013	-14.91916	11.27051
5.81436	-14.91916	11.27051
5.81855	-14.89718	11.27051
5.82273	-14.89718	11.27051
5.82692	-14.89718	11.27051
5.83110	-14.87521	11.27051
5.83529	-14.87521	11.27051
5.83952	-14.87521	11.27051
5.84379	-14.85324	11.27051
5.84798	-14.85324	11.27051
5.85217	-14.83127	11.27051
5.85635	-14.83127	11.27051
5.86054	-14.83127	11.27051
5.86472	-14.83127	11.27051
5.86891	-14.80929	11.27051
5.87329	-14.78732	11.27051
5.87748	-14.78732	11.27051
5.88167	-14.78732	11.27051
5.88585	-14.78732	11.27051
5.89004	-14.76535	11.27051
5.89423	-14.76535	11.27051
5.89841	-14.76535	11.27051
5.90270	-14.74338	11.27051
5.90691	-14.74338	11.27051
5.91110	-14.74338	11.27051
5.91528	-14.72140	11.27051
5.91947	-14.72140	11.27051
5.92366	-14.69943	11.27051
5.92784	-14.69943	11.27051
5.93215	-14.69943	11.27051
5.93638	-14.69943	11.27051
5.94057	-14.67746	11.27051
5.94476	-14.67746	11.27051
5.94894	-14.67746	11.27051
5.95312	-14.65548	11.27051
5.95731	-14.65548	11.27051
5.96155	-14.65548	11.27051
5.96581	-14.63351	11.27051
5.97001	-14.63351	11.27051
5.97430	-14.63351	11.27051
5.97848	-14.61154	11.27051
5.98267	-14.61154	11.27051
5.98685	-14.61154	11.27051
5.99103	-14.61154	11.27051
5.99533	-14.58957	11.27051
5.99954	-14.58957	11.27051
6.00374	-14.58957	11.27051
6.00793	-14.56759	11.27051
6.01212	-14.56759	11.27051
6.01632	-14.56759	11.27051
6.02050	-14.56759	11.27051
6.02479	-14.54562	11.27051
6.02900	-14.54562	11.27051
6.03318	-14.54562	11.27051
6.03737	-14.54562	11.27051
6.04155	-14.52365	11.27051
6.04574	-14.52365	11.27051
6.04992	-14.52365	11.27051
6.05423	-14.50168	11.27051
6.05846	-14.50168	11.27051
6.06265	-14.50168	11.27051
6.06683	-14.50168	11.27051
6.07102	-14.50168	11.27051
6.07530	-14.47970	11.27051
6.07949	-14.47970	11.27051
6.08373	-14.45773	11.27051
6.08798	-14.47970	11.27051
6.09218	-14.45773	11.27051
6.09637	-14.45773	11.27051
6.10056	-14.45773	11.27051
6.10474	-14.45773	11.27051
6.10892	-14.43576	11.27051
6.11311	-14.43576	11.27051
6.11738	-14.43576	11.27051
6.12159	-14.43576	11.27051
6.12578	-14.43576	11.27051
6.12997	-14.41379	11.27051
6.13415	-14.41379	11.27051
6.13833	-14.41379	11.27051
6.14251	-14.41379	11.27051
6.14680	-14.41379	11.27051
6.15101	-14.39181	11.27051
6.15520	-14.39181	11.27051
6.15939	-14.39181	11.27051
6.16357	-14.39181	11.27051
6.16777	-14.39181	11.27051
6.17195	-14.39181	11.27051
6.17639	-14.39181	11.27051
6.18060	-14.39181	11.27051
6.18479	-14.36984	11.27051
6.18897	-14.36984	11.27051
6.19316	-14.36984	11.27051
6.19734	-14.36984	11.27051
6.20153	-14.36984	11.27051
6.20579	-14.36984	11.27051
6.21004	-14.34787	11.27051
6.21424	-14.34787	11.27051
6.21843	-14.34787	11.27051
6.22261	-14.34787	11.27051
6.22680	-14.34787	11.27051
6.23098	-14.34787	11.27051
6.23516	-14.34787	11.27051
6.23944	-14.32589	11.27051
6.24366	-14.32589	11.27051
6.24785	-14.32589	11.27051
6.25203	-14.32589	11.27051
6.25622	-14.32589	11.27051
6.26040	-14.32589	11.27051
6.26458	-14.32589	11.27051
6.26887	-14.32589	11.27051
6.27308	-14.32589	11.27051
6.27738	-14.32589	11.27051
6.28156	-14.30392	11.27051
6.28574	-14.30392	11.27051
6.28993	-14.30392	11.27051
6.29411	-14.30392	11.27051
6.29842	-14.30392	11.27051
6.30265	-14.30392	11.27051
6.30684	-14.30392	11.27051
6.31102	-14.30392	11.27051
6.31521	-14.30392	11.27051
6.31939	-14.28195	11.27051
6.32358	-14.28195	11.27051
6.32782	-14.28195	11.27051
6.33207	-14.28195	11.27051
6.33627	-14.28195	11.27051
6.34046	-14.28195	11.27051
6.34464	-14.28195	11.27051
6.34883	-14.28195	11.27051
6.35301	-14.28195	11.27051
6.35720	-14.28195	11.27051
6.36147	-14.28195	11.27051
6.36567	-14.28195	11.27051
6.36986	-14.28195	11.27051
6.37405	-14.28195	11.27051
6.37833	-14.28195	11.27051
6.38255	-14.28195	11.27051
6.38675	-14.28195	11.27051
6.39104	-14.25998	11.27051
6.39526	-14.25998	11.27051
6.39945	-14.25998	11.27051
6.40365	-14.25998	11.27051
6.40784	-14.25998	11.27051
6.41203	-14.25998	11.27051
6.41621	-14.25998	11.27051
6.42055	-14.25998	11.27051
6.42480	-14.25998	11.27051
6.42900	-14.25998	11.27051
6.43319	-14.25998	11.27051
6.43737	-14.25998	11.27051
6.44156	-14.25998	11.27051
6.44574	-14.25998	11.27051
6.44999	-14.25998	11.27051
6.45424	-14.25998	11.27051
6.45845	-14.25998	11.27051
6.46264	-14.25998	11.27051
6.46686	-14.25998	11.27051
6.47106	-14.25998	11.27051
6.47524	-14.28195	11.27051
6.47953	-14.25998	11.27051
6.48382	-14.25998	11.27051
6.48803	-14.25998	11.27051
6.49222	-14.28195	11.27051
6.49641	-14.28195	11.27051
6.50059	-14.28195	11.27051
6.50478	-14.28195	11.27051
6.50896	-14.28195	11.27051
6.51325	-14.28195	11.27051
6.51746	-14.28195	11.27051
6.52165	-14.28195	11.27051
6.52584	-14.28195	11.27051
6.53002	-14.28195	11.27051
6.53420	-14.28195	11.27051
6.53839	-14.28195	11.27051
6.54270	-14.28195	11.27051
6.54693	-14.28195	11.27051
6.55111	-14.28195	11.27051
6.55530	-14.30392	11.27051
6.55948	-14.30392	11.27051
6.56368	-14.30392	11.27051
6.56787	-14.30392	11.27051
6.57212	-14.30392	11.27051
6.57638	-14.30392	11.27051
6.58068	-14.30392	11.27051
6.58486	-14.30392	11.27051
6.58905	-14.30392	11.27051
6.59324	-14.30392	11.27051
6.59743	-14.32589	11.27051
6.60161	-14.32589	11.27051
6.60589	-14.32589	11.27051
6.61010	-14.32589	11.27051
6.61429	-14.32589	11.27051
6.61847	-14.32589	11.27051
6.62266	-14.34787	11.27051
6.62684	-14.34787	11.27051
6.63103	-14.34787	11.27051
6.63531	-14.34787	11.27051
6.63953	-14.34787	11.27051
6.64373	-14.34787	11.27051
6.64791	-14.34787	11.27051
6.65210	-14.36984	11.27051
6.65628	-14.36984	11.27051
6.66047	-14.36984	11.27051
6.66479	-14.36984	11.27051
6.66903	-14.36984	11.27051
6.67322	-14.36984	11.27051
6.67741	-14.39181	11.27051
6.68170	-14.39181	11.27051
6.68588	-14.39181	11.27051
6.69007	-14.39181	11.27051
6.69431	-14.39181	11.27051
6.69857	-14.41379	11.27051
6.70276	-14.41379	11.27051
6.70695	-14.41379	11.27051
6.71114	-14.41379	11.27051
6.71532	-14.41379	11.27051
6.71951	-14.43576	11.27051
6.72370	-14.43576	11.27051
6.72798	-14.43576	11.27051
6.73218	-14.43576	11.27051
6.73637	-14.43576	11.27051
6.74055	-14.45773	11.27051
6.74474	-14.45773	11.27051
6.74892	-14.45773	11.27051
6.75310	-14.47970	11.27051
6.75739	-14.47970	11.27051
6.76160	-14.47970	11.27051
6.76579	-14.47970	11.27051
6.76997	-14.47970	11.27051
6.77416	-14.47970	11.27051
6.77834	-14.47970	11.27051
6.78263	-14.50168	11.27051
6.78694	-14.50168	11.27051
6.79118	-14.50168	11.27051
6.79537	-14.52365	11.27051
6.79956	-14.52365	11.27051
6.80375	-14.52365	11.27051
6.80794	-14.52365	11.27051
6.81212	-14.54562	11.27051
6.81636	-14.54562	11.27051
6.82061	-14.54562	11.27051
6.82481	-14.54562	11.27051
6.82899	-14.56759	11.27051
6.83318	-14.56759	11.27051
6.83736	-14.56759	11.27051
6.84155	-14.56759	11.27051
6.84573	-14.58957	11.27051
6.85002	-14.58957	11.27051
6.85422	-14.58957	11.27051
6.85842	-14.58957	11.27051
6.86261	-14.58957	11.27051
6.86679	-14.61154	11.27051
6.87097	-14.61154	11.27051
6.87516	-14.61154	11.27051
6.87945	-14.63351	11.27051
6.88378	-14.63351	11.27051
6.88797	-14.63351	11.27051
6.89216	-14.63351	11.27051
6.89634	-14.65548	11.27051
6.90054	-14.65548	11.27051
6.90472	-14.65548	11.27051
6.90905	-14.67746	11.27051
6.91329	-14.67746	11.27051
6.91748	-14.67746	11.27051
6.92166	-14.67746	11.27051
6.92585	-14.69943	11.27051
6.93003	-14.69943	11.27051
6.93422	-14.69943	11.27051
6.93845	-14.69943	11.27051
6.94270	-14.69943	11.27051
6.94690	-14.72140	11.27051
6.95108	-14.72140	11.27051
6.95527	-14.72140	11.27051
6.95945	-14.72140	11.27051
6.96366	-14.74338	11.27051
6.96785	-14.74338	11.27051
6.97215	-14.74338	11.27051
6.97637	-14.74338	11.27051
6.98055	-14.74338	11.27051
6.98484	-14.76535	11.27051
6.98903	-14.76535	11.27051
6.99321	-14.76535	11.27051
6.99740	-14.76535	11.27051
7.00170	-14.76535	11.27051
7.00592	-14.76535	11.27051
7.01012	-14.78732	11.27051
7.01430	-14.78732	11.27051
7.01849	-14.78732	11.27051
7.02267	-14.78732	11.27051
7.02686	-14.80929	11.27051
7.03120	-14.80929	11.27051
7.03543	-14.80929	11.27051
7.03964	-14.80929	11.27051
7.04384	-14.80929	11.27051
7.04802	-14.80929	11.27051
7.05221	-14.80929	11.27051
7.05639	-14.80929	11.27051
7.06064	-14.80929	11.27051
7.06490	-14.80929	11.27051
7.06910	-14.83127	11.27051
7.07329	-14.83127	11.27051
7.07748	-14.83127	11.27051
7.08167	-14.83127	11.27051
7.08595	-14.83127	11.27051
7.09014	-14.83127	11.27051
7.09442	-14.83127	11.27051
7.09863	-14.85324	11.27051
7.10283	-14.85324	11.27051
7.10702	-14.85324	11.27051
7.11120	-14.85324	11.27051
7.11539	-14.85324	11.27051
7.11957	-14.85324	11.27051
7.12387	-14.85324	11.27051
7.12809	-14.85324	11.27051
7.13227	-14.85324	11.27051
7.13646	-14.85324	11.27051
7.14064	-14.85324	11.27051
7.14483	-14.85324	11.27051
7.14901	-14.85324	11.27051
7.15333	-14.85324	11.27051
7.15756	-14.85324	11.27051
7.16175	-14.87521	11.27051
7.16594	-14.87521	11.27051
7.17012	-14.85324	11.27051
7.17431	-14.87521	11.27051
7.17849	-14.85324	11.27051
7.18272	-14.87521	11.27051
7.18708	-14.87521	11.27051
7.19128	-14.87521	11.27051
7.19547	-14.87521	11.27051
7.19966	-14.87521	11.27051
7.20385	-14.87521	11.27051
7.20805	-14.87521	11.27051
7.21224	-14.87521	11.27051
7.21652	-14.87521	11.27051
7.22073	-14.85324	11.27051
7.22492	-14.87521	11.27051
7.22910	-14.85324	11.27051
7.23329	-14.87521	11.27051
7.23747	-14.87521	11.27051
7.24166	-14.87521	11.27051
7.24595	-14.87521	11.27051
7.25016	-14.85324	11.27051
7.25435	-14.85324	11.27051
7.25853	-14.85324	11.27051
7.26272	-14.85324	11.27051
7.26690	-14.85324	11.27051
7.27109	-14.85324	11.27051
7.27540	-14.85324	11.27051
7.27963	-14.85324	11.27051
7.28378	-14.85324	11.27051
7.28806	-14.85324	11.27051
7.29225	-14.85324	11.27051
7.29644	-14.85324	11.27051
7.30062	-14.83127	11.27051
7.30486	-14.83127	11.27051
7.30912	-14.83127	11.27051
7.31332	-14.83127	11.27051
7.31750	-14.83127	11.27051
7.32169	-14.83127	11.27051
7.32587	-14.83127	11.27051
7.33006	-14.83127	11.27051
7.33424	-14.80929	11.27051
7.33852	-14.80929	11.27051
7.34273	-14.80929	11.27051
7.34692	-14.80929	11.27051
7.35111	-14.80929	11.27051
7.35529	-14.78732	11.27051
7.35948	-14.78732	11.27051
7.36367	-14.78732	11.27051
7.36796	-14.78732	11.27051
7.37217	-14.78732	11.27051
7.37636	-14.78732	11.27051
7.38055	-14.78732	11.27051
7.38476	-14.78732	11.27051
7.38906	-14.76535	11.27051
7.39324	-14.76535	11.27051
7.39757	-14.76535	11.27051
7.40180	-14.76535	11.27051
7.40600	-14.74338	11.27051
7.41019	-14.76535	11.27051
7.41437	-14.74338	11.27051
7.41856	-14.74338	11.27051
7.42274	-14.74338	11.27051
7.42700	-14.74338	11.27051
7.43126	-14.74338	11.27051
7.43546	-14.74338	11.27051
7.43966	-14.72140	11.27051
7.44385	-14.72140	11.27051
7.44804	-14.72140	11.27051
7.45222	-14.72140	11.27051
7.45641	-14.72140	11.27051
7.46069	-14.69943	11.27051
7.46495	-14.69943	11.27051
7.46914	-14.69943	11.27051
7.47333	-14.69943	11.27051
7.47752	-14.69943	11.27051
7.48170	-14.67746	11.27051
7.48589	-14.67746	11.27051
7.49030	-14.67746	11.27051
7.49452	-14.67746	11.27051
7.49871	-14.67746	11.27051
7.50289	-14.67746	11.27051
7.50708	-14.65548	11.27051
7.51126	-14.65548	11.27051
7.51545	-14.65548	11.27051
7.51979	-14.65548	11.27051
7.52402	-14.65548	11.27051
7.52822	-14.65548	11.27051
7.53240	-14.63351	11.27051
7.53659	-14.63351	11.27051
7.54077	-14.63351	11.27051
7.54495	-14.61154	11.27051
7.54919	-14.61154	11.27051
7.55344	-14.61154	11.27051
7.55764	-14.61154	11.27051
7.56183	-14.58957	11.27051
7.56602	-14.61154	11.27051
7.57020	-14.58957	11.27051
7.57439	-14.58957	11.27051
7.57857	-14.58957	11.27051
7.58285	-14.56759	11.27051
7.58706	-14.56759	11.27051
7.59135	-14.56759	11.27051
7.59554	-14.56759	11.27051
7.59973	-14.56759	11.27051
7.60392	-14.56759	11.27051
7.60811	-14.56759	11.27051
7.61239	-14.54562	11.27051
7.61660	-14.54562	11.27051
7.62078	-14.54562	11.27051
7.62497	-14.54562	11.27051
7.62915	-14.52365	11.27051
7.63334	-14.52365	11.27051
7.63752	-14.52365	11.27051
7.64184	-14.52365	11.27051
7.64607	-14.52365	11.27051
7.65026	-14.52365	11.27051
7.65445	-14.52365	11.27051
7.65863	-14.50168	11.27051
7.66282	-14.50168	11.27051
7.66701	-14.50168	11.27051
7.67125	-14.50168	11.27051
7.67550	-14.50168	11.27051
7.67972	-14.50168	11.27051
7.68390	-14.50168	11.27051
7.68809	-14.50168	11.27051
7.69238	-14.47970	11.27051
7.69656	-14.47970	11.27051
7.70075	-14.47970	11.27051
7.70503	-14.47970	11.27051
7.70924	-14.47970	11.27051
7.71343	-14.47970	11.27051
7.71761	-14.47970	11.27051
7.72179	-14.45773	11.27051
7.72598	-14.45773	11.27051
7.73016	-14.45773	11.27051
7.73444	-14.45773	11.27051
7.73865	-14.45773	11.27051
7.74284	-14.45773	11.27051
7.74703	-14.45773	11.27051
7.75121	-14.43576	11.27051
7.75539	-14.43576	11.27051
7.75958	-14.43576	11.27051
7.76389	-14.43576	11.27051
7.76812	-14.43576	11.27051
7.77231	-14.43576	11.27051
7.77649	-14.43576	11.27051
7.78068	-14.43576	11.27051
7.78486	-14.43576	11.27051
7.78905	-14.43576	11.27051
7.79338	-14.43576	11.27051
7.79763	-14.41379	11.27051
7.80182	-14.41379	11.27051
7.80601	-14.41379	11.27051
7.81019	-14.41379	11.27051
7.81437	-14.41379	11.27051
7.81856	-14.41379	11.27051
7.82274	-14.41379	11.27051
7.82701	-14.41379	11.27051
7.83122	-14.41379	11.27051
7.83540	-14.41379	11.27051
7.83959	-14.41379	11.27051
7.84377	-14.41379	11.27051
7.84796	-14.39181	11.27051
7.85214	-14.39181	11.27051
7.85642	-14.39181	11.27051
7.86063	-14.39181	11.27051
7.86482	-14.39181	11.27051
7.86900	-14.39181	11.27051
7.87318	-14.39181	11.27051
7.87737	-14.39181	11.27051
7.88155	-14.39181	11.27051
7.88587	-14.39181	11.27051
7.89010	-14.39181	11.27051
7.89440	-14.39181	11.27051
7.89858	-14.39181	11.27051
7.90276	-14.39181	11.27051
7.90695	-14.39181	11.27051
7.91113	-14.36984	11.27051
7.91536	-14.39181	11.27051
7.91961	-14.39181	11.27051
7.92379	-14.39181	11.27051
7.92798	-14.36984	11.27051
7.93216	-14.39181	11.27051
7.93634	-14.39181	11.27051
7.94053	-14.36984	11.27051
7.94471	-14.39181	11.27051
7.94899	-14.39181	11.27051
7.95319	-14.36984	11.27051
7.95738	-14.39181	11.27051
7.96156	-14.36984	11.27051
7.96575	-14.39181	11.27051
7.96993	-14.39181	11.27051
7.97411	-14.39181	11.27051
7.97840	-14.39181	11.27051
7.98261	-14.39181	11.27051
7.98680	-14.39181	11.27051
7.99098	-14.39181	11.27051
7.99527	-14.39181	11.27051
7.99945	-14.39181	11.27051
8.00363	-14.39181	11.27051
8.00790	-14.39181	11.27051
8.01213	-14.39181	11.27051
8.01632	-14.39181	11.27051
8.02051	-14.39181	11.27051
8.02469	-14.39181	11.27051
8.02887	-14.41379	11.27051
8.03305	-14.41379	11.27051
8.03728	-14.41379	11.27051
8.04153	-14.41379	11.27051
8.04573	-14.41379	11.27051
8.04991	-14.41379	11.27051
8.05410	-14.41379	11.27051
8.05828	-14.41379	11.27051
8.06246	-14.41379	11.27051
8.06665	-14.43576	11.27051
8.07092	-14.43576	11.27051
8.07513	-14.43576	11.27051
8.07931	-14.43576	11.27051
8.08350	-14.43576	11.27051
8.08769	-14.43576	11.27051
8.09187	-14.43576	11.27051
8.09616	-14.45773	11.27051
8.10044	-14.45773	11.27051
8.10465	-14.45773	11.27051
8.10884	-14.45773	11.27051
8.11302	-14.45773	11.27051
8.11720	-14.45773	11.27051
8.12139	-14.47970	11.27051
8.12557	-14.47970	11.27051
8.12992	-14.47970	11.27051
8.13415	-14.47970	11.27051
8.13834	-14.47970	11.27051
8.14253	-14.47970	11.27051
8.14672	-14.50168	11.27051
8.15090	-14.50168	11.27051
8.15509	-14.50168	11.27051
8.15934	-14.50168	11.27051
8.16360	-14.50168	11.27051
8.16779	-14.52365	11.27051
8.17198	-14.52365	11.27051
8.17616	-14.52365	11.27051
8.18035	-14.52365	11.27051
8.18453	-14.52365	11.27051
8.18872	-14.52365	11.27051
8.19301	-14.54562	11.27051
8.19731	-14.54562	11.27051
8.20149	-14.54562	11.27051
8.20568	-14.54562	11.27051
8.20986	-14.54562	11.27051
8.21404	-14.56759	11.27051
8.21822	-14.56759	11.27051
8.22257	-14.56759	11.27051
8.22677	-14.56759	11.27051
8.23096	-14.56759	11.27051
8.23514	-14.58957	11.27051
8.23932	-14.58957	11.27051
8.24350	-14.58957	11.27051
8.24770	-14.61154	11.27051
8.25203	-14.61154	11.27051
8.25628	-14.61154	11.27051
8.26046	-14.61154	11.27051
8.26465	-14.61154	11.27051
8.26883	-14.61154	11.27051
8.27301	-14.63351	11.27051
8.27719	-14.63351	11.27051
8.28143	-14.63351	11.27051
8.28569	-14.63351	11.27051
8.28989	-14.63351	11.27051
8.29408	-14.65548	11.27051
8.29837	-14.65548	11.27051
8.30255	-14.65548	11.27051
8.30673	-14.67746	11.27051
8.31092	-14.67746	11.27051
8.31519	-14.67746	11.27051
8.31939	-14.67746	11.27051
8.32358	-14.69943	11.27051
8.32777	-14.69943	11.27051
8.33195	-14.69943	11.27051
8.33614	-14.69943	11.27051
8.34032	-14.69943	11.27051
8.34468	-14.72140	11.27051
8.34889	-14.72140	11.27051
8.35307	-14.72140	11.27051
8.35725	-14.74338	11.27051
8.36144	-14.74338	11.27051
8.36562	-14.74338	11.27051
8.36980	-14.74338	11.27051
8.37412	-14.76535	11.27051
8.37836	-14.76535	11.27051
8.38259	-14.76535	11.27051
8.38679	-14.76535	11.27051
8.39098	-14.78732	11.27051
8.39516	-14.78732	11.27051
8.39945	-14.78732	11.27051
8.40371	-14.78732	11.27051
8.40798	-14.80929	11.27051
8.41218	-14.80929	11.27051
8.41636	-14.80929	11.27051
8.42055	-14.80929	11.27051
8.42477	-14.80929	11.27051
8.42896	-14.83127	11.27051
8.43315	-14.83127	11.27051
8.43744	-14.83127	11.27051
8.44167	-14.85324	11.27051
8.44587	-14.85324	11.27051
8.45006	-14.85324	11.27051
8.45424	-14.85324	11.27051
8.45843	-14.87521	11.27051
8.46261	-14.87521	11.27051
8.46704	-14.87521	11.27051
8.47125	-14.87521	11.27051
8.47545	-14.87521	11.27051
8.47965	-14.89718	11.27051
8.48384	-14.89718	11.27051
8.48803	-14.89718	11.27051
8.49221	-14.89718	11.27051
8.49656	-14.89718	11.27051
8.50091	-14.91916	11.27051
8.50510	-14.91916	11.27051
8.50929	-14.94113	11.27051
8.51348	-14.94113	11.27051
8.51767	-14.94113	11.27051
8.52185	-14.94113	11.27051
8.52610	-14.94113	11.27051
8.53037	-14.94113	11.27051
8.53457	-14.96310	11.27051
8.53876	-14.96310	11.27051
8.54295	-14.98507	11.27051
8.54714	-14.98507	11.27051
8.55132	-14.96310	11.27051
8.55551	-14.98507	11.27051
8.55982	-14.98507	11.27051
8.56402	-14.98507	11.27051
8.56820	-15.00705	11.27051
8.57239	-14.98507	11.27051
8.57658	-14.98507	11.27051
8.58076	-15.00705	11.27051
8.58495	-15.00705	11.27051
8.58924	-15.00705	11.27051
8.59345	-15.02902	11.27051
8.59763	-15.02902	11.27051
8.60192	-15.02902	11.27051
8.60610	-15.02902	11.27051
8.61029	-15.02902	11.27051
8.61448	-15.02902	11.27051
8.61881	-15.02902	11.27051
8.62305	-15.05099	11.27051
8.62724	-15.05099	11.27051
8.63143	-15.05099	11.27051
8.63561	-15.05099	11.27051
8.63977	-15.05099	11.27051
8.64396	-15.05099	11.27051
8.64820	-15.05099	11.27051
8.65247	-15.07297	11.27051
8.65666	-15.07297	11.27051
8.66085	-15.07297	11.27051
8.66503	-15.07297	11.27051
8.66922	-15.07297	11.27051
8.67340	-15.07297	11.27051
8.67758	-15.07297	11.27051
8.68192	-15.07297	11.27051
8.68613	-15.07297	11.27051
8.69031	-15.09494	11.27051
8.69450	-15.09494	11.27051
8.69869	-15.09494	11.27051
8.70298	-15.09494	11.27051
8.70716	-15.09494	11.27051
8.71145	-15.09494	11.27051
8.71568	-15.09494	11.27051
8.71987	-15.09494	11.27051
8.72405	-15.11691	11.27051
8.72824	-15.09494	11.27051
8.73242	-15.09494	11.27051
8.73660	-15.11691	11.27051
8.74092	-15.11691	11.27051
8.74516	-15.11691	11.27051
8.74935	-15.11691	11.27051
8.75354	-15.11691	11.27051
8.75772	-15.11691	11.27051
8.76191	-15.11691	11.27051
8.76609	-15.11691	11.27051
8.77033	-15.13888	11.27051
8.77460	-15.13888	11.27051
8.77879	-15.13888	11.27051
8.78298	-15.13888	11.27051
8.78717	-15.13888	11.27051
8.79135	-15.13888	11.27051
8.79554	-15.13888	11.27051
8.79973	-15.13888	11.27051
8.80412	-15.13888	11.27051
8.80832	-15.13888	11.27051
8.81251	-15.13888	11.27051
8.81671	-15.13888	11.27051
8.82089	-15.16086	11.27051
8.82507	-15.16086	11.27051
8.82926	-15.16086	11.27051
8.83355	-15.16086	11.27051
8.83776	-15.16086	11.27051
8.84195	-15.16086	11.27051
8.84613	-15.16086	11.27051
8.85032	-15.16086	11.27051
8.85450	-15.18283	11.27051
8.85868	-15.18283	11.27051
8.86300	-15.18283	11.27051
8.86724	-15.18283	11.27051
8.87143	-15.18283	11.27051
8.87561	-15.18283	11.27051
8.87977	-15.18283	11.27051
8.88396	-15.18283	11.27051
8.88814	-15.18283	11.27051
8.89238	-15.20480	11.27051
8.89665	-15.20480	11.27051
8.90084	-15.20480	11.27051
8.90513	-15.20480	11.27051
8.90932	-15.20480	11.27051
8.91350	-15.22677	11.27051
8.91769	-15.22677	11.27051
8.92188	-15.22677	11.27051
8.92617	-15.22677	11.27051
8.93037	-15.22677	11.27051
8.93455	-15.22677	11.27051
8.93874	-15.22677	11.27051
8.94292	-15.22677	11.27051
8.94710	-15.22677	11.27051
8.95129	-15.24875	11.27051
8.95558	-15.24875	11.27051
8.95979	-15.24875	11.27051
8.96398	-15.24875	11.27051
8.96816	-15.24875	11.27051
8.97235	-15.27072	11.27051
8.97653	-15.27072	11.27051
8.98072	-15.27072	11.27051
8.98505	-15.27072	11.27051
8.98930	-15.27072	11.27051
8.99349	-15.27072	11.27051
8.99767	-15.29269	11.27051
9.00185	-15.29269	11.27051
9.00615	-15.29269	11.27051
9.01033	-15.29269	11.27051
9.01457	-15.31466	11.27051
9.01885	-15.31466	11.27051
9.02305	-15.31466	11.27051
9.02724	-15.31466	11.27051
9.03142	-15.31466	11.27051
9.03560	-15.31466	11.27051
9.03977	-15.31466	11.27051
9.04396	-15.31466	11.27051
9.04825	-15.31466	11.27051
9.05245	-15.33664	11.27051
9.05664	-15.33664	11.27051
9.06082	-15.33664	11.27051
9.06501	-15.35861	11.27051
9.06919	-15.35861	11.27051
9.07338	-15.35861	11.27051
9.07767	-15.35861	11.27051
9.08187	-15.35861	11.27051
9.08606	-15.35861	11.27051
9.09026	-15.38058	11.27051
9.09445	-15.38058	11.27051
9.09863	-15.38058	11.27051
9.10282	-15.38058	11.27051
9.10727	-15.38058	11.27051
9.11151	-15.40256	11.27051
9.11570	-15.38058	11.27051
9.11989	-15.40256	11.27051
9.12407	-15.40256	11.27051
9.12826	-15.40256	11.27051
9.13244	-15.40256	11.27051
9.13670	-15.42453	11.27051
9.14096	-15.42453	11.27051
9.14516	-15.42453	11.27051
9.14934	-15.42453	11.27051
9.15353	-15.42453	11.27051
9.15772	-15.42453	11.27051
9.16190	-15.42453	11.27051
9.16609	-15.44650	11.27051
9.17038	-15.44650	11.27051
9.17459	-15.44650	11.27051
9.17878	-15.44650	11.27051
9.18297	-15.44650	11.27051
9.18716	-15.44650	11.27051
9.19134	-15.46847	11.27051
9.19552	-15.46847	11.27051
9.19984	-15.46847	11.27051
9.20404	-15.46847	11.27051
9.20834	-15.46847	11.27051
9.21253	-15.46847	11.27051
9.21671	-15.49045	11.27051
9.22089	-15.49045	11.27051
9.22508	-15.49045	11.27051
9.22942	-15.49045	11.27051
9.23367	-15.49045	11.27051
9.23786	-15.49045	11.27051
9.24204	-15.51242	11.27051
9.24623	-15.51242	11.27051
9.25041	-15.51242	11.27051
9.25459	-15.51242	11.27051
9.25883	-15.51242	11.27051
9.26310	-15.51242	11.27051
9.26730	-15.53439	11.27051
9.27148	-15.51242	11.27051
9.27568	-15.51242	11.27051
9.27987	-15.51242	11.27051
9.28406	-15.53439	11.27051
9.28824	-15.53439	11.27051
9.29253	-15.53439	11.27051
9.29673	-15.53439	11.27051
9.30091	-15.53439	11.27051
9.30510	-15.53439	11.27051
9.30939	-15.53439	11.27051
9.31358	-15.53439	11.27051
9.31776	-15.55636	11.27051
9.32205	-15.55636	11.27051
9.32625	-15.55636	11.27051
9.33044	-15.55636	11.27051
9.33462	-15.55636	11.27051
9.33881	-15.55636	11.27051
9.34299	-15.55636	11.27051
9.34718	-15.55636	11.27051
9.35150	-15.55636	11.27051
9.35575	-15.55636	11.27051
9.35994	-15.55636	11.27051
9.36413	-15.55636	11.27051
9.36831	-15.55636	11.27051
9.37250	-15.55636	11.27051
9.37668	-15.57834	11.27051
9.38092	-15.57834	11.27051
9.38525	-15.55636	11.27051
9.38947	-15.55636	11.27051
9.39366	-15.55636	11.27051
9.39785	-15.57834	11.27051
9.40204	-15.57834	11.27051
9.40623	-15.57834	11.27051
9.41054	-15.57834	11.27051
9.41483	-15.57834	11.27051
9.41903	-15.57834	11.27051
9.42323	-15.57834	11.27051
9.42744	-15.57834	11.27051
9.43166	-15.57834	11.27051
9.43585	-15.57834	11.27051
9.44005	-15.57834	11.27051
9.44436	-15.55636	11.27051
9.44857	-15.57834	11.27051
9.45276	-15.57834	11.27051
9.45695	-15.57834	11.27051
9.46115	-15.57834	11.27051
9.46543	-15.57834	11.27051
9.46963	-15.57834	11.27051
9.47399	-15.55636	11.27051
9.47824	-15.57834	11.27051
9.48243	-15.57834	11.27051
9.48662	-15.55636	11.27051
9.49080	-15.55636	11.27051
9.49499	-15.55636	11.27051
9.49917	-15.55636	11.27051
9.50341	-15.55636	11.27051
9.50770	-15.55636	11.27051
9.51200	-15.55636	11.27051
9.51618	-15.55636	11.27051
9.52037	-15.55636	11.27051
9.52455	-15.53439	11.27051
9.52874	-15.53439	11.27051
9.53292	-15.53439	11.27051
9.53721	-15.53439	11.27051
9.54141	-15.53439	11.27051
9.54560	-15.53439	11.27051
9.54978	-15.53439	11.27051
9.55397	-15.51242	11.27051
9.55815	-15.51242	11.27051
9.56234	-15.51242	11.27051
9.56663	-15.51242	11.27051
9.57084	-15.51242	11.27051
9.57503	-15.51242	11.27051
9.57921	-15.49045	11.27051
9.58340	-15.49045	11.27051
9.58758	-15.49045	11.27051
9.59177	-15.49045	11.27051
9.59610	-15.46847	11.27051
9.60034	-15.46847	11.27051
9.60453	-15.46847	11.27051
9.60871	-15.46847	11.27051
9.61300	-15.46847	11.27051
9.61718	-15.46847	11.27051
9.62138	-15.46847	11.27051
9.62561	-15.44650	11.27051
9.62988	-15.42453	11.27051
9.63407	-15.42453	11.27051
9.63826	-15.42453	11.27051
9.64245	-15.42453	11.27051
9.64663	-15.42453	11.27051
9.65082	-15.42453	11.27051
9.65500	-15.40256	11.27051
9.65930	-15.38058	11.27051
9.66350	-15.38058	11.27051
9.66769	-15.38058	11.27051
9.67188	-15.38058	11.27051
9.67606	-15.35861	11.27051
9.68025	-15.35861	11.27051
9.68443	-15.35861	11.27051
9.68873	-15.35861	11.27051
9.69293	-15.35861	11.27051
9.69712	-15.33664	11.27051
9.70130	-15.33664	11.27051
9.70549	-15.33664	11.27051
9.70968	-15.33664	11.27051
9.71396	-15.31466	11.27051
9.71829	-15.31466	11.27051
9.72254	-15.29269	11.27051
9.72673	-15.29269	11.27051
9.73092	-15.29269	11.27051
9.73510	-15.29269	11.27051
9.73928	-15.29269	11.27051
9.74347	-15.27072	11.27051
9.74772	-15.24875	11.27051
9.75199	-15.27072	11.27051
9.75619	-15.27072	11.27051
9.76038	-15.24875	11.27051
9.76456	-15.24875	11.27051
9.76877	-15.22677	11.27051
9.77296	-15.22677	11.27051
9.77715	-15.22677	11.27051
9.78144	-15.22677	11.27051
9.78564	-15.22677	11.27051
9.78983	-15.20480	11.27051
9.79402	-15.20480	11.27051
9.79820	-15.20480	11.27051
9.80239	-15.18283	11.27051
9.80657	-15.18283	11.27051
9.81087	-15.18283	11.27051
9.81518	-15.16086	11.27051
9.81937	-15.16086	11.27051
9.82355	-15.16086	11.27051
9.82775	-15.13888	11.27051
9.83193	-15.13888	11.27051
9.83611	-15.13888	11.27051
9.84044	-15.13888	11.27051
9.84468	-15.11691	11.27051
9.84887	-15.11691	11.27051
9.85305	-15.11691	11.27051
9.85724	-15.11691	11.27051
9.86142	-15.09494	11.27051
9.86561	-15.09494	11.27051
9.86984	-15.09494	11.27051
9.87410	-15.07297	11.27051
9.87830	-15.07297	11.27051
9.88248	-15.07297	11.27051
9.88667	-15.07297	11.27051
9.89085	-15.05099	11.27051
9.89504	-15.05099	11.27051
9.89922	-15.05099	11.27051
9.90352	-15.02902	11.27051
9.90773	-15.02902	11.27051
9.91192	-15.02902	11.27051
9.91620	-15.00705	11.27051
9.92039	-15.00705	11.27051
9.92457	-15.00705	11.27051
9.92875	-14.98507	11.27051
9.93305	-15.00705	11.27051
9.93726	-14.98507	11.27051
9.94144	-14.98507	11.27051
9.94563	-14.96310	11.27051
9.94981	-14.96310	11.27051
9.95400	-14.96310	11.27051
9.95819	-14.96310	11.27051
9.96253	-14.96310	11.27051
9.96679	-14.94113	11.27051
9.97098	-14.94113	11.27051
9.97517	-14.94113	11.27051
9.97937	-14.94113	11.27051
9.98357	-14.91916	11.27051
9.98776	-14.89718	11.27051
9.99204	-14.89718	11.27051
9.99633	-14.91916	11.27051
10.00053	-14.89718	11.27051
10.00472	-14.89718	11.27051
10.00891	-14.87521	11.27051
10.01310	-14.87521	11.27051
10.01739	-14.87521	11.27051
10.02157	-14.87521	11.27051
10.02587	-14.87521	11.27051
10.03005	-14.85324	11.27051
10.03422	-14.85324	11.27051
10.03839	-14.85324	11.27051
10.04255	-14.85324	11.27051
10.04672	-14.83127	11.27051
10.05088	-14.83127	11.27051
10.05515	-14.83127	11.27051
10.05933	-14.83127	11.27051
10.06350	-14.80929	11.27051
10.06768	-14.80929	11.27051
10.07184	-14.80929	11.27051
10.07600	-14.80929	11.27051
10.08017	-14.80929	11.27051
10.08446	-14.78732	11.27051
10.08870	-14.78732	11.27051
10.09288	-14.78732	11.27051
10.09707	-14.78732	11.27051
10.10126	-14.76535	11.27051
10.10545	-14.76535	11.27051
10.10964	-14.76535	11.27051
10.11489	-14.76535	11.27051
10.11930	-14.76535	11.27051
10.12351	-14.76535	11.27051
10.12776	-14.76535	11.27051
10.13199	-14.74338	11.27051
10.13622	-14.74338	11.27051
10.14043	-14.74338	11.27051
10.14592	-14.72140	11.27051
10.15022	-14.72140	11.27051
10.15443	-14.72140	11.27051
10.15864	-14.72140	11.27051
10.16284	-14.72140	11.27051
10.16705	-14.72140	11.27051
10.17126	-14.69943	11.27051
10.17592	-14.69943	11.27051
10.18022	-14.69943	11.27051
10.18443	-14.69943	11.27051
10.18863	-14.69943	11.27051
10.19282	-14.69943	11.27051
10.19701	-14.69943	11.27051
10.20120	-14.69943	11.27051
10.20548	-14.69943	11.27051
10.20985	-14.67746	11.27051
10.21408	-14.67746	11.27051
10.21829	-14.67746	11.27051
10.22260	-14.67746	11.27051
10.22681	-14.67746	11.27051
10.23100	-14.67746	11.27051
10.23519	-14.67746	11.27051
10.23952	-14.67746	11.27051
10.24374	-14.67746	11.27051
10.24793	-14.67746	11.27051
10.25213	-14.67746	11.27051
10.25632	-14.67746	11.27051
10.26051	-14.67746	11.27051
10.26471	-14.67746	11.27051
10.26904	-14.67746	11.27051
10.27328	-14.67746	11.27051
10.27747	-14.67746	11.27051
10.28166	-14.65548	11.27051
10.28585	-14.65548	11.27051
10.29003	-14.65548	11.27051
10.29421	-14.65548	11.27051
10.29846	-14.65548	11.27051
10.30272	-14.65548	11.27051
10.30692	-14.65548	11.27051
10.31111	-14.65548	11.27051
10.31530	-14.65548	11.27051
10.31948	-14.65548	11.27051
10.32378	-14.65548	11.27051
10.32796	-14.65548	11.27051
10.33226	-14.65548	11.27051
10.33646	-14.65548	11.27051
10.34065	-14.65548	11.27051
10.34484	-14.65548	11.27051
10.34902	-14.65548	11.27051
10.35320	-14.65548	11.27051
10.35739	-14.65548	11.27051
10.36169	-14.65548	11.27051
10.36589	-14.65548	11.27051
10.37008	-14.67746	11.27051
10.37426	-14.67746	11.27051
10.37845	-14.65548	11.27051
10.38264	-14.65548	11.27051
10.38683	-14.67746	11.27051
10.39117	-14.67746	11.27051
10.39542	-14.67746	11.27051
10.39961	-14.67746	11.27051
10.40377	-14.67746	11.27051
10.40796	-14.67746	11.27051
10.41215	-14.67746	11.27051
10.41634	-14.67746	11.27051
10.42059	-14.67746	11.27051
10.42497	-14.67746	11.27051
10.42917	-14.67746	11.27051
10.43336	-14.67746	11.27051
10.43754	-14.67746	11.27051
10.44173	-14.67746	11.27051
10.44591	-14.67746	11.27051
10.45010	-14.67746	11.27051
10.45440	-14.67746	11.27051
10.45862	-14.67746	11.27051
10.46280	-14.69943	11.27051
10.46701	-14.69943	11.27051
10.47121	-14.69943	11.27051
10.47540	-14.69943	11.27051
10.47959	-14.69943	11.27051
10.48391	-14.69943	11.27051
10.48813	-14.69943	11.27051
10.49232	-14.72140	11.27051
10.49651	-14.72140	11.27051
10.50069	-14.72140	11.27051
10.50488	-14.72140	11.27051
10.50907	-14.72140	11.27051
10.51341	-14.72140	11.27051
10.51773	-14.72140	11.27051
10.52196	-14.74338	11.27051
10.52627	-14.74338	11.27051
10.53047	-14.74338	11.27051
10.53465	-14.74338	11.27051
10.53884	-14.74338	11.27051
10.54310	-14.74338	11.27051
10.54738	-14.76535	11.27051
10.55158	-14.76535	11.27051
10.55578	-14.76535	11.27051
10.55997	-14.76535	11.27051
10.56415	-14.76535	11.27051
10.56834	-14.76535	11.27051
10.57253	-14.76535	11.27051
10.57682	-14.76535	11.27051
10.58103	-14.78732	11.27051
10.58522	-14.78732	11.27051
10.58941	-14.78732	11.27051
10.59359	-14.78732	11.27051
10.59778	-14.78732	11.27051
10.60196	-14.78732	11.27051
10.60627	-14.78732	11.27051
10.61048	-14.78732	11.27051
10.61466	-14.78732	11.27051
10.61885	-14.80929	11.27051
10.62304	-14.80929	11.27051
10.62733	-14.80929	11.27051
10.63151	-14.80929	11.27051
10.63586	-14.80929	11.27051
10.64011	-14.80929	11.27051
10.64430	-14.83127	11.27051
10.64849	-14.80929	11.27051
10.65268	-14.83127	11.27051
10.65686	-14.83127	11.27051
10.66105	-14.85324	11.27051
10.66529	-14.83127	11.27051
10.66957	-14.83127	11.27051
10.67377	-14.85324	11.27051
10.67796	-14.85324	11.27051
10.68214	-14.85324	11.27051
10.68633	-14.85324	11.27051
10.69051	-14.87521	11.27051
10.69470	-14.87521	11.27051
10.69899	-14.85324	11.27051
10.70319	-14.87521	11.27051
10.70738	-14.87521	11.27051
10.71157	-14.87521	11.27051
10.71576	-14.87521	11.27051
10.71995	-14.87521	11.27051
10.72413	-14.87521	11.27051
10.72854	-14.89718	11.27051
10.73274	-14.89718	11.27051
10.73693	-14.89718	11.27051
10.74111	-14.89718	11.27051
10.74530	-14.91916	11.27051
10.74948	-14.91916	11.27051
10.75366	-14.91916	11.27051
10.75798	-14.91916	11.27051
10.76224	-14.91916	11.27051
10.76643	-14.91916	11.27051
10.77062	-14.91916	11.27051
10.77480	-14.94113	11.27051
10.77899	-14.94113	11.27051
10.78317	-14.94113	11.27051
10.78742	-14.94113	11.27051
10.79171	-14.94113	11.27051
10.79590	-14.94113	11.27051
10.80009	-14.96310	11.27051
10.80428	-14.96310	11.27051
10.80846	-14.96310	11.27051
10.81265	-14.98507	11.27051
10.81683	-14.98507	11.27051
10.82112	-14.98507	11.27051
10.82533	-14.98507	11.27051
10.82962	-14.98507	11.27051
10.83382	-14.98507	11.27051
10.83800	-15.00705	11.27051
10.84218	-15.00705	11.27051
10.84638	-15.00705	11.27051
10.85074	-15.00705	11.27051
10.85496	-15.00705	11.27051
10.85915	-15.00705	11.27051
10.86333	-15.02902	11.27051
10.86752	-15.02902	11.27051
10.87172	-15.02902	11.27051
10.87590	-15.02902	11.27051
10.88025	-15.02902	11.27051
10.88450	-15.05099	11.27051
10.88869	-15.05099	11.27051
10.89288	-15.05099	11.27051
10.89706	-15.05099	11.27051
10.90125	-15.05099	11.27051
10.90544	-15.07297	11.27051
10.90970	-15.07297	11.27051
10.91397	-15.07297	11.27051
10.91817	-15.07297	11.27051
10.92236	-15.09494	11.27051
10.92654	-15.09494	11.27051
10.93083	-15.09494	11.27051
10.93502	-15.09494	11.27051
10.93921	-15.11691	11.27051
10.94350	-15.09494	11.27051
10.94772	-15.11691	11.27051
10.95191	-15.11691	11.27051
10.95610	-15.13888	11.27051
10.96029	-15.13888	11.27051
10.96447	-15.11691	11.27051
10.96868	-15.13888	11.27051
10.97302	-15.13888	11.27051
10.97724	-15.13888	11.27051
10.98143	-15.13888	11.27051
10.98561	-15.16086	11.27051
10.98980	-15.16086	11.27051
10.99399	-15.16086	11.27051
10.99818	-15.16086	11.27051
11.00252	-15.16086	11.27051
11.00679	-15.18283	11.27051
11.01098	-15.18283	11.27051
11.01518	-15.18283	11.27051
11.01937	-15.18283	11.27051
11.02356	-15.18283	11.27051
11.02775	-15.18283	11.27051
11.03212	-15.18283	11.27051
11.03652	-15.18283	11.27051
11.04079	-15.20480	11.27051
11.04501	-15.20480	11.27051
11.04924	-15.22677	11.27051
11.05345	-15.22677	11.27051
11.05767	-15.22677	11.27051
11.06212	-15.22677	11.27051
11.06649	-15.22677	11.27051
11.07074	-15.22677	11.27051
11.07495	-15.22677	11.27051
11.07917	-15.24875	11.27051
11.08337	-15.24875	11.27051
11.08758	-15.24875	11.27051
11.09179	-15.24875	11.27051
11.09612	-15.24875	11.27051
11.10035	-15.24875	11.27051
11.10455	-15.27072	11.27051
11.10874	-15.27072	11.27051
11.11293	-15.27072	11.27051
11.11711	-15.27072	11.27051
11.12129	-15.27072	11.27051
11.12563	-15.27072	11.27051
11.12987	-15.27072	11.27051
11.13418	-15.27072	11.27051
11.13837	-15.29269	11.27051
11.14255	-15.29269	11.27051
11.14674	-15.29269	11.27051
11.15093	-15.29269	11.27051
11.15518	-15.29269	11.27051
11.15943	-15.29269	11.27051
11.16365	-15.29269	11.27051
11.16784	-15.31466	11.27051
11.17204	-15.31466	11.27051
11.17622	-15.31466	11.27051
11.18041	-15.31466	11.27051
11.18459	-15.31466	11.27051
11.18887	-15.31466	11.27051
11.19308	-15.31466	11.27051
11.19727	-15.31466	11.27051
11.20146	-15.31466	11.27051
11.20564	-15.31466	11.27051
11.20983	-15.33664	11.27051
11.21402	-15.31466	11.27051
11.21835	-15.33664	11.27051
11.22257	-15.33664	11.27051
11.22677	-15.33664	11.27051
11.23095	-15.33664	11.27051
11.23526	-15.33664	11.27051
11.23944	-15.33664	11.27051
11.24363	-15.33664	11.27051
11.24793	-15.33664	11.27051
11.25217	-15.33664	11.27051
11.25637	-15.33664	11.27051
11.26055	-15.33664	11.27051
11.26474	-15.33664	11.27051
11.26893	-15.33664	11.27051
11.27311	-15.33664	11.27051
11.27736	-15.33664	11.27051
11.28161	-15.33664	11.27051
11.28582	-15.33664	11.27051
11.29000	-15.33664	11.27051
11.29419	-15.35861	11.27051
11.29838	-15.35861	11.27051
11.30256	-15.35861	11.27051
11.30675	-15.35861	11.27051
11.31103	-15.35861	11.27051
11.31524	-15.33664	11.27051
11.31942	-15.33664	11.27051
11.32361	-15.33664	11.27051
11.32778	-15.33664	11.27051
11.33196	-15.35861	11.27051
11.33625	-15.35861	11.27051
11.34054	-15.33664	11.27051
11.34475	-15.33664	11.27051
11.34894	-15.35861	11.27051
11.35313	-15.35861	11.27051
11.35731	-15.35861	11.27051
11.36150	-15.35861	11.27051
11.36569	-15.35861	11.27051
11.37001	-15.33664	11.27051
11.37424	-15.33664	11.27051
11.37843	-15.35861	11.27051
11.38265	-15.35861	11.27051
11.38684	-15.33664	11.27051
11.39103	-15.35861	11.27051
11.39521	-15.33664	11.27051
11.39946	-15.35861	11.27051
11.40372	-15.33664	11.27051
11.40793	-15.33664	11.27051
11.41212	-15.33664	11.27051
11.41631	-15.35861	11.27051
11.42049	-15.33664	11.27051
11.42468	-15.35861	11.27051
11.42888	-15.33664	11.27051
11.43317	-15.33664	11.27051
11.43750	-15.35861	11.27051
11.44169	-15.33664	11.27051
11.44588	-15.33664	11.27051
11.45006	-15.33664	11.27051
11.45425	-15.33664	11.27051
11.45844	-15.33664	11.27051
11.46276	-15.33664	11.27051
11.46699	-15.33664	11.27051
11.47120	-15.35861	11.27051
11.47540	-15.33664	11.27051
11.47958	-15.33664	11.27051
11.48378	-15.35861	11.27051
11.48796	-15.35861	11.27051
11.49229	-15.33664	11.27051
11.49654	-15.35861	11.27051
11.50073	-15.33664	11.27051
11.50492	-15.33664	11.27051
11.50911	-15.33664	11.27051
11.51329	-15.33664	11.27051
11.51748	-15.33664	11.27051
11.52172	-15.35861	11.27051
11.52598	-15.33664	11.27051
11.53018	-15.35861	11.27051
11.53437	-15.35861	11.27051
11.53866	-15.35861	11.27051
11.54284	-15.33664	11.27051
11.54703	-15.35861	11.27051
11.55121	-15.35861	11.27051
11.55550	-15.35861	11.27051
11.55972	-15.35861	11.27051
11.56391	-15.35861	11.27051
11.56809	-15.35861	11.27051
11.57228	-15.35861	11.27051
11.57646	-15.35861	11.27051
11.58065	-15.35861	11.27051
11.58493	-15.35861	11.27051
11.58915	-15.35861	11.27051
11.59334	-15.35861	11.27051
11.59753	-15.35861	11.27051
11.60171	-15.35861	11.27051
11.60589	-15.35861	11.27051
11.61008	-15.35861	11.27051
11.61440	-15.35861	11.27051
11.61863	-15.35861	11.27051
11.62283	-15.35861	11.27051
11.62701	-15.35861	11.27051
11.63120	-15.35861	11.27051
11.63538	-15.35861	11.27051
11.63969	-15.35861	11.27051
11.64394	-15.35861	11.27051
11.64819	-15.35861	11.27051
11.65239	-15.35861	11.27051
11.65657	-15.35861	11.27051
11.66076	-15.38058	11.27051
11.66494	-15.35861	11.27051
11.66913	-15.35861	11.27051
11.67331	-15.35861	11.27051
11.67759	-15.38058	11.27051
11.68180	-15.38058	11.27051
11.68598	-15.38058	11.27051
11.69017	-15.38058	11.27051
11.69435	-15.38058	11.27051
11.69854	-15.38058	11.27051
11.70272	-15.38058	11.27051
11.70701	-15.38058	11.27051
11.71122	-15.38058	11.27051
11.71541	-15.38058	11.27051
11.71959	-15.38058	11.27051
11.72378	-15.38058	11.27051
11.72796	-15.38058	11.27051
11.73215	-15.40256	11.27051
11.73648	-15.40256	11.27051
11.74083	-15.38058	11.27051
11.74503	-15.40256	11.27051
11.74922	-15.40256	11.27051
11.75341	-15.40256	11.27051
11.75760	-15.40256	11.27051
11.76179	-15.40256	11.27051
11.76602	-15.40256	11.27051
11.77030	-15.40256	11.27051
11.77452	-15.40256	11.27051
11.77871	-15.40256	11.27051
11.78290	-15.40256	11.27051
11.78709	-15.40256	11.27051
11.79128	-15.40256	11.27051
11.79548	-15.42453	11.27051
11.79978	-15.42453	11.27051
11.80400	-15.42453	11.27051
11.80819	-15.42453	11.27051
11.81238	-15.42453	11.27051
11.81657	-15.42453	11.27051
11.82076	-15.42453	11.27051
11.82495	-15.42453	11.27051
11.82926	-15.42453	11.27051
11.83348	-15.42453	11.27051
11.83768	-15.42453	11.27051
11.84199	-15.44650	11.27051
11.84619	-15.42453	11.27051
11.85038	-15.44650	11.27051
11.85457	-15.44650	11.27051
11.85890	-15.42453	11.27051
11.86314	-15.44650	11.27051
11.86736	-15.44650	11.27051
11.87156	-15.44650	11.27051
11.87576	-15.44650	11.27051
11.87995	-15.44650	11.27051
11.88414	-15.44650	11.27051
11.88838	-15.44650	11.27051
11.89263	-15.44650	11.27051
11.89684	-15.44650	11.27051
11.90103	-15.46847	11.27051
11.90522	-15.46847	11.27051
11.90941	-15.44650	11.27051
11.91361	-15.46847	11.27051
11.91780	-15.46847	11.27051
11.92208	-15.46847	11.27051
11.92629	-15.46847	11.27051
11.93048	-15.46847	11.27051
11.93467	-15.46847	11.27051
11.93886	-15.46847	11.27051
11.94317	-15.46847	11.27051
11.94736	-15.46847	11.27051
11.95167	-15.46847	11.27051
11.95588	-15.46847	11.27051
11.96007	-15.46847	11.27051
11.96430	-15.49045	11.27051
11.96850	-15.49045	11.27051
11.97270	-15.49045	11.27051
11.97689	-15.49045	11.27051
11.98124	-15.49045	11.27051
11.98548	-15.49045	11.27051
11.98968	-15.49045	11.27051
11.99386	-15.49045	11.27051
11.99805	-15.51242	11.27051
12.00224	-15.49045	11.27051
12.00642	-15.51242	11.27051
12.01066	-15.51242	11.27051
12.01491	-15.51242	11.27051
12.01911	-15.51242	11.27051
12.02330	-15.51242	11.27051
12.02748	-15.51242	11.27051
12.03168	-15.53439	11.27051
12.03587	-15.51242	11.27051
12.04006	-15.51242	11.27051
12.04444	-15.53439	11.27051
12.04864	-15.53439	11.27051
12.05283	-15.53439	11.27051
12.05701	-15.55636	11.27051
12.06120	-15.53439	11.27051
12.06538	-15.53439	11.27051
12.06959	-15.55636	11.27051
12.07388	-15.55636	11.27051
12.07810	-15.55636	11.27051
12.08229	-15.55636	11.27051
12.08647	-15.55636	11.27051
12.09066	-15.55636	11.27051
12.09485	-15.57834	11.27051
12.09903	-15.57834	11.27051
12.10335	-15.57834	11.27051
12.10759	-15.57834	11.27051
12.11178	-15.60031	11.27051
12.11596	-15.60031	11.27051
12.12015	-15.60031	11.27051
12.12433	-15.60031	11.27051
12.12852	-15.62228	11.27051
12.13276	-15.62228	11.27051
12.13701	-15.64425	11.27051
12.14121	-15.62228	11.27051
12.14550	-15.62228	11.27051
12.14969	-15.62228	11.27051
12.15387	-15.64425	11.27051
12.15806	-15.62228	11.27051
12.16224	-15.64425	11.27051
12.16652	-15.64425	11.27051
12.17075	-15.64425	11.27051
12.17495	-15.66623	11.27051
12.17914	-15.64425	11.27051
12.18332	-15.66623	11.27051
12.18751	-15.66623	11.27051
12.19170	-15.66623	11.27051
12.19600	-15.66623	11.27051
12.20021	-15.66623	11.27051
12.20440	-15.68820	11.27051
12.20859	-15.68820	11.27051
12.21278	-15.68820	11.27051
12.21697	-15.68820	11.27051
12.22116	-15.68820	11.27051
12.22549	-15.71017	11.27051
12.22974	-15.71017	11.27051
12.23393	-15.71017	11.27051
12.23812	-15.71017	11.27051
12.24231	-15.73214	11.27051
12.24660	-15.73214	11.27051
12.25078	-15.73214	11.27051
12.25504	-15.73214	11.27051
12.25929	-15.75412	11.27051
12.26349	-15.75412	11.27051
12.26772	-15.75412	11.27051
12.27191	-15.75412	11.27051
12.27610	-15.75412	11.27051
12.28029	-15.75412	11.27051
12.28447	-15.77609	11.27051
12.28876	-15.75412	11.27051
12.29297	-15.77609	11.27051
12.29716	-15.77609	11.27051
12.30134	-15.77609	11.27051
12.30553	-15.79806	11.27051
12.30971	-15.79806	11.27051
12.31390	-15.79806	11.27051
12.31818	-15.79806	11.27051
12.32240	-15.79806	11.27051
12.32659	-15.79806	11.27051
12.33077	-15.82004	11.27051
12.33496	-15.82004	11.27051
12.33914	-15.82004	11.27051
12.34332	-15.84201	11.27051
12.34778	-15.82004	11.27051
12.35200	-15.82004	11.27051
12.35619	-15.84201	11.27051
12.36037	-15.84201	11.27051
12.36456	-15.84201	11.27051
12.36876	-15.84201	11.27051
12.37295	-15.86398	11.27051
12.37721	-15.86398	11.27051
12.38148	-15.84201	11.27051
12.38572	-15.86398	11.27051
12.38992	-15.86398	11.27051
12.39411	-15.86398	11.27051
12.39830	-15.86398	11.27051
12.40249	-15.86398	11.27051
12.40668	-15.86398	11.27051
12.41097	-15.88595	11.27051
12.41519	-15.88595	11.27051
12.41938	-15.88595	11.27051
12.42357	-15.88595	11.27051
12.42777	-15.88595	11.27051
12.43198	-15.88595	11.27051
12.43618	-15.88595	11.27051
12.44049	-15.88595	11.27051
12.44473	-15.90793	11.27051
12.44904	-15.90793	11.27051
12.45324	-15.90793	11.27051
12.45743	-15.90793	11.27051
12.46162	-15.90793	11.27051
12.46582	-15.90793	11.27051
12.47023	-15.90793	11.27051
12.47449	-15.90793	11.27051
12.47869	-15.90793	11.27051
12.48288	-15.92990	11.27051
12.48707	-15.90793	11.27051
12.49126	-15.90793	11.27051
12.49544	-15.92990	11.27051
12.49971	-15.92990	11.27051
12.50398	-15.92990	11.27051
12.50819	-15.92990	11.27051
12.51238	-15.92990	11.27051
12.51656	-15.92990	11.27051
12.52074	-15.95187	11.27051
12.52493	-15.92990	11.27051
12.52911	-15.92990	11.27051
12.53340	-15.92990	11.27051
12.53761	-15.92990	11.27051
12.54180	-15.92990	11.27051
12.54599	-15.92990	11.27051
12.55028	-15.92990	11.27051
12.55446	-15.92990	11.27051
12.55865	-15.92990	11.27051
12.56293	-15.92990	11.27051
12.56714	-15.92990	11.27051
12.57136	-15.92990	11.27051
12.57556	-15.92990	11.27051
12.57976	-15.92990	11.27051
12.58395	-15.92990	11.27051
12.58814	-15.92990	11.27051
12.59247	-15.92990	11.27051
12.59670	-15.92990	11.27051
12.60089	-15.92990	11.27051
12.60508	-15.92990	11.27051
12.60927	-15.92990	11.27051
12.61345	-15.92990	11.27051
12.61763	-15.92990	11.27051
12.62187	-15.90793	11.27051
12.62612	-15.90793	11.27051
12.63032	-15.90793	11.27051
12.63450	-15.92990	11.27051
12.63869	-15.90793	11.27051
12.64288	-15.90793	11.27051
12.64706	-15.88595	11.27051
12.65135	-15.90793	11.27051
12.65563	-15.90793	11.27051
12.65984	-15.90793	11.27051
12.66402	-15.90793	11.27051
12.66823	-15.90793	11.27051
12.67242	-15.88595	11.27051
12.67661	-15.88595	11.27051
12.68091	-15.86398	11.27051
12.68523	-15.88595	11.27051
12.68946	-15.86398	11.27051
12.69365	-15.86398	11.27051
12.69784	-15.86398	11.27051
12.70202	-15.86398	11.27051
12.70621	-15.84201	11.27051
12.71039	-15.86398	11.27051
12.71471	-15.84201	11.27051
12.71894	-15.84201	11.27051
12.72313	-15.84201	11.27051
12.72732	-15.84201	11.27051
12.73150	-15.82004	11.27051
12.73570	-15.82004	11.27051
12.73988	-15.82004	11.27051
12.74412	-15.82004	11.27051
12.74837	-15.79806	11.27051
12.75268	-15.79806	11.27051
12.75686	-15.79806	11.27051
12.76105	-15.79806	11.27051
12.76523	-15.77609	11.27051
12.76944	-15.79806	11.27051
12.77363	-15.79806	11.27051
12.77792	-15.75412	11.27051
12.78213	-15.77609	11.27051
12.78632	-15.77609	11.27051
12.79050	-15.75412	11.27051
12.79469	-15.75412	11.27051
12.79888	-15.73214	11.27051
12.80306	-15.73214	11.27051
12.80734	-15.73214	11.27051
12.81155	-15.71017	11.27051
12.81574	-15.71017	11.27051
12.81993	-15.71017	11.27051
12.82412	-15.68820	11.27051
12.82830	-15.68820	11.27051
12.83249	-15.68820	11.27051
12.83681	-15.68820	11.27051
12.84104	-15.68820	11.27051
12.84523	-15.66623	11.27051
12.84942	-15.66623	11.27051
12.85372	-15.66623	11.27051
12.85790	-15.66623	11.27051
12.86209	-15.64425	11.27051
12.86633	-15.64425	11.27051
12.87060	-15.62228	11.27051
12.87482	-15.62228	11.27051
12.87901	-15.62228	11.27051
12.88320	-15.62228	11.27051
12.88739	-15.62228	11.27051
12.89157	-15.60031	11.27051
12.89577	-15.57834	11.27051
12.90004	-15.57834	11.27051
12.90426	-15.57834	11.27051
12.90845	-15.57834	11.27051
12.91263	-15.57834	11.27051
12.91682	-15.55636	11.27051
12.92100	-15.55636	11.27051
12.92519	-15.55636	11.27051
12.92947	-15.53439	11.27051
12.93369	-15.53439	11.27051
12.93788	-15.51242	11.27051
12.94206	-15.51242	11.27051
12.94625	-15.51242	11.27051
12.95044	-15.49045	11.27051
12.95473	-15.49045	11.27051
12.95905	-15.49045	11.27051
12.96329	-15.49045	11.27051
12.96748	-15.46847	11.27051
12.97169	-15.46847	11.27051
12.97589	-15.44650	11.27051
12.98008	-15.44650	11.27051
12.98426	-15.44650	11.27051
12.98852	-15.42453	11.27051
12.99277	-15.42453	11.27051
12.99697	-15.40256	11.27051
13.00116	-15.40256	11.27051
13.00534	-15.38058	11.27051
13.00953	-15.38058	11.27051
13.01371	-15.38058	11.27051
13.01790	-15.35861	11.27051
13.02218	-15.35861	11.27051
13.02639	-15.35861	11.27051
13.03059	-15.33664	11.27051
13.03477	-15.33664	11.27051
13.03896	-15.33664	11.27051
13.04315	-15.33664	11.27051
13.04734	-15.31466	11.27051
13.05162	-15.29269	11.27051
13.05591	-15.29269	11.27051
13.06010	-15.29269	11.27051
13.06429	-15.29269	11.27051
13.06849	-15.27072	11.27051
13.07269	-15.27072	11.27051
13.07688	-15.24875	11.27051
13.08122	-15.24875	11.27051
13.08546	-15.24875	11.27051
13.08966	-15.24875	11.27051
13.09390	-15.22677	11.27051
13.09809	-15.20480	11.27051
13.10228	-15.18283	11.27051
13.10646	-15.18283	11.27051
13.11072	-15.18283	11.27051
13.11499	-15.18283	11.27051
13.11919	-15.16086	11.27051
13.12339	-15.16086	11.27051
13.12757	-15.13888	11.27051
13.13177	-15.13888	11.27051
13.13595	-15.13888	11.27051
13.14014	-15.13888	11.27051
13.14442	-15.11691	11.27051
13.14863	-15.09494	11.27051
13.15282	-15.09494	11.27051
13.15711	-15.09494	11.27051
13.16130	-15.07297	11.27051
13.16548	-15.05099	11.27051
13.16969	-15.05099	11.27051
13.17400	-15.05099	11.27051
13.17823	-15.05099	11.27051
13.18242	-15.02902	11.27051
13.18660	-15.02902	11.27051
13.19079	-15.00705	11.27051
13.19498	-15.00705	11.27051
13.19916	-15.00705	11.27051
13.20349	-14.98507	11.27051
13.20774	-14.98507	11.27051
13.21194	-14.96310	11.27051
13.21613	-14.96310	11.27051
13.22032	-14.94113	11.27051
13.22451	-14.94113	11.27051
13.22870	-14.94113	11.27051
13.23297	-14.94113	11.27051
13.23723	-14.91916	11.27051
13.24144	-14.91916	11.27051
13.24563	-14.91916	11.27051
13.24981	-14.89718	11.27051
13.25400	-14.89718	11.27051
13.25829	-14.87521	11.27051
13.26247	-14.87521	11.27051
13.26676	-14.87521	11.27051
13.27100	-14.85324	11.27051
13.27520	-14.85324	11.27051
13.27939	-14.85324	11.27051
13.28358	-14.85324	11.27051
13.28777	-14.83127	11.27051
13.29197	-14.83127	11.27051
13.29626	-14.83127	11.27051
13.30047	-14.83127	11.27051
13.30467	-14.83127	11.27051
13.30885	-14.80929	11.27051
13.31304	-14.80929	11.27051
13.31723	-14.80929	11.27051
13.32141	-14.78732	11.27051
13.32574	-14.78732	11.27051
13.32997	-14.78732	11.27051
13.33417	-14.78732	11.27051
13.33836	-14.78732	11.27051
13.34255	-14.76535	11.27051
13.34673	-14.76535	11.27051
13.35091	-14.76535	11.27051
13.35516	-14.76535	11.27051
13.35953	-14.76535	11.27051
13.36374	-14.76535	11.27051
13.36792	-14.74338	11.27051
13.37212	-14.76535	11.27051
13.37631	-14.76535	11.27051
13.38050	-14.76535	11.27051
13.38471	-14.76535	11.27051
13.38900	-14.76535	11.27051
13.39321	-14.76535	11.27051
13.39740	-14.76535	11.27051
13.40158	-14.74338	11.27051
13.40577	-14.74338	11.27051
13.40996	-14.74338	11.27051
13.41414	-14.74338	11.27051
13.41843	-14.74338	11.27051
13.42265	-14.74338	11.27051
13.42684	-14.74338	11.27051
13.43104	-14.74338	11.27051
13.43524	-14.76535	11.27051
13.43943	-14.76535	11.27051
13.44365	-14.76535	11.27051
13.44798	-14.76535	11.27051
13.45222	-14.76535	11.27051
13.45642	-14.76535	11.27051
13.46071	-14.76535	11.27051
13.46490	-14.76535	11.27051
13.46911	-14.76535	11.27051
13.47331	-14.76535	11.27051
13.47761	-14.78732	11.27051
13.48189	-14.78732	11.27051
13.48610	-14.78732	11.27051
13.49029	-14.78732	11.27051
13.49448	-14.80929	11.27051
13.49867	-14.78732	11.27051
13.50285	-14.80929	11.27051
13.50704	-14.83127	11.27051
13.51132	-14.80929	11.27051
13.51553	-14.80929	11.27051
13.51973	-14.83127	11.27051
13.52392	-14.83127	11.27051
13.52811	-14.83127	11.27051
13.53230	-14.85324	11.27051
13.53648	-14.85324	11.27051
13.54077	-14.85324	11.27051
13.54498	-14.87521	11.27051
13.54917	-14.87521	11.27051
13.55337	-14.87521	11.27051
13.55756	-14.89718	11.27051
13.56185	-14.89718	11.27051
13.56603	-14.89718	11.27051
13.57039	-14.89718	11.27051
13.57464	-14.91916	11.27051
13.57883	-14.91916	11.27051
13.58302	-14.94113	11.27051
13.58721	-14.94113	11.27051
13.59140	-14.94113	11.27051
13.59559	-14.96310	11.27051
13.59984	-14.96310	11.27051
13.60409	-14.98507	11.27051
13.60829	-14.98507	11.27051
13.61248	-15.00705	11.27051
13.61668	-15.00705	11.27051
13.62086	-15.00705	11.27051
13.62505	-15.02902	11.27051
13.62924	-15.02902	11.27051
13.63352	-15.05099	11.27051
13.63773	-15.07297	11.27051
13.64192	-15.07297	11.27051
13.64611	-15.07297	11.27051
13.65029	-15.09494	11.27051
13.65448	-15.09494	11.27051
13.65866	-15.11691	11.27051
13.66305	-15.11691	11.27051
13.66726	-15.11691	11.27051
13.67147	-15.13888	11.27051
13.67568	-15.16086	11.27051
13.67987	-15.16086	11.27051
13.68405	-15.16086	11.27051
13.68824	-15.18283	11.27051
13.69257	-15.20480	11.27051
13.69682	-15.20480	11.27051
13.70101	-15.22677	11.27051
13.70520	-15.22677	11.27051
13.70939	-15.24875	11.27051
13.71358	-15.24875	11.27051
13.71776	-15.24875	11.27051
13.72201	-15.27072	11.27051
13.72627	-15.27072	11.27051
13.73047	-15.29269	11.27051
13.73466	-15.31466	11.27051
13.73885	-15.33664	11.27051
13.74304	-15.33664	11.27051
13.74723	-15.33664	11.27051
13.75141	-15.35861	11.27051
13.75571	-15.35861	11.27051
13.75992	-15.38058	11.27051
13.76421	-15.40256	11.27051
13.76840	-15.40256	11.27051
13.77260	-15.42453	11.27051
13.77680	-15.42453	11.27051
13.78098	-15.44650	11.27051
13.78529	-15.44650	11.27051
13.78950	-15.46847	11.27051
13.79369	-15.49045	11.27051
13.79788	-15.49045	11.27051
13.80206	-15.49045	11.27051
13.80624	-15.51242	11.27051
13.81043	-15.51242	11.27051
13.81474	-15.53439	11.27051
13.81897	-15.53439	11.27051
13.82317	-15.57834	11.27051
13.82736	-15.57834	11.27051
13.83154	-15.57834	11.27051
13.83575	-15.60031	11.27051
13.83993	-15.60031	11.27051
13.84418	-15.62228	11.27051
13.84843	-15.64425	11.27051
13.85263	-15.64425	11.27051
13.85682	-15.64425	11.27051
13.86101	-15.66623	11.27051
13.86530	-15.66623	11.27051
13.86950	-15.68820	11.27051
13.87370	-15.71017	11.27051
13.87798	-15.71017	11.27051
13.88220	-15.73214	11.27051
13.88639	-15.75412	11.27051
13.89058	-15.75412	11.27051
13.89476	-15.77609	11.27051
13.89895	-15.79806	11.27051
13.90313	-15.79806	11.27051
13.90742	-15.79806	11.27051
13.91165	-15.79806	11.27051
13.91584	-15.82004	11.27051
13.92002	-15.84201	11.27051
13.92421	-15.84201	11.27051
13.92839	-15.84201	11.27051
13.93258	-15.88595	11.27051
13.93690	-15.88595	11.27051
13.94113	-15.88595	11.27051
13.94532	-15.90793	11.27051
13.94950	-15.92990	11.27051
13.95369	-15.95187	11.27051
13.95788	-15.95187	11.27051
13.96206	-15.95187	11.27051
13.96640	-15.97384	11.27051
13.97067	-15.97384	11.27051
13.97488	-15.99582	11.27051
13.97908	-16.01779	11.27051
13.98327	-16.01779	11.27051
13.98745	-16.01779	11.27051
13.99165	-16.03976	11.27051
13.99583	-16.06173	11.27051
14.00011	-16.06173	11.27051
14.00433	-16.08371	11.27051
14.00851	-16.08371	11.27051
14.01270	-16.08371	11.27051
14.01688	-16.10568	11.27051
14.02107	-16.12765	11.27051
14.02525	-16.12765	11.27051
14.02954	-16.14963	11.27051
14.03375	-16.14963	11.27051
14.03794	-16.14963	11.27051
14.04213	-16.19357	11.27051
14.04631	-16.19357	11.27051
14.05050	-16.19357	11.27051
14.05468	-16.21554	11.27051
14.05900	-16.23752	11.27051
14.06323	-16.23752	11.27051
14.06753	-16.23752	11.27051
14.07174	-16.25949	11.27051
14.07593	-16.28146	11.27051
14.08013	-16.28146	11.27051
14.08432	-16.30343	11.27051
14.08857	-16.30343	11.27051
14.09284	-16.32541	11.27051
14.09704	-16.32541	11.27051
14.10123	-16.34738	11.27051
14.10541	-16.34738	11.27051
14.10960	-16.36935	11.27051
14.11379	-16.36935	11.27051
14.11797	-16.36935	11.27051
14.12225	-16.39132	11.27051
14.12647	-16.41330	11.27051
14.13065	-16.41330	11.27051
14.13484	-16.43527	11.27051
14.13903	-16.43527	11.27051
14.14321	-16.43527	11.27051
14.14740	-16.45724	11.27051
14.15170	-16.47922	11.27051
14.15593	-16.47922	11.27051
14.16013	-16.50119	11.27051
14.16432	-16.50119	11.27051
14.16861	-16.50119	11.27051
14.17280	-16.52316	11.27051
14.17699	-16.52316	11.27051
14.18133	-16.54513	11.27051
14.18557	-16.56711	11.27051
14.18976	-16.56711	11.27051
14.19395	-16.56711	11.27051
14.19814	-16.58908	11.27051
14.20232	-16.58908	11.27051
14.20651	-16.61105	11.27051
14.21074	-16.61105	11.27051
14.21500	-16.63302	11.27051
14.21921	-16.63302	11.27051
14.22341	-16.65500	11.27051
14.22760	-16.65500	11.27051
14.23178	-16.67697	11.27051
14.23597	-16.67697	11.27051
14.24015	-16.67697	11.27051
14.24444	-16.69894	11.27051
14.24865	-16.69894	11.27051
14.25284	-16.69894	11.27051
14.25703	-16.72091	11.27051
14.26122	-16.72091	11.27051
14.26541	-16.74289	11.27051
14.26976	-16.74289	11.27051
14.27407	-16.76486	11.27051
14.27829	-16.76486	11.27051
14.28248	-16.78683	11.27051
14.28667	-16.76486	11.27051
14.29086	-16.78683	11.27051
14.29505	-16.78683	11.27051
14.29923	-16.78683	11.27051
14.30356	-16.80881	11.27051
14.30781	-16.80881	11.27051
14.31201	-16.80881	11.27051
14.31620	-16.83078	11.27051
14.32039	-16.83078	11.27051
14.32457	-16.85275	11.27051
14.32876	-16.85275	11.27051
14.33301	-16.85275	11.27051
14.33727	-16.85275	11.27051
14.34147	-16.87472	11.27051
14.34565	-16.85275	11.27051
14.34984	-16.87472	11.27051
14.35402	-16.87472	11.27051
14.35821	-16.87472	11.27051
14.36240	-16.87472	11.27051
14.36668	-16.89670	11.27051
14.37103	-16.89670	11.27051
14.37523	-16.89670	11.27051
14.37942	-16.89670	11.27051
14.38365	-16.89670	11.27051
14.38784	-16.91867	11.27051
14.39203	-16.89670	11.27051
14.39633	-16.89670	11.27051
14.40055	-16.89670	11.27051
14.40474	-16.89670	11.27051
14.40893	-16.91867	11.27051
14.41312	-16.91867	11.27051
14.41730	-16.91867	11.27051
14.42149	-16.91867	11.27051
14.42581	-16.91867	11.27051
14.43009	-16.91867	11.27051
14.43430	-16.91867	11.27051
14.43850	-16.91867	11.27051
14.44269	-16.91867	11.27051
14.44687	-16.91867	11.27051
14.45106	-16.91867	11.27051
14.45532	-16.91867	11.27051
14.45959	-16.91867	11.27051
14.46380	-16.91867	11.27051
14.46799	-16.91867	11.27051
14.47232	-16.91867	11.27051
14.47651	-16.91867	11.27051
14.48070	-16.91867	11.27051
14.48488	-16.91867	11.27051
14.48917	-16.91867	11.27051
14.49338	-16.89670	11.27051
14.49757	-16.89670	11.27051
14.50175	-16.89670	11.27051
14.50594	-16.89670	11.27051
14.51012	-16.89670	11.27051
14.51431	-16.89670	11.27051
14.51859	-16.89670	11.27051
14.52281	-16.89670	11.27051
14.52700	-16.87472	11.27051
14.53119	-16.89670	11.27051
14.53537	-16.87472	11.27051
14.53956	-16.87472	11.27051
14.54375	-16.87472	11.27051
14.54807	-16.85275	11.27051
14.55230	-16.85275	11.27051
14.55650	-16.85275	11.27051
14.56068	-16.85275	11.27051
14.56487	-16.85275	11.27051
14.56905	-16.85275	11.27051
14.57336	-16.83078	11.27051
14.57760	-16.85275	11.27051
14.58186	-16.83078	11.27051
14.58607	-16.83078	11.27051
14.59026	-16.83078	11.27051
14.59445	-16.80881	11.27051
14.59864	-16.80881	11.27051
14.60282	-16.80881	11.27051
14.60701	-16.78683	11.27051
14.61129	-16.78683	11.27051
14.61550	-16.78683	11.27051
14.61970	-16.78683	11.27051
14.62389	-16.76486	11.27051
14.62807	-16.76486	11.27051
14.63226	-16.76486	11.27051
14.63644	-16.76486	11.27051
14.64073	-16.76486	11.27051
14.64494	-16.74289	11.27051
14.64913	-16.74289	11.27051
14.65331	-16.72091	11.27051
14.65750	-16.72091	11.27051
14.66169	-16.72091	11.27051
14.66588	-16.72091	11.27051
14.67026	-16.69894	11.27051
14.67461	-16.72091	11.27051
14.67880	-16.69894	11.27051
14.68300	-16.69894	11.27051
14.68718	-16.67697	11.27051
14.69137	-16.67697	11.27051
14.69556	-16.67697	11.27051
14.69981	-16.67697	11.27051
14.70406	-16.65500	11.27051
14.70826	-16.65500	11.27051
14.71245	-16.63302	11.27051
14.71663	-16.63302	11.27051
14.72082	-16.63302	11.27051
14.72500	-16.63302	11.27051
14.72918	-16.61105	11.27051
14.73346	-16.61105	11.27051
14.73767	-16.58908	11.27051
14.74186	-16.58908	11.27051
14.74604	-16.58908	11.27051
14.75023	-16.58908	11.27051
14.75441	-16.56711	11.27051
14.75859	-16.56711	11.27051
14.76288	-16.56711	11.27051
14.76710	-16.54513	11.27051
14.77131	-16.54513	11.27051
14.77561	-16.54513	11.27051
14.77978	-16.52316	11.27051
14.78396	-16.52316	11.27051
14.78814	-16.50119	11.27051
14.79248	-16.50119	11.27051
14.79671	-16.50119	11.27051
14.80090	-16.50119	11.27051
14.80509	-16.47922	11.27051
14.80928	-16.47922	11.27051
14.81347	-16.45724	11.27051
14.81765	-16.45724	11.27051
14.82189	-16.43527	11.27051
14.82614	-16.43527	11.27051
14.83034	-16.43527	11.27051
14.83452	-16.43527	11.27051
14.83871	-16.41330	11.27051
14.84289	-16.41330	11.27051
14.84709	-16.39132	11.27051
14.85128	-16.39132	11.27051
14.85557	-16.39132	11.27051
14.85979	-16.36935	11.27051
14.86398	-16.36935	11.27051
14.86817	-16.36935	11.27051
14.87238	-16.34738	11.27051
14.87669	-16.34738	11.27051
14.88088	-16.34738	11.27051
14.88519	-16.32541	11.27051
14.88940	-16.32541	11.27051
14.89359	-16.30343	11.27051
14.89778	-16.30343	11.27051
14.90196	-16.30343	11.27051
14.90615	-16.28146	11.27051
14.91033	-16.28146	11.27051
14.91465	-16.28146	11.27051
14.91888	-16.25949	11.27051
14.92308	-16.25949	11.27051
14.92726	-16.25949	11.27051
14.93145	-16.23752	11.27051
14.93563	-16.23752	11.27051
14.93977	-16.23752	11.27051
14.94401	-16.21554	11.27051
14.94826	-16.21554	11.27051
14.95246	-16.21554	11.27051
14.95665	-16.19357	11.27051
14.96083	-16.19357	11.27051
14.96502	-16.19357	11.27051
14.96920	-16.17160	11.27051
14.97341	-16.17160	11.27051
14.97781	-16.14963	11.27051
14.98202	-16.14963	11.27051
14.98621	-16.14963	11.27051
14.99039	-16.12765	11.27051
14.99458	-16.12765	11.27051
14.99876	-16.12765	11.27051
15.00336	-16.10568	7.37969
15.00768	-16.10568	7.37969
15.01191	-16.10568	7.37969
15.01610	-16.10568	7.37969
15.02029	-16.08371	7.37969
15.02448	-16.08371	7.37969
15.02866	-16.06173	7.37969
15.03284	-16.06173	7.37969
15.03718	-16.06173	7.37969
15.04142	-16.03976	7.37969
15.04563	-16.03976	7.37969
15.04983	-16.03976	7.37969
15.05402	-16.03976	7.37969
15.05820	-16.01779	7.37969
15.06239	-16.01779	7.37969
15.06663	-16.01779	7.37969
15.07091	-16.01779	7.37969
15.07512	-15.99582	7.37969
15.07932	-15.99582	7.37969
15.08351	-15.97384	7.37969
15.08771	-15.97384	7.37969
15.09189	-15.97384	7.37969
15.09608	-15.97384	7.37969
15.10036	-15.95187	7.37969
15.10467	-15.95187	7.37969
15.10887	-15.92990	7.37969
15.11305	-15.92990	7.37969
15.11724	-15.92990	7.37969
15.12142	-15.90793	7.37969
15.12561	-15.88595	7.37969
15.12989	-15.86398	7.37969
15.13410	-15.86398	7.37969
15.13829	-15.86398	7.37969
15.14248	-15.86398	7.37969
15.14667	-15.84201	7.37969
15.15085	-15.82004	7.37969
15.15504	-15.79806	7.37969
15.15935	-15.77609	7.37969
15.16359	-15.77609	7.37969
15.16780	-15.77609	7.37969
15.17201	-15.75412	7.37969
15.17620	-15.75412	7.37969
15.18039	-15.73214	7.37969
15.18458	-15.71017	7.37969
15.18882	-15.68820	7.37969
15.19308	-15.68820	7.37969
15.19727	-15.66623	7.37969
15.20147	-15.64425	7.37969
15.20577	-15.62228	7.37969
15.20996	-15.60031	7.37969
15.21415	-15.57834	7.37969
15.21833	-15.55636	7.37969
15.22263	-15.55636	7.37969
15.22684	-15.55636	7.37969
15.23103	-15.51242	7.37969
15.23521	-15.49045	7.37969
15.23940	-15.46847	7.37969
15.24359	-15.46847	7.37969
15.24778	-15.44650	7.37969
15.25206	-15.42453	7.37969
15.25628	-15.38058	7.37969
15.26047	-15.38058	7.37969
15.26467	-15.33664	7.37969
15.26887	-15.33664	7.37969
15.27308	-15.33664	7.37969
15.27727	-15.29269	7.37969
15.28163	-15.24875	7.37969
15.28589	-15.22677	7.37969
15.29010	-15.18283	7.37969
15.29429	-15.16086	7.37969
15.29847	-15.13888	7.37969
15.30266	-15.13888	7.37969
15.30695	-15.11691	7.37969
15.31120	-15.07297	7.37969
15.31546	-15.05099	7.37969
15.31968	-15.02902	7.37969
15.32388	-14.98507	7.37969
15.32807	-14.98507	7.37969
15.33225	-14.94113	7.37969
15.33644	-14.89718	7.37969
15.34062	-14.85324	7.37969
15.34490	-14.83127	7.37969
15.34911	-14.78732	7.37969
15.35330	-14.78732	7.37969
15.35749	-14.76535	7.37969
15.36167	-14.72140	7.37969
15.36586	-14.69943	7.37969
15.37004	-14.65548	7.37969
15.37435	-14.61154	7.37969
15.37857	-14.61154	7.37969
15.38279	-14.56759	7.37969
15.38699	-14.52365	7.37969
15.39118	-14.50168	7.37969
15.39536	-14.43576	7.37969
15.39955	-14.41379	7.37969
15.40389	-14.41379	7.37969
15.40824	-14.36984	7.37969
15.41243	-14.32589	7.37969
15.41661	-14.28195	7.37969
15.42080	-14.23800	7.37969
15.42499	-14.23800	7.37969
15.42917	-14.15011	7.37969
15.43343	-14.15011	7.37969
15.43769	-14.10617	7.37969
15.44190	-14.06222	7.37969
15.44610	-14.01828	7.37969
15.45029	-13.97433	7.37969
15.45448	-13.97433	7.37969
15.45866	-13.90841	7.37969
15.46285	-13.86447	7.37969
15.46714	-13.82052	7.37969
15.47138	-13.77658	7.37969
15.47557	-13.73263	7.37969
15.47977	-13.68869	7.37969
15.48396	-13.68869	7.37969
15.48814	-13.64474	7.37969
15.49233	-13.60080	7.37969
15.49668	-13.53488	7.37969
15.50090	-13.49093	7.37969
15.50509	-13.44699	7.37969
15.50938	-13.44699	7.37969
15.51357	-13.38107	7.37969
15.51776	-13.35910	7.37969
15.52194	-13.29318	7.37969
15.52626	-13.22726	7.37969
15.53050	-13.18332	7.37969
15.53470	-13.13937	7.37969
15.53888	-13.13937	7.37969
15.54307	-13.07345	7.37969
15.54726	-13.02951	7.37969
15.55144	-12.96359	7.37969
15.55569	-12.91964	7.37969
15.55995	-12.87570	7.37969
15.56415	-12.87570	7.37969
15.56834	-12.80978	7.37969
15.57254	-12.76584	7.37969
15.57674	-12.69992	7.37969
15.58092	-12.65597	7.37969
15.58511	-12.59006	7.37969
15.58939	-12.59006	7.37969
15.59360	-12.52414	7.37969
15.59779	-12.48019	7.37969
15.60197	-12.43625	7.37969
15.60616	-12.37033	7.37969
15.61045	-12.32638	7.37969
15.61463	-12.26047	7.37969
15.61892	-12.26047	7.37969
15.62314	-12.19455	7.37969
15.62733	-12.15060	7.37969
15.63151	-12.08468	7.37969
15.63571	-12.01877	7.37969
15.63989	-12.01877	7.37969
15.64408	-11.97482	7.37969
15.64840	-11.90890	7.37969
15.65264	-11.84298	7.37969
15.65683	-11.77707	7.37969
15.66102	-11.73312	7.37969
15.66520	-11.73312	7.37969
15.66939	-11.66720	7.37969
15.67359	-11.60129	7.37969
15.67785	-11.53537	7.37969
15.68211	-11.49142	7.37969
15.68631	-11.44748	7.37969
15.69051	-11.38156	7.37969
15.69469	-11.38156	7.37969
15.69888	-11.31564	7.37969
15.70307	-11.24972	7.37969
15.70726	-11.20578	7.37969
15.71167	-11.11789	7.37969
15.71587	-11.11789	7.37969
15.72006	-11.07394	7.37969
15.72425	-11.00802	7.37969
15.72843	-10.96408	7.37969
15.73262	-10.89816	7.37969
15.73680	-10.83224	7.37969
15.74109	-10.78830	7.37969
15.74530	-10.78830	7.37969
15.74949	-10.72238	7.37969
15.75368	-10.65646	7.37969
15.75786	-10.59054	7.37969
15.76205	-10.54660	7.37969
15.76623	-10.45871	7.37969
15.77056	-10.43673	7.37969
15.77481	-10.43673	7.37969
15.77901	-10.37082	7.37969
15.78320	-10.30490	7.37969
15.78739	-10.26095	7.37969
15.79157	-10.17306	7.37969
15.79577	-10.12912	7.37969
15.80001	-10.12912	7.37969
15.80427	-10.06320	7.37969
15.80847	-9.99728	7.37969
15.81276	-9.95334	7.37969
15.81695	-9.88742	7.37969
15.82113	-9.84347	7.37969
15.82531	-9.84347	7.37969
15.82950	-9.77756	7.37969
15.83377	-9.71164	7.37969
15.83799	-9.66769	7.37969
15.84217	-9.60177	7.37969
15.84636	-9.53586	7.37969
15.85054	-9.53586	7.37969
15.85473	-9.49191	7.37969
15.85891	-9.42599	7.37969
15.86320	-9.38205	7.37969
15.86741	-9.31613	7.37969
15.87167	-9.27218	7.37969
15.87586	-9.20627	7.37969
15.88005	-9.20627	7.37969
15.88424	-9.16232	7.37969
15.88842	-9.09640	7.37969
15.89276	-9.03048	7.37969
15.89699	-8.98654	7.37969
15.90118	-8.98654	7.37969
15.90537	-8.94259	7.37969
15.90956	-8.87668	7.37969
15.91385	-8.83273	7.37969
15.91803	-8.78879	7.37969
15.92227	-8.72287	7.37969
15.92652	-8.72287	7.37969
15.93072	-8.67892	7.37969
15.93491	-8.61300	7.37969
15.93909	-8.56906	7.37969
15.94328	-8.52511	7.37969
15.94746	-8.50314	7.37969
15.95165	-8.43722	7.37969
15.95593	-8.43722	7.37969
15.96014	-8.39328	7.37969
15.96432	-8.34933	7.37969
15.96851	-8.28341	7.37969
15.97272	-8.23947	7.37969
15.97691	-8.23947	7.37969
15.98111	-8.19552	7.37969
15.98541	-8.15158	7.37969
15.98963	-8.10763	7.37969
15.99382	-8.06369	7.37969
15.99800	-8.01974	7.37969
16.00219	-7.97580	7.37969
16.00637	-7.97580	7.37969
16.01056	-7.93185	7.37969
16.01499	-7.88791	7.37969
16.01921	-7.84396	7.37969
16.02340	-7.80002	7.37969
16.02758	-7.77804	7.37969
16.03177	-7.73410	7.37969
16.03596	-7.73410	7.37969
16.04014	-7.69015	7.37969
16.04439	-7.64621	7.37969
16.04865	-7.62423	7.37969
16.05285	-7.58029	7.37969
16.05705	-7.53634	7.37969
16.06123	-7.53634	7.37969
16.06542	-7.49240	7.37969
16.06960	-7.44845	7.37969
16.07380	-7.42648	7.37969
16.07810	-7.38254	7.37969
16.08232	-7.33859	7.37969
16.08652	-7.33859	7.37969
16.09070	-7.31662	7.37969
16.09489	-7.27267	7.37969
16.09907	-7.25070	7.37969
16.10326	-7.22873	7.37969
16.10755	-7.18478	7.37969
16.11177	-7.16281	7.37969
16.11606	-7.16281	7.37969
16.12024	-7.11886	7.37969
16.12443	-7.09689	7.37969
16.12862	-7.05295	7.37969
16.13280	-7.03097	7.37969
16.13712	-6.98703	7.37969
16.14137	-6.98703	7.37969
16.14556	-6.96506	7.37969
16.14975	-6.94308	7.37969
16.15394	-6.92111	7.37969
16.15812	-6.87716	7.37969
16.16231	-6.87716	7.37969
16.16654	-6.85519	7.37969
16.17080	-6.83322	7.37969
16.17502	-6.81125	7.37969
16.17921	-6.78927	7.37969
16.18340	-6.76730	7.37969
16.18758	-6.76730	7.37969
16.19177	-6.74533	7.37969
16.19596	-6.72336	7.37969
16.20024	-6.67941	7.37969
16.20445	-6.67941	7.37969
16.20864	-6.65744	7.37969
16.21282	-6.63547	7.37969
16.21711	-6.63547	7.37969
16.22130	-6.61349	7.37969
16.22549	-6.59152	7.37969
16.22979	-6.56955	7.37969
16.23400	-6.56955	7.37969
16.23819	-6.54757	7.37969
16.24238	-6.54757	7.37969
16.24656	-6.54757	7.37969
16.25075	-6.52560	7.37969
16.25493	-6.50363	7.37969
16.25925	-6.48166	7.37969
16.26348	-6.45968	7.37969
16.26768	-6.45968	7.37969
16.27187	-6.45968	7.37969
16.27607	-6.45968	7.37969
16.28026	-6.43771	7.37969
16.28445	-6.43771	7.37969
16.28871	-6.41574	7.37969
16.29296	-6.39377	7.37969
16.29716	-6.39377	7.37969
16.30135	-6.39377	7.37969
16.30554	-6.39377	7.37969
16.30972	-6.37179	7.37969
16.31391	-6.39377	7.37969
16.31820	-6.37179	7.37969
16.32248	-6.37179	7.37969
16.32670	-6.37179	7.37969
16.33089	-6.37179	7.37969
16.33508	-6.34982	7.37969
16.33927	-6.34982	7.37969
16.34345	-6.34982	7.37969
16.34765	-6.34982	7.37969
16.35194	-6.34982	7.37969
16.35616	-6.34982	7.37969
16.36035	-6.32785	7.37969
16.36453	-6.34982	7.37969
16.36872	-6.34982	7.37969
16.37292	-6.34982	7.37969
16.37712	-6.34982	7.37969
16.38145	-6.34982	7.37969
16.38574	-6.34982	7.37969
16.38994	-6.34982	7.37969
16.39413	-6.34982	7.37969
16.39833	-6.34982	7.37969
16.40252	-6.34982	7.37969
16.40671	-6.34982	7.37969
16.41096	-6.37179	7.37969
16.41522	-6.37179	7.37969
16.41954	-6.37179	7.37969
16.42374	-6.39377	7.37969
16.42794	-6.39377	7.37969
16.43214	-6.39377	7.37969
16.43634	-6.39377	7.37969
16.44053	-6.39377	7.37969
16.44484	-6.41574	7.37969
16.44906	-6.41574	7.37969
16.45326	-6.43771	7.37969
16.45746	-6.43771	7.37969
16.46165	-6.45968	7.37969
16.46584	-6.45968	7.37969
16.47004	-6.48166	7.37969
16.47440	-6.48166	7.37969
16.47863	-6.48166	7.37969
16.48283	-6.50363	7.37969
16.48703	-6.52560	7.37969
16.49122	-6.52560	7.37969
16.49542	-6.54757	7.37969
16.49961	-6.56955	7.37969
16.50394	-6.56955	7.37969
16.50817	-6.56955	7.37969
16.51237	-6.61349	7.37969
16.51655	-6.61349	7.37969
16.52085	-6.63547	7.37969
16.52503	-6.63547	7.37969
16.52922	-6.67941	7.37969
16.53346	-6.67941	7.37969
16.53772	-6.70138	7.37969
16.54192	-6.72336	7.37969
16.54611	-6.74533	7.37969
16.55029	-6.74533	7.37969
16.55448	-6.78927	7.37969
16.55866	-6.78927	7.37969
16.56285	-6.81125	7.37969
16.56713	-6.83322	7.37969
16.57135	-6.85519	7.37969
16.57557	-6.87716	7.37969
16.57977	-6.89914	7.37969
16.58396	-6.92111	7.37969
16.58815	-6.92111	7.37969
16.59234	-6.96506	7.37969
16.59663	-6.98703	7.37969
16.60084	-7.00900	7.37969
16.60503	-7.05295	7.37969
16.60922	-7.07492	7.37969
16.61340	-7.07492	7.37969
16.61759	-7.09689	7.37969
16.62187	-7.11886	7.37969
16.62619	-7.14084	7.37969
16.63043	-7.18478	7.37969
16.63462	-7.20675	7.37969
16.63880	-7.25070	7.37969
16.64299	-7.25070	7.37969
16.64717	-7.27267	7.37969
16.65136	-7.29464	7.37969
16.65562	-7.33859	7.37969
16.65984	-7.36056	7.37969
16.66404	-7.36056	7.37969
16.66823	-7.40451	7.37969
16.67242	-7.44845	7.37969
16.67662	-7.47043	7.37969
16.68081	-7.51437	7.37969
16.68502	-7.53634	7.37969
16.68932	-7.53634	7.37969
16.69354	-7.58029	7.37969
16.69773	-7.62423	7.37969
16.70192	-7.64621	7.37969
16.70612	-7.69015	7.37969
16.71031	-7.71213	7.37969
16.71450	-7.75607	7.37969
16.71880	-7.75607	7.37969
16.72313	-7.80002	7.37969
16.72732	-7.84396	7.37969
16.73151	-7.86593	7.37969
16.73571	-7.90988	7.37969
16.73990	-7.90988	7.37969
16.74409	-7.95382	7.37969
16.74841	-7.97580	7.37969
16.75264	-8.01974	7.37969
16.75684	-8.06369	7.37969
16.76102	-8.10763	7.37969
16.76521	-8.15158	7.37969
16.76939	-8.15158	7.37969
16.77360	-8.17355	7.37969
16.77784	-8.21750	7.37969
16.78211	-8.26144	7.37969
16.78632	-8.30539	7.37969
16.79051	-8.34933	7.37969
16.79470	-8.37131	7.37969
16.79889	-8.37131	7.37969
16.80307	-8.41525	7.37969
16.80726	-8.45920	7.37969
16.81154	-8.50314	7.37969
16.81576	-8.54709	7.37969
16.81995	-8.59103	7.37969
16.82424	-8.59103	7.37969
16.82842	-8.63498	7.37969
16.83261	-8.67892	7.37969
16.83679	-8.72287	7.37969
16.84107	-8.76681	7.37969
16.84529	-8.81076	7.37969
16.84947	-8.81076	7.37969
16.85366	-8.85470	7.37969
16.85785	-8.89865	7.37969
16.86203	-8.96457	7.37969
16.86622	-8.98654	7.37969
16.87054	-9.05246	7.37969
16.87479	-9.05246	7.37969
16.87900	-9.07443	7.37969
16.88319	-9.11838	7.37969
16.88739	-9.16232	7.37969
16.89157	-9.20627	7.37969
16.89577	-9.27218	7.37969
16.90002	-9.31613	7.37969
16.90427	-9.31613	7.37969
16.90847	-9.36007	7.37969
16.91266	-9.40402	7.37969
16.91684	-9.44797	7.37969
16.92102	-9.51388	7.37969
16.92531	-9.53586	7.37969
16.92949	-9.53586	7.37969
16.93377	-9.60177	7.37969
16.93797	-9.64572	7.37969
16.94216	-9.68966	7.37969
16.94635	-9.73361	7.37969
16.95053	-9.73361	7.37969
16.95471	-9.79953	7.37969
16.95890	-9.84347	7.37969
16.96318	-9.88742	7.37969
16.96739	-9.93136	7.37969
16.97159	-9.97531	7.37969
16.97579	-10.01925	7.37969
16.97999	-10.01925	7.37969
16.98418	-10.08517	7.37969
16.98837	-10.10714	7.37969
16.99271	-10.17306	7.37969
16.99696	-10.23898	7.37969
17.00115	-10.28293	7.37969
17.00533	-10.30490	7.37969
17.00952	-10.30490	7.37969
17.01371	-10.37082	7.37969
17.01789	-10.41476	7.37969
17.02212	-10.45871	7.37969
17.02650	-10.52463	7.37969
17.03070	-10.52463	7.37969
17.03489	-10.56857	7.37969
17.03908	-10.61252	7.37969
17.04327	-10.65646	7.37969
17.04746	-10.72238	7.37969
17.05165	-10.76632	7.37969
17.05594	-10.81027	7.37969
17.06015	-10.81027	7.37969
17.06434	-10.85422	7.37969
17.06852	-10.89816	7.37969
17.07271	-10.96408	7.37969
17.07691	-11.00802	7.37969
17.08111	-11.05197	7.37969
17.08540	-11.05197	7.37969
17.08962	-11.11789	7.37969
17.09382	-11.13986	7.37969
17.09802	-11.20578	7.37969
17.10220	-11.24972	7.37969
17.10639	-11.29367	7.37969
17.11058	-11.29367	7.37969
17.11490	-11.33761	7.37969
17.11914	-11.38156	7.37969
17.12333	-11.44748	7.37969
17.12762	-11.49142	7.37969
17.13178	-11.53537	7.37969
17.13596	-11.57931	7.37969
17.14015	-11.57931	7.37969
17.14438	-11.64523	7.37969
17.14864	-11.68918	7.37969
17.15284	-11.73312	7.37969
17.15703	-11.77707	7.37969
17.16122	-11.82101	7.37969
17.16540	-11.82101	7.37969
17.16959	-11.86496	7.37969
17.17379	-11.93088	7.37969
17.17809	-11.97482	7.37969
17.18230	-12.01877	7.37969
17.18649	-12.06271	7.37969
17.19068	-12.06271	7.37969
17.19486	-12.10666	7.37969
17.19905	-12.15060	7.37969
17.20324	-12.19455	7.37969
17.20754	-12.23849	7.37969
17.21177	-12.23849	7.37969
17.21596	-12.28244	7.37969
17.22015	-12.34836	7.37969
17.22434	-12.37033	7.37969
17.22863	-12.43625	7.37969
17.23281	-12.45822	7.37969
17.23714	-12.50216	7.37969
17.24138	-12.50216	7.37969
17.24557	-12.54611	7.37969
17.24976	-12.59006	7.37969
17.25395	-12.63400	7.37969
17.25814	-12.67795	7.37969
17.26232	-12.72189	7.37969
17.26655	-12.74386	7.37969
17.27080	-12.74386	7.37969
17.27503	-12.80978	7.37969
17.27924	-12.83175	7.37969
17.28343	-12.87570	7.37969
17.28761	-12.91964	7.37969
17.29178	-12.91964	7.37969
17.29596	-12.96359	7.37969
17.30025	-13.00754	7.37969
17.30446	-13.05148	7.37969
17.30865	-13.07345	7.37969
17.31284	-13.11740	7.37969
17.31702	-13.16134	7.37969
17.32121	-13.16134	7.37969
17.32540	-13.20529	7.37969
17.32979	-13.24923	7.37969
17.33399	-13.27121	7.37969
17.33819	-13.31515	7.37969
17.34237	-13.35910	7.37969
17.34656	-13.40304	7.37969
17.35074	-13.40304	7.37969
17.35493	-13.42502	7.37969
17.35925	-13.46896	7.37969
17.36349	-13.49093	7.37969
17.36768	-13.53488	7.37969
17.37187	-13.57882	7.37969
17.37608	-13.57882	7.37969
17.38028	-13.60080	7.37969
17.38449	-13.64474	7.37969
17.38875	-13.66672	7.37969
17.39302	-13.71066	7.37969
17.39722	-13.73263	7.37969
17.40141	-13.73263	7.37969
17.40560	-13.77658	7.37969
17.40979	-13.82052	7.37969
17.41398	-13.86447	7.37969
17.41816	-13.86447	7.37969
17.42245	-13.90841	7.37969
17.42666	-13.90841	7.37969
17.43095	-13.93039	7.37969
17.43515	-13.97433	7.37969
17.43935	-13.99631	7.37969
17.44355	-14.04025	7.37969
17.44776	-14.08420	7.37969
17.45212	-14.08420	7.37969
17.45635	-14.10617	7.37969
17.46054	-14.12814	7.37969
17.46473	-14.15011	7.37969
17.46893	-14.19406	7.37969
17.47318	-14.21603	7.37969
17.47738	-14.23800	7.37969
17.48173	-14.23800	7.37969
17.48600	-14.25998	7.37969
17.49020	-14.30392	7.37969
17.49439	-14.32589	7.37969
17.49858	-14.34787	7.37969
17.50276	-14.34787	7.37969
17.50695	-14.36984	7.37969
17.51120	-14.39181	7.37969
17.51546	-14.41379	7.37969
17.51968	-14.43576	7.37969
17.52387	-14.45773	7.37969
17.52806	-14.50168	7.37969
17.53235	-14.50168	7.37969
17.53654	-14.52365	7.37969
17.54072	-14.52365	7.37969
17.54501	-14.54562	7.37969
17.54921	-14.56759	7.37969
17.55341	-14.58957	7.37969
17.55760	-14.58957	7.37969
17.56178	-14.61154	7.37969
17.56597	-14.63351	7.37969
17.57015	-14.65548	7.37969
17.57446	-14.65548	7.37969
17.57868	-14.67746	7.37969
17.58288	-14.69943	7.37969
17.58707	-14.69943	7.37969
17.59126	-14.72140	7.37969
17.59545	-14.74338	7.37969
17.59964	-14.74338	7.37969
17.60397	-14.76535	7.37969
17.60820	-14.76535	7.37969
17.61239	-14.76535	7.37969
17.61658	-14.78732	7.37969
17.62077	-14.80929	7.37969
17.62495	-14.83127	7.37969
17.62914	-14.83127	7.37969
17.63348	-14.85324	7.37969
17.63773	-14.85324	7.37969
17.64193	-14.85324	7.37969
17.64612	-14.87521	7.37969
17.65031	-14.87521	7.37969
17.65450	-14.87521	7.37969
17.65868	-14.89718	7.37969
17.66287	-14.89718	7.37969
17.66714	-14.89718	7.37969
17.67136	-14.91916	7.37969
17.67557	-14.91916	7.37969
17.67978	-14.91916	7.37969
17.68396	-14.91916	7.37969
17.68815	-14.91916	7.37969
17.69235	-14.94113	7.37969
17.69665	-14.94113	7.37969
17.70086	-14.96310	7.37969
17.70506	-14.94113	7.37969
17.70924	-14.96310	7.37969
17.71343	-14.96310	7.37969
17.71761	-14.96310	7.37969
17.72180	-14.96310	7.37969
17.72612	-14.96310	7.37969
17.73036	-14.96310	7.37969
17.73465	-14.96310	7.37969
17.73884	-14.96310	7.37969
17.74303	-14.96310	7.37969
17.74721	-14.96310	7.37969
17.75140	-14.96310	7.37969
17.75565	-14.96310	7.37969
17.75991	-14.96310	7.37969
17.76411	-14.96310	7.37969
17.76830	-14.96310	7.37969
17.77248	-14.94113	7.37969
17.77669	-14.94113	7.37969
17.78089	-14.94113	7.37969
17.78507	-14.94113	7.37969
17.78936	-14.94113	7.37969
17.79357	-14.94113	7.37969
17.79776	-14.91916	7.37969
17.80194	-14.94113	7.37969
17.80613	-14.91916	7.37969
17.81031	-14.91916	7.37969
17.81450	-14.89718	7.37969
17.81879	-14.89718	7.37969
17.82300	-14.89718	7.37969
17.82719	-14.89718	7.37969
17.83138	-14.89718	7.37969
17.83568	-14.87521	7.37969
17.83986	-14.87521	7.37969
17.84405	-14.85324	7.37969
17.84838	-14.85324	7.37969
17.85261	-14.83127	7.37969
17.85680	-14.83127	7.37969
17.86099	-14.80929	7.37969
17.86518	-14.80929	7.37969
17.86936	-14.78732	7.37969
17.87354	-14.78732	7.37969
17.87780	-14.78732	7.37969
17.88206	-14.76535	7.37969
17.88627	-14.74338	7.37969
17.89046	-14.74338	7.37969
17.89465	-14.72140	7.37969
17.89883	-14.72140	7.37969
17.90302	-14.69943	7.37969
17.90720	-14.69943	7.37969
17.91148	-14.67746	7.37969
17.91571	-14.65548	7.37969
17.91991	-14.63351	7.37969
17.92410	-14.63351	7.37969
17.92829	-14.63351	7.37969
17.93247	-14.61154	7.37969
17.93676	-14.58957	7.37969
17.94105	-14.56759	7.37969
17.94526	-14.54562	7.37969
17.94945	-14.52365	7.37969
17.95364	-14.52365	7.37969
17.95782	-14.50168	7.37969
17.96201	-14.47970	7.37969
17.96619	-14.45773	7.37969
17.97051	-14.43576	7.37969
17.97477	-14.43576	7.37969
17.97897	-14.41379	7.37969
17.98317	-14.39181	7.37969
17.98735	-14.36984	7.37969
17.99154	-14.34787	7.37969
17.99574	-14.32589	7.37969
17.99999	-14.30392	7.37969
18.00425	-14.30392	7.37969
18.00845	-14.28195	7.37969
18.01264	-14.25998	7.37969
18.01683	-14.21603	7.37969
18.02101	-14.19406	7.37969
18.02520	-14.17209	7.37969
18.02938	-14.15011	7.37969
18.03366	-14.15011	7.37969
18.03797	-14.12814	7.37969
18.04216	-14.08420	7.37969
18.04634	-14.06222	7.37969
18.05053	-14.04025	7.37969
18.05471	-14.04025	7.37969
18.05890	-14.01828	7.37969
18.06318	-13.99631	7.37969
18.06740	-13.95236	7.37969
18.07159	-13.90841	7.37969
18.07580	-13.90841	7.37969
18.07999	-13.88644	7.37969
18.08417	-13.88644	7.37969
18.08836	-13.84250	7.37969
18.09269	-13.82052	7.37969
18.09693	-13.77658	7.37969
18.10112	-13.75461	7.37969
18.10530	-13.73263	7.37969
18.10949	-13.73263	7.37969
18.11368	-13.68869	7.37969
18.11786	-13.66672	7.37969
18.12209	-13.64474	7.37969
18.12635	-13.60080	7.37969
18.13055	-13.55685	7.37969
18.13474	-13.53488	7.37969
18.13903	-13.53488	7.37969
18.14321	-13.49093	7.37969
18.14740	-13.46896	7.37969
18.15158	-13.42502	7.37969
18.15587	-13.40304	7.37969
18.16008	-13.35910	7.37969
18.16426	-13.35910	7.37969
18.16845	-13.33713	7.37969
18.17264	-13.31515	7.37969
18.17684	-13.27121	7.37969
18.18104	-13.24923	7.37969
18.18535	-13.20529	7.37969
18.18957	-13.20529	7.37969
18.19376	-13.16134	7.37969
18.19795	-13.11740	7.37969
18.20214	-13.09543	7.37969
18.20632	-13.05148	7.37969
18.21051	-13.02951	7.37969
18.21483	-13.02951	7.37969
18.21907	-12.98556	7.37969
18.22326	-12.94162	7.37969
18.22745	-12.91964	7.37969
18.23164	-12.87570	7.37969
18.23583	-12.87570	7.37969
18.24012	-12.83175	7.37969
18.24437	-12.78781	7.37969
18.24862	-12.76584	7.37969
18.25283	-12.74386	7.37969
18.25702	-12.69992	7.37969
18.26121	-12.65597	7.37969
18.26539	-12.65597	7.37969
18.26958	-12.61203	7.37969
18.27377	-12.59006	7.37969
18.27807	-12.54611	7.37969
18.28229	-12.50216	7.37969
18.28649	-12.45822	7.37969
18.29068	-12.43625	7.37969
18.29487	-12.43625	7.37969
18.29906	-12.39230	7.37969
18.30325	-12.34836	7.37969
18.30754	-12.32638	7.37969
18.31177	-12.28244	7.37969
18.31595	-12.28244	7.37969
18.32014	-12.23849	7.37969
18.32433	-12.19455	7.37969
18.32852	-12.15060	7.37969
18.33270	-12.12863	7.37969
18.33703	-12.10666	7.37969
18.34137	-12.06271	7.37969
18.34556	-12.06271	7.37969
18.34975	-12.01877	7.37969
18.35394	-11.97482	7.37969
18.35812	-11.93088	7.37969
18.36231	-11.90890	7.37969
18.36655	-11.86496	7.37969
18.37081	-11.82101	7.37969
18.37503	-11.82101	7.37969
18.37922	-11.77707	7.37969
18.38343	-11.73312	7.37969
18.38765	-11.71115	7.37969
18.39185	-11.66720	7.37969
18.39604	-11.62326	7.37969
18.40032	-11.62326	7.37969
18.40454	-11.57931	7.37969
18.40873	-11.55734	7.37969
18.41292	-11.51339	7.37969
18.41710	-11.46945	7.37969
18.42129	-11.44748	7.37969
18.42547	-11.44748	7.37969
18.42977	-11.40353	7.37969
18.43400	-11.35959	7.37969
18.43819	-11.33761	7.37969
18.44252	-11.29367	7.37969
18.44671	-11.24972	7.37969
18.45091	-11.24972	7.37969
18.45511	-11.20578	7.37969
18.45946	-11.18381	7.37969
18.46372	-11.13986	7.37969
18.46792	-11.09591	7.37969
18.47212	-11.05197	7.37969
18.47633	-11.05197	7.37969
18.48052	-11.00802	7.37969
18.48471	-10.98605	7.37969
18.48897	-10.94211	7.37969
18.49323	-10.92013	7.37969
18.49744	-10.87619	7.37969
18.50163	-10.85422	7.37969
18.50581	-10.85422	7.37969
18.51000	-10.81027	7.37969
18.51419	-10.76632	7.37969
18.51837	-10.74435	7.37969
18.52265	-10.70041	7.37969
18.52686	-10.70041	7.37969
18.53105	-10.65646	7.37969
18.53524	-10.63449	7.37969
18.53943	-10.59054	7.37969
18.54373	-10.56857	7.37969
18.54792	-10.52463	7.37969
18.55228	-10.50265	7.37969
18.55648	-10.50265	7.37969
18.56067	-10.45871	7.37969
18.56486	-10.41476	7.37969
18.56904	-10.39279	7.37969
18.57323	-10.34884	7.37969
18.57745	-10.32687	7.37969
18.58178	-10.32687	7.37969
18.58605	-10.28293	7.37969
18.59025	-10.26095	7.37969
18.59444	-10.23898	7.37969
18.59863	-10.19504	7.37969
18.60281	-10.15109	7.37969
18.60700	-10.12912	7.37969
18.61125	-10.12912	7.37969
18.61553	-10.08517	7.37969
18.61974	-10.06320	7.37969
18.62393	-10.01925	7.37969
18.62812	-9.99728	7.37969
18.63230	-9.97531	7.37969
18.63649	-9.97531	7.37969
18.64067	-9.93136	7.37969
18.64507	-9.90939	7.37969
18.64926	-9.86545	7.37969
18.65345	-9.84347	7.37969
18.65763	-9.79953	7.37969
18.66182	-9.79953	7.37969
18.66600	-9.77756	7.37969
18.67019	-9.75558	7.37969
18.67454	-9.73361	7.37969
18.67877	-9.68966	7.37969
18.68296	-9.64572	7.37969
18.68715	-9.62375	7.37969
18.69136	-9.62375	7.37969
18.69554	-9.60177	7.37969
18.69974	-9.55783	7.37969
18.70406	-9.53586	7.37969
18.70832	-9.51388	7.37969
18.71251	-9.46994	7.37969
18.71670	-9.46994	7.37969
18.72088	-9.44797	7.37969
18.72507	-9.42599	7.37969
18.72926	-9.40402	7.37969
18.73349	-9.36007	7.37969
18.73777	-9.36007	7.37969
18.74196	-9.33810	7.37969
18.74625	-9.31613	7.37969
18.75043	-9.27218	7.37969
18.75462	-9.25021	7.37969
18.75880	-9.22824	7.37969
18.76299	-9.20627	7.37969
18.76728	-9.20627	7.37969
18.77148	-9.18429	7.37969
18.77570	-9.16232	7.37969
18.77989	-9.14035	7.37969
18.78408	-9.09640	7.37969
18.78826	-9.07443	7.37969
18.79245	-9.07443	7.37969
18.79680	-9.05246	7.37969
18.80100	-9.03048	7.37969
18.80519	-9.03048	7.37969
18.80938	-8.98654	7.37969
18.81356	-8.96457	7.37969
18.81775	-8.96457	7.37969
18.82193	-8.94259	7.37969
18.82624	-8.92062	7.37969
18.83049	-8.89865	7.37969
18.83468	-8.87668	7.37969
18.83887	-8.85470	7.37969
18.84305	-8.83273	7.37969
18.84735	-8.83273	7.37969
18.85154	-8.81076	7.37969
18.85582	-8.81076	7.37969
18.86009	-8.78879	7.37969
18.86429	-8.76681	7.37969
18.86848	-8.74484	7.37969
18.87267	-8.74484	7.37969
18.87689	-8.72287	7.37969
18.88108	-8.70089	7.37969
18.88527	-8.70089	7.37969
18.88955	-8.67892	7.37969
18.89375	-8.65695	7.37969
18.89794	-8.65695	7.37969
18.90213	-8.65695	7.37969
18.90632	-8.63498	7.37969
18.91050	-8.61300	7.37969
18.91469	-8.59103	7.37969
18.91908	-8.59103	7.37969
18.92328	-8.56906	7.37969
18.92747	-8.56906	7.37969
18.93166	-8.56906	7.37969
18.93585	-8.54709	7.37969
18.94004	-8.54709	7.37969
18.94422	-8.52511	7.37969
18.94868	-8.50314	7.37969
18.95291	-8.50314	7.37969
18.95710	-8.50314	7.37969
18.96129	-8.48117	7.37969
18.96548	-8.48117	7.37969
18.96966	-8.48117	7.37969
18.97385	-8.45920	7.37969
18.97812	-8.45920	7.37969
18.98241	-8.45920	7.37969
18.98661	-8.43722	7.37969
18.99081	-8.43722	7.37969
18.99500	-8.41525	7.37969
18.99919	-8.41525	7.37969
19.00338	-8.41525	7.37969
19.00756	-8.41525	7.37969
19.01188	-8.41525	7.37969
19.01609	-8.39328	7.37969
19.02029	-8.39328	7.37969
19.02448	-8.39328	7.37969
19.02866	-8.39328	7.37969
19.03285	-8.37131	7.37969
19.03704	-8.39328	7.37969
19.04136	-8.37131	7.37969
19.04557	-8.37131	7.37969
19.04986	-8.37131	7.37969
19.05405	-8.37131	7.37969
19.05824	-8.37131	7.37969
19.06243	-8.37131	7.37969
19.06661	-8.37131	7.37969
19.07095	-8.37131	7.37969
19.07521	-8.37131	7.37969
19.07941	-8.34933	7.37969
19.08360	-8.34933	7.37969
19.08778	-8.37131	7.37969
19.09197	-8.37131	7.37969
19.09615	-8.37131	7.37969
19.10040	-8.37131	7.37969
19.10468	-8.37131	7.37969
19.10887	-8.37131	7.37969
19.11306	-8.37131	7.37969
19.11725	-8.37131	7.37969
19.12143	-8.37131	7.37969
19.12562	-8.37131	7.37969
19.12981	-8.37131	7.37969
19.13410	-8.37131	7.37969
19.13830	-8.37131	7.37969
19.14249	-8.37131	7.37969
19.14667	-8.39328	7.37969
19.15096	-8.39328	7.37969
19.15515	-8.39328	7.37969
19.15933	-8.39328	7.37969
19.16365	-8.39328	7.37969
19.16785	-8.39328	7.37969
19.17204	-8.41525	7.37969
19.17625	-8.41525	7.37969
19.18044	-8.41525	7.37969
19.18463	-8.43722	7.37969
19.18883	-8.43722	7.37969
19.19318	-8.43722	7.37969
19.19743	-8.45920	7.37969
19.20162	-8.45920	7.37969
19.20581	-8.45920	7.37969
19.21000	-8.48117	7.37969
19.21419	-8.48117	7.37969
19.21837	-8.48117	7.37969
19.22263	-8.48117	7.37969
19.22691	-8.50314	7.37969
19.23111	-8.52511	7.37969
19.23530	-8.52511	7.37969
19.23948	-8.52511	7.37969
19.24368	-8.54709	7.37969
19.24786	-8.56906	7.37969
19.25215	-8.56906	7.37969
19.25644	-8.59103	7.37969
19.26064	-8.59103	7.37969
19.26482	-8.59103	7.37969
19.26901	-8.61300	7.37969
19.27320	-8.61300	7.37969
19.27740	-8.63498	7.37969
19.28160	-8.65695	7.37969
19.28591	-8.65695	7.37969
19.29012	-8.67892	7.37969
19.29430	-8.67892	7.37969
19.29850	-8.70089	7.37969
19.30269	-8.70089	7.37969
19.30687	-8.74484	7.37969
19.31106	-8.74484	7.37969
19.31539	-8.76681	7.37969
19.31966	-8.76681	7.37969
19.32385	-8.76681	7.37969
19.32804	-8.78879	7.37969
19.33223	-8.81076	7.37969
19.33641	-8.83273	7.37969
19.34060	-8.85470	7.37969
19.34485	-8.85470	7.37969
19.34912	-8.87668	7.37969
19.35343	-8.89865	7.37969
19.35761	-8.89865	7.37969
19.36180	-8.92062	7.37969
19.36598	-8.94259	7.37969
19.37017	-8.96457	7.37969
19.37435	-8.96457	7.37969
19.37867	-8.98654	7.37969
19.38292	-9.00851	7.37969
19.38712	-9.03048	7.37969
19.39131	-9.05246	7.37969
19.39549	-9.05246	7.37969
19.39970	-9.09640	7.37969
19.40389	-9.09640	7.37969
19.40820	-9.11838	7.37969
19.41241	-9.14035	7.37969
19.41660	-9.16232	7.37969
19.42079	-9.18429	7.37969
19.42497	-9.18429	7.37969
19.42916	-9.20627	7.37969
19.43334	-9.22824	7.37969
19.43771	-9.25021	7.37969
19.44197	-9.27218	7.37969
19.44616	-9.29416	7.37969
19.45035	-9.31613	7.37969
19.45465	-9.31613	7.37969
19.45883	-9.33810	7.37969
19.46303	-9.36007	7.37969
19.46733	-9.40402	7.37969
19.47161	-9.42599	7.37969
19.47583	-9.44797	7.37969
19.48003	-9.44797	7.37969
19.48422	-9.46994	7.37969
19.48842	-9.49191	7.37969
19.49261	-9.53586	7.37969
19.49680	-9.55783	7.37969
19.50110	-9.57980	7.37969
19.50530	-9.57980	7.37969
19.50949	-9.60177	7.37969
19.51367	-9.64572	7.37969
19.51786	-9.66769	7.37969
19.52205	-9.68966	7.37969
19.52623	-9.73361	7.37969
19.53053	-9.73361	7.37969
19.53473	-9.73361	7.37969
19.53892	-9.77756	7.37969
19.54311	-9.79953	7.37969
19.54730	-9.82150	7.37969
19.55148	-9.86545	7.37969
19.55579	-9.86545	7.37969
19.56014	-9.88742	7.37969
19.56439	-9.90939	7.37969
19.56858	-9.93136	7.37969
19.57277	-9.97531	7.37969
19.57698	-9.99728	7.37969
19.58117	-10.01925	7.37969
19.58537	-10.01925	7.37969
19.58963	-10.06320	7.37969
19.59390	-10.08517	7.37969
19.59810	-10.12912	7.37969
19.60229	-10.15109	7.37969
19.60648	-10.17306	7.37969
19.61067	-10.19504	7.37969
19.61485	-10.19504	7.37969
19.61904	-10.23898	7.37969
19.62333	-10.26095	7.37969
19.62753	-10.30490	7.37969
19.63173	-10.32687	7.37969
19.63593	-10.32687	7.37969
19.64012	-10.34884	7.37969
19.64431	-10.37082	7.37969
19.64850	-10.41476	7.37969
19.65280	-10.43673	7.37969
19.65711	-10.48068	7.37969
19.66130	-10.50265	7.37969
19.66548	-10.50265	7.37969
19.66967	-10.52463	7.37969
19.67386	-10.54660	7.37969
19.67806	-10.59054	7.37969
19.68241	-10.61252	7.37969
19.68667	-10.63449	7.37969
19.69087	-10.63449	7.37969
19.69506	-10.67843	7.37969
19.69924	-10.70041	7.37969
19.70344	-10.72238	7.37969
19.70763	-10.76632	7.37969
19.71183	-10.78830	7.37969
19.71610	-10.83224	7.37969
19.72030	-10.83224	7.37969
19.72449	-10.85422	7.37969
19.72868	-10.87619	7.37969
19.73286	-10.92013	7.37969
19.73704	-10.94211	7.37969
19.74123	-10.94211	7.37969
19.74552	-10.98605	7.37969
19.74972	-11.00802	7.37969
19.75391	-11.03000	7.37969
19.75820	-11.05197	7.37969
19.76239	-11.09591	7.37969
19.76657	-11.09591	7.37969
19.77076	-11.11789	7.37969
19.77506	-11.13986	7.37969
19.77929	-11.18381	7.37969
19.78348	-11.20578	7.37969
19.78768	-11.22775	7.37969
19.79187	-11.24972	7.37969
19.79606	-11.24972	7.37969
19.80025	-11.29367	7.37969
19.80462	-11.31564	7.37969
19.80887	-11.33761	7.37969
19.81306	-11.35959	7.37969
19.81725	-11.40353	7.37969
19.82144	-11.42550	7.37969
19.82562	-11.42550	7.37969
19.82981	-11.44748	7.37969
19.83405	-11.49142	7.37969
19.83832	-11.51339	7.37969
19.84251	-11.53537	7.37969
19.84670	-11.53537	7.37969
19.85089	-11.55734	7.37969
19.85507	-11.60129	7.37969
19.85936	-11.62326	7.37969
19.86355	-11.64523	7.37969
19.86785	-11.66720	7.37969
19.87206	-11.71115	7.37969
19.87624	-11.71115	7.37969
19.88044	-11.73312	7.37969
19.88464	-11.75509	7.37969
19.88883	-11.77707	7.37969
19.89301	-11.79904	7.37969
19.89733	-11.84298	7.37969
19.90153	-11.84298	7.37969
19.90573	-11.86496	7.37969
19.90992	-11.86496	7.37969
19.91410	-11.90890	7.37969
19.91829	-11.93088	7.37969
19.92247	-11.95285	7.37969
19.92680	-11.97482	7.37969
19.93104	-11.97482	7.37969
19.93523	-12.01877	7.37969
19.93942	-12.04074	7.37969
19.94361	-12.04074	7.37969
19.94777	-12.08468	7.37969
19.95196	-12.10666	7.37969
19.95621	-12.10666	7.37969
19.96058	-12.12863	7.37969
19.96478	-12.15060	7.37969
19.96897	-12.17257	7.37969
19.97315	-12.19455	7.37969
19.97736	-12.21652	7.37969
19.98156	-12.21652	7.37969
19.98574	-12.23849	7.37969
19.99005	-12.26047	7.37969
19.99425	-12.28244	7.37969
19.99844	-12.30441	7.37969
20.00263	-12.32638	7.37969
20.00683	-12.32638	7.37969
20.01101	-12.34836	7.37969
20.01520	-12.37033	7.37969
20.01950	-12.39230	7.37969
20.02372	-12.41427	7.37969
20.02791	-12.41427	7.37969
20.03210	-12.43625	7.37969
20.03629	-12.45822	7.37969
20.04047	-12.45822	7.37969
20.04466	-12.48019	7.37969
20.04899	-12.50216	7.37969
20.05325	-12.50216	7.37969
20.05744	-12.50216	7.37969
20.06174	-12.52414	7.37969
20.06592	-12.54611	7.37969
20.07011	-12.56808	7.37969
20.07429	-12.56808	7.37969
20.07856	-12.56808	7.37969
20.08284	-12.61203	7.37969
20.08705	-12.61203	7.37969
20.09124	-12.61203	7.37969
20.09543	-12.63400	7.37969
20.09962	-12.63400	7.37969
20.10377	-12.65597	7.37969
20.10796	-12.65597	7.37969
20.11225	-12.67795	7.37969
20.11645	-12.67795	7.37969
20.12064	-12.69992	7.37969
20.12483	-12.69992	7.37969
20.12901	-12.72189	7.37969
20.13320	-12.72189	7.37969
20.13738	-12.72189	7.37969
20.14168	-12.74386	7.37969
20.14589	-12.74386	7.37969
20.15008	-12.76584	7.37969
20.15426	-12.78781	7.37969
20.15845	-12.78781	7.37969
20.16274	-12.78781	7.37969
20.16692	-12.78781	7.37969
20.17125	-12.80978	7.37969
20.17550	-12.80978	7.37969
20.17972	-12.80978	7.37969
20.18391	-12.83175	7.37969
20.18810	-12.83175	7.37969
20.19230	-12.83175	7.37969
20.19649	-12.83175	7.37969
20.20075	-12.85373	7.37969
20.20502	-12.85373	7.37969
20.20922	-12.85373	7.37969
20.21345	-12.85373	7.37969
20.21765	-12.87570	7.37969
20.22186	-12.87570	7.37969
20.22605	-12.87570	7.37969
20.23024	-12.87570	7.37969
20.23454	-12.87570	7.37969
20.23875	-12.89767	7.37969
20.24294	-12.89767	7.37969
20.24713	-12.89767	7.37969
20.25131	-12.89767	7.37969
20.25550	-12.89767	7.37969
20.25969	-12.89767	7.37969
20.26412	-12.89767	7.37969
20.26833	-12.89767	7.37969
20.27252	-12.89767	7.37969
20.27670	-12.91964	7.37969
20.28090	-12.91964	7.37969
20.28509	-12.89767	7.37969
20.28927	-12.89767	7.37969
20.29362	-12.91964	7.37969
20.29787	-12.91964	7.37969
20.30206	-12.91964	7.37969
20.30626	-12.91964	7.37969
20.31045	-12.91964	7.37969
20.31464	-12.91964	7.37969
20.31882	-12.91964	7.37969
20.32307	-12.91964	7.37969
20.32734	-12.91964	7.37969
20.33154	-12.91964	7.37969
20.33573	-12.91964	7.37969
20.33992	-12.91964	7.37969
20.34411	-12.91964	7.37969
20.34829	-12.91964	7.37969
20.35248	-12.91964	7.37969
20.35677	-12.89767	7.37969
20.36097	-12.89767	7.37969
20.36526	-12.89767	7.37969
20.36944	-12.89767	7.37969
20.37363	-12.89767	7.37969
20.37784	-12.89767	7.37969
20.38205	-12.89767	7.37969
20.38639	-12.89767	7.37969
20.39060	-12.87570	7.37969
20.39479	-12.87570	7.37969
20.39898	-12.89767	7.37969
20.40317	-12.89767	7.37969
20.40735	-12.87570	7.37969
20.41155	-12.87570	7.37969
20.41589	-12.87570	7.37969
20.42014	-12.85373	7.37969
20.42433	-12.85373	7.37969
20.42852	-12.85373	7.37969
20.43270	-12.85373	7.37969
20.43691	-12.85373	7.37969
20.44110	-12.83175	7.37969
20.44538	-12.83175	7.37969
20.44967	-12.83175	7.37969
20.45387	-12.83175	7.37969
20.45806	-12.83175	7.37969
20.46225	-12.80978	7.37969
20.46654	-12.80978	7.37969
20.47073	-12.80978	7.37969
20.47492	-12.78781	7.37969
20.47924	-12.78781	7.37969
20.48346	-12.78781	7.37969
20.48767	-12.78781	7.37969
20.49186	-12.76584	7.37969
20.49604	-12.76584	7.37969
20.50023	-12.74386	7.37969
20.50442	-12.74386	7.37969
20.50873	-12.74386	7.37969
20.51294	-12.74386	7.37969
20.51713	-12.72189	7.37969
20.52132	-12.72189	7.37969
20.52551	-12.69992	7.37969
20.52969	-12.69992	7.37969
20.53388	-12.69992	7.37969
20.53821	-12.69992	7.37969
20.54245	-12.67795	7.37969
20.54665	-12.67795	7.37969
20.55083	-12.67795	7.37969
20.55502	-12.65597	7.37969
20.55921	-12.65597	7.37969
20.56339	-12.63400	7.37969
20.56776	-12.63400	7.37969
20.57203	-12.63400	7.37969
20.57622	-12.61203	7.37969
20.58043	-12.59006	7.37969
20.58462	-12.59006	7.37969
20.58881	-12.59006	7.37969
20.59299	-12.59006	7.37969
20.59718	-12.56808	7.37969
20.60148	-12.54611	7.37969
20.60568	-12.54611	7.37969
20.60987	-12.54611	7.37969
20.61407	-12.54611	7.37969
20.61825	-12.52414	7.37969
20.62244	-12.50216	7.37969
20.62662	-12.50216	7.37969
20.63092	-12.48019	7.37969
20.63513	-12.48019	7.37969
20.63932	-12.48019	7.37969
20.64351	-12.48019	7.37969
20.64770	-12.45822	7.37969
20.65189	-12.45822	7.37969
20.65607	-12.43625	7.37969
20.66040	-12.41427	7.37969
20.66465	-12.41427	7.37969
20.66895	-12.41427	7.37969
20.67313	-12.39230	7.37969
20.67732	-12.39230	7.37969
20.68180	-12.37033	7.37969
20.68599	-12.37033	7.37969
20.69025	-12.37033	7.37969
20.69452	-12.37033	7.37969
20.69872	-12.34836	7.37969
20.70291	-12.32638	7.37969
20.70710	-12.32638	7.37969
20.71129	-12.30441	7.37969
20.71549	-12.30441	7.37969
20.71968	-12.28244	7.37969
20.72398	-12.28244	7.37969
20.72818	-12.26047	7.37969
20.73237	-12.26047	7.37969
20.73656	-12.26047	7.37969
20.74075	-12.23849	7.37969
20.74493	-12.23849	7.37969
20.74912	-12.21652	7.37969
20.75342	-12.19455	7.37969
20.75762	-12.19455	7.37969
20.76181	-12.17257	7.37969
20.76606	-12.17257	7.37969
20.77041	-12.17257	7.37969
20.77460	-12.15060	7.37969
20.77881	-12.12863	7.37969
20.78315	-12.12863	7.37969
20.78742	-12.10666	7.37969
20.79162	-12.08468	7.37969
20.79578	-12.08468	7.37969
20.79997	-12.08468	7.37969
20.80416	-12.06271	7.37969
20.80835	-12.06271	7.37969
20.81261	-12.04074	7.37969
20.81688	-12.01877	7.37969
20.82108	-11.99679	7.37969
20.82527	-11.99679	7.37969
20.82946	-11.99679	7.37969
20.83364	-11.97482	7.37969
20.83783	-11.97482	7.37969
20.84201	-11.95285	7.37969
20.84631	-11.95285	7.37969
20.85051	-11.93088	7.37969
20.85470	-11.93088	7.37969
20.85888	-11.90890	7.37969
20.86307	-11.90890	7.37969
20.86726	-11.88693	7.37969
20.87155	-11.86496	7.37969
20.87587	-11.86496	7.37969
20.88009	-11.86496	7.37969
20.88428	-11.84298	7.37969
20.88847	-11.82101	7.37969
20.89266	-11.82101	7.37969
20.89685	-11.79904	7.37969
20.90103	-11.77707	7.37969
20.90536	-11.77707	7.37969
20.90960	-11.77707	7.37969
20.91379	-11.75509	7.37969
20.91798	-11.73312	7.37969
20.92217	-11.73312	7.37969
20.92635	-11.73312	7.37969
20.93054	-11.68918	7.37969
20.93478	-11.68918	7.37969
20.93904	-11.68918	7.37969
20.94324	-11.66720	7.37969
20.94743	-11.64523	7.37969
20.95162	-11.62326	7.37969
20.95577	-11.62326	7.37969
20.95996	-11.62326	7.37969
20.96414	-11.60129	7.37969
20.96843	-11.57931	7.37969
20.97273	-11.57931	7.37969
20.97694	-11.55734	7.37969
20.98114	-11.53537	7.37969
20.98533	-11.53537	7.37969
20.98952	-11.51339	7.37969
20.99371	-11.51339	7.37969
20.99803	-11.49142	7.37969
21.00224	-11.46945	7.37969
21.00643	-11.46945	7.37969
21.01062	-11.46945	7.37969
21.01480	-11.44748	7.37969
21.01900	-11.42550	7.37969
21.02319	-11.40353	7.37969
21.02751	-11.40353	7.37969
21.03177	-11.38156	7.37969
21.03596	-11.38156	7.37969
21.04015	-11.35959	7.37969
21.04434	-11.35959	7.37969
21.04852	-11.33761	7.37969
21.05271	-11.31564	7.37969
21.05695	-11.31564	7.37969
21.06121	-11.29367	7.37969
21.06541	-11.29367	7.37969
21.06960	-11.29367	7.37969
21.07389	-11.27170	7.37969
21.07807	-11.24972	7.37969
21.08227	-11.22775	7.37969
21.08647	-11.22775	7.37969
21.09077	-11.20578	7.37969
21.09497	-11.20578	7.37969
21.09919	-11.18381	7.37969
21.10338	-11.16183	7.37969
21.10756	-11.16183	7.37969
21.11176	-11.13986	7.37969
21.11594	-11.13986	7.37969
21.12029	-11.13986	7.37969
21.12449	-11.11789	7.37969
21.12868	-11.09591	7.37969
21.13287	-11.07394	7.37969
21.13706	-11.07394	7.37969
21.14124	-11.07394	7.37969
21.14543	-11.05197	7.37969
21.14975	-11.05197	7.37969
21.15400	-11.03000	7.37969
21.15819	-11.00802	7.37969
21.16238	-11.00802	7.37969
21.16656	-11.00802	7.37969
21.17075	-10.98605	7.37969
21.17504	-10.98605	7.37969
21.17930	-10.96408	7.37969
21.18359	-10.94211	7.37969
21.18780	-10.94211	7.37969
21.19199	-10.92013	7.37969
21.19617	-10.92013	7.37969
21.20036	-10.89816	7.37969
21.20455	-10.92013	7.37969
21.20873	-10.87619	7.37969
21.21303	-10.87619	7.37969
21.21723	-10.85422	7.37969
21.22142	-10.85422	7.37969
21.22561	-10.85422	7.37969
21.22979	-10.85422	7.37969
21.23398	-10.81027	7.37969
21.23817	-10.81027	7.37969
21.24252	-10.78830	7.37969
21.24673	-10.78830	7.37969
21.25091	-10.78830	7.37969
21.25510	-10.76632	7.37969
21.25929	-10.76632	7.37969
21.26348	-10.74435	7.37969
21.26767	-10.74435	7.37969
21.27202	-10.74435	7.37969
21.27637	-10.72238	7.37969
21.28058	-10.72238	7.37969
21.28478	-10.70041	7.37969
21.28897	-10.70041	7.37969
21.29316	-10.67843	7.37969
21.29734	-10.67843	7.37969
21.30159	-10.65646	7.37969
21.30586	-10.65646	7.37969
21.31006	-10.63449	7.37969
21.31425	-10.63449	7.37969
21.31843	-10.61252	7.37969
21.32263	-10.61252	7.37969
21.32682	-10.61252	7.37969
21.33100	-10.59054	7.37969
21.33529	-10.59054	7.37969
21.33950	-10.56857	7.37969
21.34369	-10.56857	7.37969
21.34788	-10.56857	7.37969
21.35207	-10.54660	7.37969
21.35625	-10.54660	7.37969
21.36044	-10.52463	7.37969
21.36473	-10.52463	7.37969
21.36894	-10.50265	7.37969
21.37313	-10.50265	7.37969
21.37742	-10.50265	7.37969
21.38177	-10.48068	7.37969
21.38596	-10.45871	7.37969
21.39014	-10.45871	7.37969
21.39447	-10.45871	7.37969
21.39872	-10.43673	7.37969
21.40292	-10.41476	7.37969
21.40710	-10.41476	7.37969
21.41129	-10.41476	7.37969
21.41548	-10.41476	7.37969
21.41967	-10.39279	7.37969
21.42392	-10.39279	7.37969
21.42820	-10.37082	7.37969
21.43240	-10.37082	7.37969
21.43663	-10.34884	7.37969
21.44083	-10.34884	7.37969
21.44502	-10.34884	7.37969
21.44920	-10.34884	7.37969
21.45339	-10.32687	7.37969
21.45768	-10.32687	7.37969
21.46188	-10.32687	7.37969
21.46607	-10.32687	7.37969
21.47026	-10.30490	7.37969
21.47445	-10.30490	7.37969
21.47878	-10.28293	7.37969
21.48299	-10.28293	7.37969
21.48732	-10.28293	7.37969
21.49153	-10.26095	7.37969
21.49574	-10.26095	7.37969
21.49993	-10.23898	7.37969
21.50413	-10.23898	7.37969
21.50832	-10.23898	7.37969
21.51250	-10.23898	7.37969
21.51685	-10.23898	7.37969
21.52110	-10.21701	7.37969
21.52530	-10.21701	7.37969
21.52948	-10.21701	7.37969
21.53367	-10.21701	7.37969
21.53785	-10.21701	7.37969
21.54204	-10.19504	7.37969
21.54632	-10.17306	7.37969
21.55061	-10.17306	7.37969
21.55484	-10.17306	7.37969
21.55903	-10.17306	7.37969
21.56322	-10.17306	7.37969
21.56741	-10.15109	7.37969
21.57160	-10.15109	7.37969
21.57578	-10.15109	7.37969
21.58021	-10.15109	7.37969
21.58442	-10.12912	7.37969
21.58861	-10.12912	7.37969
21.59280	-10.12912	7.37969
21.59699	-10.12912	7.37969
21.60117	-10.12912	7.37969
21.60536	-10.12912	7.37969
21.60969	-10.10714	7.37969
21.61389	-10.10714	7.37969
21.61808	-10.10714	7.37969
21.62227	-10.08517	7.37969
21.62646	-10.08517	7.37969
21.63064	-10.08517	7.37969
21.63483	-10.08517	7.37969
21.63916	-10.08517	7.37969
21.64341	-10.08517	7.37969
21.64760	-10.06320	7.37969
21.65178	-10.06320	7.37969
21.65597	-10.06320	7.37969
21.66016	-10.06320	7.37969
21.66435	-10.06320	7.37969
21.66859	-10.06320	7.37969
21.67286	-10.06320	7.37969
21.67705	-10.06320	7.37969
21.68136	-10.04123	7.37969
21.68555	-10.04123	7.37969
21.68974	-10.04123	7.37969
21.69393	-10.04123	7.37969
21.69811	-10.04123	7.37969
21.70241	-10.06320	7.37969
21.70661	-10.01925	7.37969
21.71080	-10.04123	7.37969
21.71498	-10.04123	7.37969
21.71917	-10.01925	7.37969
21.72336	-10.01925	7.37969
21.72754	-10.04123	7.37969
21.73185	-10.01925	7.37969
21.73606	-10.01925	7.37969
21.74025	-10.01925	7.37969
21.74444	-10.01925	7.37969
21.74862	-10.01925	7.37969
21.75281	-10.01925	7.37969
21.75699	-10.01925	7.37969
21.76132	-10.01925	7.37969
21.76556	-10.01925	7.37969
21.76976	-10.01925	7.37969
21.77394	-10.01925	7.37969
21.77813	-10.01925	7.37969
21.78245	-10.01925	7.37969
21.78664	-10.04123	7.37969
21.79089	-10.01925	7.37969
21.79516	-10.04123	7.37969
21.79937	-10.04123	7.37969
21.80356	-10.04123	7.37969
21.80775	-10.01925	7.37969
21.81194	-10.04123	7.37969
21.81613	-10.04123	7.37969
21.82031	-10.04123	7.37969
21.82461	-10.04123	7.37969
21.82881	-10.04123	7.37969
21.83300	-10.04123	7.37969
21.83719	-10.04123	7.37969
21.84138	-10.06320	7.37969
21.84556	-10.06320	7.37969
21.84975	-10.06320	7.37969
21.85405	-10.06320	7.37969
21.85825	-10.06320	7.37969
21.86244	-10.06320	7.37969
21.86663	-10.08517	7.37969
21.87082	-10.08517	7.37969
21.87500	-10.08517	7.37969
21.87919	-10.08517	7.37969
21.88369	-10.08517	7.37969
21.88792	-10.10714	7.37969
21.89211	-10.10714	7.37969
21.89630	-10.10714	7.37969
21.90049	-10.12912	7.37969
21.90468	-10.12912	7.37969
21.90886	-10.12912	7.37969
21.91311	-10.12912	7.37969
21.91738	-10.15109	7.37969
21.92158	-10.15109	7.37969
21.92578	-10.15109	7.37969
21.92997	-10.17306	7.37969
21.93415	-10.17306	7.37969
21.93834	-10.17306	7.37969
21.94252	-10.17306	7.37969
21.94681	-10.19504	7.37969
21.95104	-10.19504	7.37969
21.95523	-10.21701	7.37969
21.95942	-10.21701	7.37969
21.96361	-10.21701	7.37969
21.96777	-10.21701	7.37969
21.97200	-10.21701	7.37969
21.97631	-10.23898	7.37969
21.98056	-10.23898	7.37969
21.98486	-10.23898	7.37969
21.98905	-10.26095	7.37969
21.99324	-10.26095	7.37969
21.99743	-10.28293	7.37969
22.00161	-10.28293	7.37969
22.00595	-10.28293	7.37969
22.01020	-10.30490	7.37969
22.01439	-10.30490	7.37969
22.01858	-10.30490	7.37969
22.02277	-10.32687	7.37969
22.02697	-10.32687	7.37969
22.03115	-10.34884	7.37969
22.03539	-10.34884	7.37969
22.03968	-10.34884	7.37969
22.04387	-10.37082	7.37969
22.04806	-10.37082	7.37969
22.05225	-10.39279	7.37969
22.05644	-10.39279	7.37969
22.06062	-10.39279	7.37969
22.06481	-10.39279	7.37969
22.06910	-10.41476	7.37969
22.07330	-10.41476	7.37969
22.07748	-10.43673	7.37969
22.08169	-10.43673	7.37969
22.08601	-10.45871	7.37969
22.09020	-10.45871	7.37969
22.09439	-10.45871	7.37969
22.09870	-10.48068	7.37969
22.10291	-10.48068	7.37969
22.10709	-10.50265	7.37969
22.11128	-10.50265	7.37969
22.11547	-10.50265	7.37969
22.11966	-10.52463	7.37969
22.12385	-10.52463	7.37969
22.12818	-10.54660	7.37969
22.13242	-10.54660	7.37969
22.13662	-10.56857	7.37969
22.14080	-10.56857	7.37969
22.14499	-10.56857	7.37969
22.14918	-10.59054	7.37969
22.15336	-10.59054	7.37969
22.15760	-10.59054	7.37969
22.16187	-10.61252	7.37969
22.16606	-10.61252	7.37969
22.17025	-10.61252	7.37969
22.17444	-10.63449	7.37969
22.17862	-10.65646	7.37969
22.18283	-10.65646	7.37969
22.18713	-10.65646	7.37969
22.19143	-10.67843	7.37969
22.19565	-10.67843	7.37969
22.19984	-10.67843	7.37969
22.20403	-10.70041	7.37969
22.20821	-10.70041	7.37969
22.21240	-10.72238	7.37969
22.21659	-10.72238	7.37969
22.22089	-10.74435	7.37969
22.22510	-10.74435	7.37969
22.22930	-10.74435	7.37969
22.23349	-10.76632	7.37969
22.23768	-10.76632	7.37969
22.24186	-10.76632	7.37969
22.24605	-10.76632	7.37969
22.25038	-10.78830	7.37969
22.25463	-10.78830	7.37969
22.25882	-10.81027	7.37969
22.26301	-10.81027	7.37969
22.26720	-10.83224	7.37969
22.27139	-10.83224	7.37969
22.27557	-10.83224	7.37969
22.27983	-10.83224	7.37969
22.28415	-10.85422	7.37969
22.28848	-10.87619	7.37969
22.29268	-10.87619	7.37969
22.29687	-10.87619	7.37969
22.30106	-10.87619	7.37969
22.30525	-10.89816	7.37969
22.30944	-10.89816	7.37969
22.31372	-10.92013	7.37969
22.31792	-10.92013	7.37969
22.32211	-10.92013	7.37969
22.32630	-10.92013	7.37969
22.33049	-10.94211	7.37969
22.33468	-10.96408	7.37969
22.33886	-10.96408	7.37969
22.34316	-10.96408	7.37969
22.34737	-10.98605	7.37969
22.35155	-10.98605	7.37969
22.35575	-10.98605	7.37969
22.35993	-10.98605	7.37969
22.36412	-11.00802	7.37969
22.36830	-11.00802	7.37969
22.37263	-11.00802	7.37969
22.37687	-11.00802	7.37969
22.38109	-11.03000	7.37969
22.38530	-11.03000	7.37969
22.38962	-11.03000	7.37969
22.39381	-11.05197	7.37969
22.39800	-11.05197	7.37969
22.40226	-11.05197	7.37969
22.40655	-11.05197	7.37969
22.41075	-11.05197	7.37969
22.41495	-11.07394	7.37969
22.41914	-11.07394	7.37969
22.42333	-11.07394	7.37969
22.42752	-11.09591	7.37969
22.43173	-11.09591	7.37969
22.43603	-11.09591	7.37969
22.44026	-11.09591	7.37969
22.44446	-11.11789	7.37969
22.44866	-11.11789	7.37969
22.45286	-11.11789	7.37969
22.45706	-11.11789	7.37969
22.46125	-11.11789	7.37969
22.46556	-11.13986	7.37969
22.46980	-11.13986	7.37969
22.47399	-11.13986	7.37969
22.47824	-11.16183	7.37969
22.48244	-11.13986	7.37969
22.48664	-11.13986	7.37969
22.49093	-11.16183	7.37969
22.49528	-11.13986	7.37969
22.49954	-11.16183	7.37969
22.50375	-11.16183	7.37969
22.50794	-11.18381	7.37969
22.51213	-11.18381	7.37969
22.51632	-11.18381	7.37969
22.52050	-11.16183	7.37969
22.52598	-11.18381	7.37969
22.53028	-11.18381	7.37969
22.53450	-11.18381	7.37969
22.53871	-11.18381	7.37969
22.54293	-11.18381	7.37969
22.54713	-11.18381	7.37969
22.55134	-11.18381	7.37969
22.55593	-11.18381	7.37969
22.56024	-11.20578	7.37969
22.56445	-11.20578	7.37969
22.56865	-11.20578	7.37969
22.57285	-11.20578	7.37969
22.57704	-11.20578	7.37969
22.58123	-11.20578	7.37969
22.58542	-11.22775	7.37969
22.58973	-11.20578	7.37969
22.59405	-11.20578	7.37969
22.59824	-11.20578	7.37969
22.60243	-11.20578	7.37969
22.60662	-11.20578	7.37969
22.61080	-11.20578	7.37969
22.61499	-11.20578	7.37969
22.61932	-11.20578	7.37969
22.62353	-11.20578	7.37969
22.62773	-11.20578	7.37969
22.63192	-11.20578	7.37969
22.63611	-11.20578	7.37969
22.64030	-11.20578	7.37969
22.64449	-11.20578	7.37969
22.64882	-11.20578	7.37969
22.65307	-11.20578	7.37969
22.65726	-11.20578	7.37969
22.66145	-11.20578	7.37969
22.66564	-11.20578	7.37969
22.66982	-11.20578	7.37969
22.67401	-11.20578	7.37969
22.67824	-11.20578	7.37969
22.68252	-11.20578	7.37969
22.68672	-11.20578	7.37969
22.69091	-11.18381	7.37969
22.69521	-11.20578	7.37969
22.69939	-11.18381	7.37969
22.70358	-11.18381	7.37969
22.70777	-11.18381	7.37969
22.71207	-11.18381	7.37969
22.71627	-11.18381	7.37969
22.72046	-11.18381	7.37969
22.72465	-11.18381	7.37969
22.72883	-11.16183	7.37969
22.73302	-11.18381	7.37969
22.73721	-11.18381	7.37969
22.74153	-11.18381	7.37969
22.74574	-11.18381	7.37969
22.74992	-11.16183	7.37969
22.75411	-11.16183	7.37969
22.75830	-11.16183	7.37969
22.76249	-11.16183	7.37969
22.76667	-11.16183	7.37969
22.77100	-11.16183	7.37969
22.77525	-11.13986	7.37969
22.77944	-11.16183	7.37969
22.78363	-11.13986	7.37969
22.78778	-11.13986	7.37969
22.79196	-11.16183	7.37969
22.79626	-11.13986	7.37969
22.80051	-11.13986	7.37969
22.80478	-11.11789	7.37969
22.80897	-11.11789	7.37969
22.81316	-11.11789	7.37969
22.81735	-11.11789	7.37969
22.82154	-11.11789	7.37969
22.82572	-11.11789	7.37969
22.82991	-11.11789	7.37969
22.83420	-11.09591	7.37969
22.83840	-11.09591	7.37969
22.84259	-11.09591	7.37969
22.84678	-11.09591	7.37969
22.85097	-11.09591	7.37969
22.85515	-11.09591	7.37969
22.85933	-11.09591	7.37969
22.86369	-11.09591	7.37969
22.86790	-11.07394	7.37969
22.87210	-11.07394	7.37969
22.87628	-11.07394	7.37969
22.88047	-11.07394	7.37969
22.88465	-11.07394	7.37969
22.88884	-11.07394	7.37969
22.89318	-11.05197	7.37969
22.89754	-11.05197	7.37969
22.90174	-11.05197	7.37969
22.90593	-11.05197	7.37969
22.91011	-11.05197	7.37969
22.91430	-11.03000	7.37969
22.91848	-11.03000	7.37969
22.92273	-11.03000	7.37969
22.92701	-11.03000	7.37969
22.93121	-11.03000	7.37969
22.93540	-11.03000	7.37969
22.93959	-11.03000	7.37969
22.94377	-11.03000	7.37969
22.94796	-11.03000	7.37969
22.95215	-11.03000	7.37969
22.95644	-11.00802	7.37969
22.96064	-11.00802	7.37969
22.96482	-11.00802	7.37969
22.96901	-11.00802	7.37969
22.97320	-11.00802	7.37969
22.97739	-11.00802	7.37969
22.98157	-11.00802	7.37969
22.98589	-11.00802	7.37969
22.99009	-11.00802	7.37969
22.99428	-11.00802	7.37969
22.99857	-11.00802	7.37969
23.00275	-10.98605	7.37969
23.00694	-11.00802	7.37969
23.01113	-10.98605	7.37969
23.01546	-10.98605	7.37969
23.01972	-10.98605	7.37969
23.02392	-10.98605	7.37969
23.02811	-10.98605	7.37969
23.03229	-10.98605	7.37969
23.03648	-10.98605	7.37969
23.04067	-10.98605	7.37969
23.04491	-10.98605	7.37969
23.04918	-10.96408	7.37969
23.05339	-10.96408	7.37969
23.05757	-10.96408	7.37969
23.06176	-10.96408	7.37969
23.06594	-10.96408	7.37969
23.07013	-10.96408	7.37969
23.07432	-10.96408	7.37969
23.07861	-10.96408	7.37969
23.08282	-10.98605	7.37969
23.08701	-10.96408	7.37969
23.09120	-10.96408	7.37969
23.09538	-10.96408	7.37969
23.09968	-10.96408	7.37969
23.10387	-10.96408	7.37969
23.10821	-10.96408	7.37969
23.11242	-10.96408	7.37969
23.11660	-10.96408	7.37969
23.12079	-10.96408	7.37969
23.12498	-10.96408	7.37969
23.12917	-10.96408	7.37969
23.13335	-10.98605	7.37969
23.13771	-10.96408	7.37969
23.14196	-10.98605	7.37969
23.14615	-10.96408	7.37969
23.15034	-10.96408	7.37969
23.15453	-10.96408	7.37969
23.15871	-10.96408	7.37969
23.16290	-10.96408	7.37969
23.16714	-10.98605	7.37969
23.17142	-10.96408	7.37969
23.17562	-10.98605	7.37969
23.17978	-10.98605	7.37969
23.18397	-10.98605	7.37969
23.18816	-10.98605	7.37969
23.19234	-10.98605	7.37969
23.19653	-10.98605	7.37969
23.20093	-10.98605	7.37969
23.20513	-10.98605	7.37969
23.20931	-10.98605	7.37969
23.21350	-10.98605	7.37969
23.21768	-10.98605	7.37969
23.22187	-10.98605	7.37969
23.22608	-10.98605	7.37969
23.23041	-10.98605	7.37969
23.23463	-10.98605	7.37969
23.23884	-10.98605	7.37969
23.24303	-11.00802	7.37969
23.24722	-10.98605	7.37969
23.25141	-10.98605	7.37969
23.25561	-11.00802	7.37969
23.25993	-11.00802	7.37969
23.26419	-11.00802	7.37969
23.26840	-11.00802	7.37969
23.27259	-11.00802	7.37969
23.27679	-11.00802	7.37969
23.28098	-11.00802	7.37969
23.28517	-11.00802	7.37969
23.28942	-11.00802	7.37969
23.29370	-11.00802	7.37969
23.29790	-11.03000	7.37969
23.30219	-11.00802	7.37969
23.30638	-11.03000	7.37969
23.31057	-11.03000	7.37969
23.31475	-11.03000	7.37969
23.31894	-11.03000	7.37969
23.32323	-11.03000	7.37969
23.32744	-11.03000	7.37969
23.33163	-11.03000	7.37969
23.33578	-11.03000	7.37969
23.33997	-11.05197	7.37969
23.34416	-11.05197	7.37969
23.34834	-11.05197	7.37969
23.35264	-11.05197	7.37969
23.35685	-11.05197	7.37969
23.36103	-11.05197	7.37969
23.36522	-11.05197	7.37969
23.36941	-11.07394	7.37969
23.37359	-11.05197	7.37969
23.37778	-11.07394	7.37969
23.38216	-11.07394	7.37969
23.38641	-11.07394	7.37969
23.39060	-11.07394	7.37969
23.39479	-11.07394	7.37969
23.39898	-11.07394	7.37969
23.40327	-11.07394	7.37969
23.40745	-11.07394	7.37969
23.41171	-11.07394	7.37969
23.41598	-11.07394	7.37969
23.42019	-11.07394	7.37969
23.42438	-11.09591	7.37969
23.42856	-11.07394	7.37969
23.43275	-11.09591	7.37969
23.43694	-11.09591	7.37969
23.44113	-11.09591	7.37969
23.44543	-11.09591	7.37969
23.44964	-11.09591	7.37969
23.45383	-11.09591	7.37969
23.45802	-11.09591	7.37969
23.46220	-11.09591	7.37969
23.46639	-11.09591	7.37969
23.47060	-11.09591	7.37969
23.47496	-11.09591	7.37969
23.47917	-11.09591	7.37969
23.48336	-11.09591	7.37969
23.48755	-11.09591	7.37969
23.49175	-11.09591	7.37969
23.49594	-11.09591	7.37969
23.50012	-11.09591	7.37969
23.50458	-11.09591	7.37969
23.50882	-11.09591	7.37969
23.51301	-11.09591	7.37969
23.51720	-11.09591	7.37969
23.52139	-11.09591	7.37969
23.52558	-11.09591	7.37969
23.52976	-11.09591	7.37969
23.53401	-11.11789	7.37969
23.53828	-11.09591	7.37969
23.54249	-11.09591	7.37969
23.54667	-11.09591	7.37969
23.55086	-11.09591	7.37969
23.55505	-11.09591	7.37969
23.55924	-11.11789	7.37969
23.56342	-11.09591	7.37969
23.56773	-11.11789	7.37969
23.57193	-11.11789	7.37969
23.57612	-11.11789	7.37969
23.58030	-11.09591	7.37969
23.58449	-11.09591	7.37969
23.58867	-11.09591	7.37969
23.59286	-11.09591	7.37969
23.59716	-11.09591	7.37969
23.60137	-11.09591	7.37969
23.60566	-11.09591	7.37969
23.60985	-11.09591	7.37969
23.61403	-11.09591	7.37969
23.61822	-11.09591	7.37969
23.62240	-11.09591	7.37969
23.62672	-11.09591	7.37969
23.63097	-11.09591	7.37969
23.63517	-11.09591	7.37969
23.63935	-11.09591	7.37969
23.64355	-11.09591	7.37969
23.64774	-11.09591	7.37969
23.65193	-11.09591	7.37969
23.65617	-11.09591	7.37969
23.66044	-11.07394	7.37969
23.66464	-11.07394	7.37969
23.66883	-11.09591	7.37969
23.67302	-11.07394	7.37969
23.67720	-11.07394	7.37969
23.68138	-11.07394	7.37969
23.68557	-11.07394	7.37969
23.68987	-11.07394	7.37969
23.69407	-11.07394	7.37969
23.69826	-11.05197	7.37969
23.70245	-11.05197	7.37969
23.70674	-11.05197	7.37969
23.71092	-11.05197	7.37969
23.71511	-11.05197	7.37969
23.71941	-11.05197	7.37969
23.72362	-11.05197	7.37969
23.72778	-11.05197	7.37969
23.73196	-11.05197	7.37969
23.73615	-11.05197	7.37969
23.74034	-11.03000	7.37969
23.74452	-11.03000	7.37969
23.74886	-11.03000	7.37969
23.75311	-11.03000	7.37969
23.75730	-11.03000	7.37969
23.76149	-11.03000	7.37969
23.76568	-11.03000	7.37969
23.76986	-11.00802	7.37969
23.77405	-11.00802	7.37969
23.77829	-11.00802	7.37969
23.78256	-11.00802	7.37969
23.78676	-11.00802	7.37969
23.79095	-11.00802	7.37969
23.79513	-11.00802	7.37969
23.79932	-11.00802	7.37969
23.80351	-10.98605	7.37969
23.80781	-10.98605	7.37969
23.81210	-10.98605	7.37969
23.81630	-10.98605	7.37969
23.82049	-10.98605	7.37969
23.82468	-10.98605	7.37969
23.82886	-10.96408	7.37969
23.83305	-10.96408	7.37969
23.83723	-10.96408	7.37969
23.84153	-10.96408	7.37969
23.84574	-10.96408	7.37969
23.84993	-10.94211	7.37969
23.85411	-10.94211	7.37969
23.85830	-10.94211	7.37969
23.86249	-10.94211	7.37969
23.86667	-10.94211	7.37969
23.87099	-10.92013	7.37969
23.87524	-10.92013	7.37969
23.87943	-10.92013	7.37969
23.88362	-10.92013	7.37969
23.88778	-10.92013	7.37969
23.89196	-10.89816	7.37969
23.89615	-10.89816	7.37969
23.90040	-10.89816	7.37969
23.90468	-10.87619	7.37969
23.90898	-10.89816	7.37969
23.91316	-10.89816	7.37969
23.91735	-10.87619	7.37969
23.92153	-10.87619	7.37969
23.92572	-10.87619	7.37969
23.92990	-10.87619	7.37969
23.93419	-10.87619	7.37969
23.93839	-10.87619	7.37969
23.94258	-10.87619	7.37969
23.94677	-10.85422	7.37969
23.95096	-10.85422	7.37969
23.95514	-10.85422	7.37969
23.95932	-10.85422	7.37969
23.96362	-10.85422	7.37969
23.96781	-10.85422	7.37969
23.97199	-10.85422	7.37969
23.97618	-10.83224	7.37969
23.98036	-10.83224	7.37969
23.98455	-10.83224	7.37969
23.98873	-10.83224	7.37969
23.99306	-10.83224	7.37969
23.99732	-10.83224	7.37969
24.00151	-10.83224	7.37969
24.00570	-10.83224	7.37969
24.00999	-10.83224	7.37969
24.01417	-10.83224	7.37969
24.01835	-10.83224	7.37969
24.02260	-10.83224	7.37969
24.02687	-10.81027	7.37969
24.03107	-10.81027	7.37969
24.03525	-10.81027	7.37969
24.03944	-10.81027	7.37969
24.04363	-10.81027	7.37969
24.04778	-10.81027	7.37969
24.05196	-10.81027	7.37969
24.05625	-10.81027	7.37969
24.06046	-10.81027	7.37969
24.06464	-10.81027	7.37969
24.06883	-10.81027	7.37969
24.07302	-10.81027	7.37969
24.07720	-10.81027	7.37969
24.08139	-10.83224	7.37969
24.08571	-10.81027	7.37969
24.08991	-10.83224	7.37969
24.09410	-10.81027	7.37969
24.09829	-10.81027	7.37969
24.10248	-10.83224	7.37969
24.10666	-10.83224	7.37969
24.11095	-10.81027	7.37969
24.11527	-10.83224	7.37969
24.11955	-10.83224	7.37969
24.12376	-10.83224	7.37969
24.12795	-10.83224	7.37969
24.13214	-10.83224	7.37969
24.13633	-10.83224	7.37969
24.14051	-10.83224	7.37969
24.14476	-10.83224	7.37969
24.14903	-10.83224	7.37969
24.15323	-10.83224	7.37969
24.15742	-10.85422	7.37969
24.16161	-10.85422	7.37969
24.16580	-10.85422	7.37969
24.16998	-10.85422	7.37969
24.17416	-10.85422	7.37969
24.17846	-10.85422	7.37969
24.18266	-10.85422	7.37969
24.18688	-10.85422	7.37969
24.19108	-10.87619	7.37969
24.19527	-10.87619	7.37969
24.19946	-10.87619	7.37969
24.20365	-10.87619	7.37969
24.20810	-10.87619	7.37969
24.21242	-10.87619	7.37969
24.21661	-10.89816	7.37969
24.22081	-10.89816	7.37969
24.22502	-10.89816	7.37969
24.22922	-10.89816	7.37969
24.23340	-10.89816	7.37969
24.23856	-10.92013	7.37969
24.24279	-10.92013	7.37969
24.24700	-10.92013	7.37969
24.25121	-10.92013	7.37969
24.25540	-10.92013	7.37969
24.25960	-10.92013	7.37969
24.26378	-10.92013	7.37969
24.26813	-10.92013	7.37969
24.27240	-10.92013	7.37969
24.27659	-10.94211	7.37969
24.28078	-10.94211	7.37969
24.28497	-10.94211	7.37969
24.28916	-10.94211	7.37969
24.29335	-10.94211	7.37969
24.29761	-10.94211	7.37969
24.30188	-10.96408	7.37969
24.30608	-10.96408	7.37969
24.31027	-10.94211	7.37969
24.31457	-10.96408	7.37969
24.31875	-10.96408	7.37969
24.32294	-10.96408	7.37969
24.32713	-10.96408	7.37969
24.33143	-10.96408	7.37969
24.33566	-10.98605	7.37969
24.33985	-10.98605	7.37969
24.34404	-10.98605	7.37969
24.34823	-10.98605	7.37969
24.35242	-10.98605	7.37969
24.35660	-10.96408	7.37969
24.36091	-10.98605	7.37969
24.36512	-10.98605	7.37969
24.36931	-10.98605	7.37969
24.37350	-10.98605	7.37969
24.37768	-10.98605	7.37969
24.38187	-10.98605	7.37969
24.38606	-10.98605	7.37969
24.39039	-10.98605	7.37969
24.39465	-10.98605	7.37969
24.39885	-10.98605	7.37969
24.40304	-10.98605	7.37969
24.40723	-10.98605	7.37969
24.41141	-10.98605	7.37969
24.41572	-10.98605	7.37969
24.41998	-10.98605	7.37969
24.42425	-10.98605	7.37969
24.42845	-10.98605	7.37969
24.43264	-10.98605	7.37969
24.43683	-10.98605	7.37969
24.44102	-10.98605	7.37969
24.44522	-10.98605	7.37969
24.44942	-10.98605	7.37969
24.45373	-10.98605	7.37969
24.45794	-10.98605	7.37969
24.46213	-10.98605	7.37969
24.46631	-10.98605	7.37969
24.47051	-10.98605	7.37969
24.47470	-10.98605	7.37969
24.47888	-10.98605	7.37969
24.48327	-10.98605	7.37969
24.48748	-10.98605	7.37969
24.49169	-10.98605	7.37969
24.49588	-10.98605	7.37969
24.50006	-10.98605	7.37969
24.50425	-10.98605	7.37969
24.50843	-10.96408	7.37969
24.51277	-10.98605	7.37969
24.51713	-10.96408	7.37969
24.52132	-10.96408	7.37969
24.52551	-10.96408	7.37969
24.52970	-10.96408	7.37969
24.53389	-10.96408	7.37969
24.53807	-10.96408	7.37969
24.54231	-10.96408	7.37969
24.54659	-10.96408	7.37969
24.55079	-10.96408	7.37969
24.55498	-10.96408	7.37969
24.55916	-10.94211	7.37969
24.56335	-10.94211	7.37969
24.56754	-10.94211	7.37969
24.57173	-10.94211	7.37969
24.57603	-10.94211	7.37969
24.58023	-10.94211	7.37969
24.58442	-10.94211	7.37969
24.58861	-10.92013	7.37969
24.59280	-10.92013	7.37969
24.59699	-10.92013	7.37969
24.60118	-10.89816	7.37969
24.60548	-10.89816	7.37969
24.60970	-10.89816	7.37969
24.61388	-10.89816	7.37969
24.61818	-10.89816	7.37969
24.62237	-10.87619	7.37969
24.62655	-10.87619	7.37969
24.63074	-10.87619	7.37969
24.63506	-10.87619	7.37969
24.63931	-10.87619	7.37969
24.64350	-10.85422	7.37969
24.64770	-10.85422	7.37969
24.65189	-10.85422	7.37969
24.65608	-10.85422	7.37969
24.66027	-10.85422	7.37969
24.66451	-10.85422	7.37969
24.66878	-10.83224	7.37969
24.67298	-10.83224	7.37969
24.67717	-10.83224	7.37969
24.68135	-10.83224	7.37969
24.68554	-10.81027	7.37969
24.68973	-10.81027	7.37969
24.69391	-10.78830	7.37969
24.69821	-10.78830	7.37969
24.70241	-10.78830	7.37969
24.70660	-10.78830	7.37969
24.71079	-10.78830	7.37969
24.71497	-10.76632	7.37969
24.71926	-10.76632	7.37969
24.72345	-10.74435	7.37969
24.72776	-10.74435	7.37969
24.73197	-10.72238	7.37969
24.73616	-10.72238	7.37969
24.74035	-10.72238	7.37969
24.74454	-10.72238	7.37969
24.74872	-10.72238	7.37969
24.75291	-10.70041	7.37969
24.75724	-10.67843	7.37969
24.76149	-10.67843	7.37969
24.76568	-10.67843	7.37969
24.76986	-10.67843	7.37969
24.77405	-10.65646	7.37969
24.77824	-10.65646	7.37969
24.78242	-10.65646	7.37969
24.78667	-10.63449	7.37969
24.79095	-10.63449	7.37969
24.79515	-10.61252	7.37969
24.79933	-10.61252	7.37969
24.80352	-10.61252	7.37969
24.80772	-10.59054	7.37969
24.81190	-10.59054	7.37969
24.81609	-10.59054	7.37969
24.82049	-10.59054	7.37969
24.82469	-10.56857	7.37969
24.82888	-10.54660	7.37969
24.83306	-10.54660	7.37969
24.83725	-10.54660	7.37969
24.84144	-10.52463	7.37969
24.84562	-10.52463	7.37969
24.84993	-10.50265	7.37969
24.85416	-10.50265	7.37969
24.85834	-10.48068	7.37969
24.86253	-10.48068	7.37969
24.86671	-10.48068	7.37969
24.87090	-10.45871	7.37969
24.87509	-10.45871	7.37969
24.87942	-10.43673	7.37969
24.88368	-10.43673	7.37969
24.88787	-10.41476	7.37969
24.89206	-10.41476	7.37969
24.89624	-10.41476	7.37969
24.90043	-10.39279	7.37969
24.90461	-10.39279	7.37969
24.90886	-10.37082	7.37969
24.91314	-10.37082	7.37969
24.91734	-10.37082	7.37969
24.92163	-10.37082	7.37969
24.92582	-10.34884	7.37969
24.93000	-10.32687	7.37969
24.93419	-10.32687	7.37969
24.93837	-10.32687	7.37969
24.94267	-10.30490	7.37969
24.94687	-10.30490	7.37969
24.95106	-10.30490	7.37969
24.95526	-10.28293	7.37969
24.95944	-10.28293	7.37969
24.96363	-10.26095	7.37969
24.96777	-10.26095	7.37969
24.97207	-10.26095	7.37969
24.97628	-10.23898	7.37969
24.98047	-10.23898	7.37969
24.98466	-10.21701	7.37969
24.98885	-10.21701	7.37969
24.99304	-10.19504	7.37969
24.99722	-10.19504	7.37969
25.00154	-10.19504	7.37969
25.00579	-10.19504	7.37969
25.00999	-10.17306	7.37969
25.01418	-10.17306	7.37969
25.01836	-10.15109	7.37969
25.02265	-10.15109	7.37969
25.02683	-10.15109	7.37969
25.03108	-10.15109	7.37969
25.03535	-10.12912	7.37969
25.03955	-10.12912	7.37969
25.04375	-10.10714	7.37969
25.04794	-10.10714	7.37969
25.05212	-10.10714	7.37969
25.05631	-10.08517	7.37969
25.06049	-10.10714	7.37969
25.06479	-10.08517	7.37969
25.06900	-10.08517	7.37969
25.07319	-10.06320	7.37969
25.07737	-10.06320	7.37969
25.08156	-10.06320	7.37969
25.08575	-10.04123	7.37969
25.08993	-10.04123	7.37969
25.09425	-10.04123	7.37969
25.09846	-10.04123	7.37969
25.10269	-10.01925	7.37969
25.10689	-10.01925	7.37969
25.11107	-10.01925	7.37969
25.11526	-10.01925	7.37969
25.11945	-9.99728	7.37969
25.12392	-9.99728	7.37969
25.12818	-9.99728	7.37969
25.13238	-9.99728	7.37969
25.13657	-9.97531	7.37969
25.14076	-9.97531	7.37969
25.14494	-9.97531	7.37969
25.14913	-9.95334	7.37969
25.15339	-9.95334	7.37969
25.15766	-9.95334	7.37969
25.16186	-9.95334	7.37969
25.16605	-9.93136	7.37969
25.17024	-9.95334	7.37969
25.17443	-9.93136	7.37969
25.17862	-9.93136	7.37969
25.18281	-9.93136	7.37969
25.18711	-9.93136	7.37969
25.19132	-9.90939	7.37969
25.19551	-9.90939	7.37969
25.19970	-9.90939	7.37969
25.20389	-9.90939	7.37969
25.20808	-9.90939	7.37969
25.21226	-9.90939	7.37969
25.21657	-9.90939	7.37969
25.22078	-9.90939	7.37969
25.22508	-9.90939	7.37969
25.22927	-9.88742	7.37969
25.23346	-9.88742	7.37969
25.23765	-9.88742	7.37969
25.24183	-9.88742	7.37969
25.24618	-9.88742	7.37969
25.25044	-9.88742	7.37969
25.25463	-9.88742	7.37969
25.25883	-9.88742	7.37969
25.26302	-9.88742	7.37969
25.26721	-9.88742	7.37969
25.27140	-9.88742	7.37969
25.27567	-9.86545	7.37969
25.27995	-9.86545	7.37969
25.28416	-9.86545	7.37969
25.28835	-9.86545	7.37969
25.29254	-9.86545	7.37969
25.29673	-9.86545	7.37969
25.30091	-9.86545	7.37969
25.30510	-9.86545	7.37969
25.30939	-9.86545	7.37969
25.31359	-9.86545	7.37969
25.31778	-9.86545	7.37969
25.32197	-9.86545	7.37969
25.32626	-9.86545	7.37969
25.33045	-9.86545	7.37969
25.33463	-9.86545	7.37969
25.33894	-9.86545	7.37969
25.34315	-9.86545	7.37969
25.34734	-9.86545	7.37969
25.35153	-9.86545	7.37969
25.35573	-9.86545	7.37969
25.35991	-9.86545	7.37969
25.36410	-9.86545	7.37969
25.36845	-9.86545	7.37969
25.37270	-9.86545	7.37969
25.37689	-9.86545	7.37969
25.38108	-9.88742	7.37969
25.38527	-9.88742	7.37969
25.38946	-9.88742	7.37969
25.39365	-9.88742	7.37969
25.39790	-9.88742	7.37969
25.40218	-9.88742	7.37969
25.40637	-9.88742	7.37969
25.41056	-9.88742	7.37969
25.41475	-9.90939	7.37969
25.41893	-9.88742	7.37969
25.42312	-9.88742	7.37969
25.42741	-9.88742	7.37969
25.43172	-9.90939	7.37969
25.43593	-9.90939	7.37969
25.44012	-9.90939	7.37969
25.44431	-9.90939	7.37969
25.44849	-9.90939	7.37969
25.45268	-9.90939	7.37969
25.45687	-9.90939	7.37969
25.46118	-9.90939	7.37969
25.46539	-9.90939	7.37969
25.46959	-9.90939	7.37969
25.47379	-9.90939	7.37969
25.47798	-9.90939	7.37969
25.48217	-9.93136	7.37969
25.48636	-9.93136	7.37969
25.49070	-9.93136	7.37969
25.49496	-9.95334	7.37969
25.49915	-9.95334	7.37969
25.50334	-9.95334	7.37969
25.50753	-9.95334	7.37969
25.51173	-9.95334	7.37969
25.51592	-9.95334	7.37969
25.52018	-9.95334	7.37969
25.52446	-9.97531	7.37969
25.52876	-9.97531	7.37969
25.53295	-9.97531	7.37969
25.53714	-9.97531	7.37969
25.54133	-9.97531	7.37969
25.54551	-9.97531	7.37969
25.54970	-9.99728	7.37969
25.55399	-9.99728	7.37969
25.55820	-9.99728	7.37969
25.56240	-9.99728	7.37969
25.56659	-10.01925	7.37969
25.57078	-10.01925	7.37969
25.57496	-10.01925	7.37969
25.57914	-10.01925	7.37969
25.58344	-10.01925	7.37969
25.58767	-10.01925	7.37969
25.59186	-10.01925	7.37969
25.59605	-10.04123	7.37969
25.60023	-10.04123	7.37969
25.60442	-10.04123	7.37969
25.60861	-10.04123	7.37969
25.61294	-10.06320	7.37969
25.61719	-10.06320	7.37969
25.62139	-10.06320	7.37969
25.62557	-10.06320	7.37969
25.62987	-10.06320	7.37969
25.63405	-10.06320	7.37969
25.63824	-10.06320	7.37969
25.64248	-10.08517	7.37969
25.64675	-10.08517	7.37969
25.65095	-10.10714	7.37969
25.65514	-10.10714	7.37969
25.65933	-10.10714	7.37969
25.66352	-10.10714	7.37969
25.66771	-10.12912	7.37969
25.67190	-10.10714	7.37969
25.67619	-10.12912	7.37969
25.68039	-10.12912	7.37969
25.68458	-10.12912	7.37969
25.68877	-10.12912	7.37969
25.69296	-10.12912	7.37969
25.69715	-10.12912	7.37969
25.70133	-10.15109	7.37969
25.70564	-10.15109	7.37969
25.70984	-10.15109	7.37969
25.71403	-10.15109	7.37969
25.71822	-10.17306	7.37969
25.72241	-10.17306	7.37969
25.72659	-10.17306	7.37969
25.73088	-10.19504	7.37969
25.73521	-10.17306	7.37969
25.73945	-10.17306	7.37969
25.74366	-10.19504	7.37969
25.74785	-10.19504	7.37969
25.75204	-10.21701	7.37969
25.75623	-10.21701	7.37969
25.76041	-10.21701	7.37969
25.76467	-10.21701	7.37969
25.76900	-10.21701	7.37969
25.77321	-10.21701	7.37969
25.77740	-10.23898	7.37969
25.78159	-10.23898	7.37969
25.78578	-10.23898	7.37969
25.78997	-10.23898	7.37969
25.79416	-10.26095	7.37969
25.79846	-10.26095	7.37969
25.80267	-10.26095	7.37969
25.80686	-10.26095	7.37969
25.81105	-10.28293	7.37969
25.81524	-10.28293	7.37969
25.81942	-10.28293	7.37969
25.82361	-10.28293	7.37969
25.82790	-10.30490	7.37969
25.83222	-10.30490	7.37969
25.83641	-10.32687	7.37969
25.84060	-10.32687	7.37969
25.84479	-10.32687	7.37969
25.84897	-10.30490	7.37969
25.85316	-10.32687	7.37969
25.85749	-10.32687	7.37969
25.86175	-10.34884	7.37969
25.86595	-10.34884	7.37969
25.87014	-10.34884	7.37969
25.87433	-10.34884	7.37969
25.87852	-10.37082	7.37969
25.88270	-10.37082	7.37969
25.88695	-10.37082	7.37969
25.89123	-10.37082	7.37969
25.89543	-10.37082	7.37969
25.89962	-10.39279	7.37969
25.90378	-10.39279	7.37969
25.90797	-10.39279	7.37969
25.91215	-10.39279	7.37969
25.91634	-10.39279	7.37969
25.92063	-10.39279	7.37969
25.92484	-10.41476	7.37969
25.92903	-10.41476	7.37969
25.93332	-10.41476	7.37969
25.93751	-10.43673	7.37969
25.94170	-10.41476	7.37969
25.94588	-10.41476	7.37969
25.95018	-10.43673	7.37969
25.95440	-10.43673	7.37969
25.95858	-10.43673	7.37969
25.96277	-10.45871	7.37969
25.96695	-10.45871	7.37969
25.97114	-10.45871	7.37969
25.97533	-10.45871	7.37969
25.97966	-10.48068	7.37969
25.98392	-10.45871	7.37969
25.98811	-10.48068	7.37969
25.99230	-10.48068	7.37969
25.99649	-10.48068	7.37969
26.00067	-10.48068	7.37969
26.00486	-10.48068	7.37969
26.00910	-10.50265	7.37969
26.01338	-10.50265	7.37969
26.01758	-10.50265	7.37969
26.02177	-10.50265	7.37969
26.02595	-10.50265	7.37969
26.03014	-10.52463	7.37969
26.03443	-10.52463	7.37969
26.03862	-10.52463	7.37969
26.04291	-10.52463	7.37969
26.04712	-10.52463	7.37969
26.05131	-10.52463	7.37969
26.05550	-10.52463	7.37969
26.05969	-10.54660	7.37969
26.06388	-10.54660	7.37969
26.06806	-10.54660	7.37969
26.07237	-10.56857	7.37969
26.07658	-10.56857	7.37969
26.08077	-10.56857	7.37969
26.08496	-10.56857	7.37969
26.08914	-10.56857	7.37969
26.09333	-10.56857	7.37969
26.09752	-10.56857	7.37969
26.10196	-10.59054	7.37969
26.10627	-10.59054	7.37969
26.11048	-10.59054	7.37969
26.11469	-10.59054	7.37969
26.11890	-10.59054	7.37969
26.12311	-10.59054	7.37969
26.12732	-10.61252	7.37969
26.13192	-10.61252	7.37969
26.13636	-10.61252	7.37969
26.14057	-10.61252	7.37969
26.14477	-10.63449	7.37969
26.14896	-10.61252	7.37969
26.15316	-10.63449	7.37969
26.15735	-10.63449	7.37969
26.16155	-10.63449	7.37969
26.16586	-10.63449	7.37969
26.17009	-10.63449	7.37969
26.17429	-10.63449	7.37969
26.17848	-10.65646	7.37969
26.18268	-10.65646	7.37969
26.18689	-10.65646	7.37969
26.19109	-10.65646	7.37969
26.19541	-10.65646	7.37969
26.19965	-10.67843	7.37969
26.20385	-10.67843	7.37969
26.20804	-10.67843	7.37969
26.21224	-10.67843	7.37969
26.21643	-10.67843	7.37969
26.22062	-10.67843	7.37969
26.22498	-10.70041	7.37969
26.22924	-10.70041	7.37969
26.23344	-10.70041	7.37969
26.23775	-10.70041	7.37969
26.24194	-10.70041	7.37969
26.24613	-10.70041	7.37969
26.25033	-10.72238	7.37969
26.25457	-10.72238	7.37969
26.25885	-10.72238	7.37969
26.26306	-10.72238	7.37969
26.26725	-10.72238	7.37969
26.27144	-10.72238	7.37969
26.27563	-10.74435	7.37969
26.27978	-10.74435	7.37969
26.28396	-10.74435	7.37969
26.28828	-10.74435	7.37969
26.29248	-10.74435	7.37969
26.29668	-10.74435	7.37969
26.30086	-10.76632	7.37969
26.30505	-10.76632	7.37969
26.30924	-10.76632	7.37969
26.31343	-10.76632	7.37969
26.31774	-10.78830	7.37969
26.32195	-10.78830	7.37969
26.32614	-10.78830	7.37969
26.33032	-10.78830	7.37969
26.33451	-10.78830	7.37969
26.33880	-10.78830	7.37969
26.34299	-10.78830	7.37969
26.34731	-10.78830	7.37969
26.35155	-10.81027	7.37969
26.35575	-10.81027	7.37969
26.35994	-10.81027	7.37969
26.36413	-10.81027	7.37969
26.36833	-10.81027	7.37969
26.37251	-10.83224	7.37969
26.37676	-10.83224	7.37969
26.38103	-10.81027	7.37969
26.38528	-10.81027	7.37969
26.38951	-10.83224	7.37969
26.39371	-10.83224	7.37969
26.39790	-10.83224	7.37969
26.40210	-10.83224	7.37969
26.40629	-10.83224	7.37969
26.41060	-10.83224	7.37969
26.41481	-10.83224	7.37969
26.41900	-10.85422	7.37969
26.42320	-10.85422	7.37969
26.42739	-10.85422	7.37969
26.43158	-10.85422	7.37969
26.43578	-10.85422	7.37969
26.44020	-10.85422	7.37969
26.44443	-10.85422	7.37969
26.44864	-10.85422	7.37969
26.45284	-10.85422	7.37969
26.45704	-10.85422	7.37969
26.46124	-10.85422	7.37969
26.46544	-10.85422	7.37969
26.46983	-10.87619	7.37969
26.47412	-10.87619	7.37969
26.47832	-10.87619	7.37969
26.48252	-10.87619	7.37969
26.48671	-10.87619	7.37969
26.49089	-10.87619	7.37969
26.49507	-10.87619	7.37969
26.49933	-10.87619	7.37969
26.50361	-10.87619	7.37969
26.50778	-10.87619	7.37969
26.51196	-10.87619	7.37969
26.51614	-10.87619	7.37969
26.52032	-10.87619	7.37969
26.52449	-10.89816	7.37969
26.52866	-10.87619	7.37969
26.53295	-10.89816	7.37969
26.53714	-10.89816	7.37969
26.54141	-10.89816	7.37969
26.54558	-10.89816	7.37969
26.54975	-10.89816	7.37969
26.55392	-10.89816	7.37969
26.55810	-10.89816	7.37969
26.56238	-10.89816	7.37969
26.56658	-10.89816	7.37969
26.57076	-10.89816	7.37969
26.57495	-10.89816	7.37969
26.57914	-10.89816	7.37969
26.58333	-10.89816	7.37969
26.58753	-10.89816	7.37969
26.59189	-10.89816	7.37969
26.59614	-10.89816	7.37969
26.60035	-10.89816	7.37969
26.60454	-10.89816	7.37969
26.60873	-10.89816	7.37969
26.61291	-10.89816	7.37969
26.61710	-10.89816	7.37969
26.62136	-10.89816	7.37969
26.62563	-10.89816	7.37969
26.62983	-10.89816	7.37969
26.63402	-10.89816	7.37969
26.63820	-10.89816	7.37969
26.64250	-10.89816	7.37969
26.64668	-10.89816	7.37969
26.65087	-10.89816	7.37969
26.65516	-10.89816	7.37969
26.65937	-10.89816	7.37969
26.66356	-10.89816	7.37969
26.66775	-10.89816	7.37969
26.67194	-10.89816	7.37969
26.67613	-10.89816	7.37969
26.68033	-10.89816	7.37969
26.68466	-10.87619	7.37969
26.68889	-10.87619	7.37969
26.69309	-10.87619	7.37969
26.69728	-10.87619	7.37969
26.70146	-10.87619	7.37969
26.70565	-10.87619	7.37969
26.70984	-10.87619	7.37969
26.71417	-10.87619	7.37969
26.71842	-10.87619	7.37969
26.72262	-10.87619	7.37969
26.72680	-10.85422	7.37969
26.73099	-10.85422	7.37969
26.73518	-10.85422	7.37969
26.73936	-10.85422	7.37969
26.74374	-10.85422	7.37969
26.74800	-10.85422	7.37969
26.75220	-10.85422	7.37969
26.75639	-10.83224	7.37969
26.76058	-10.83224	7.37969
26.76476	-10.83224	7.37969
26.76895	-10.83224	7.37969
26.77313	-10.83224	7.37969
26.77743	-10.83224	7.37969
26.78163	-10.83224	7.37969
26.78582	-10.83224	7.37969
26.79003	-10.81027	7.37969
26.79423	-10.81027	7.37969
26.79842	-10.81027	7.37969
26.80260	-10.81027	7.37969
26.80693	-10.81027	7.37969
26.81114	-10.78830	7.37969
26.81533	-10.78830	7.37969
26.81951	-10.78830	7.37969
26.82371	-10.78830	7.37969
26.82790	-10.78830	7.37969
26.83209	-10.78830	7.37969
26.83643	-10.76632	7.37969
26.84069	-10.76632	7.37969
26.84499	-10.76632	7.37969
26.84918	-10.76632	7.37969
26.85337	-10.74435	7.37969
26.85756	-10.74435	7.37969
26.86175	-10.74435	7.37969
26.86600	-10.72238	7.37969
26.87028	-10.72238	7.37969
26.87449	-10.72238	7.37969
26.87868	-10.72238	7.37969
26.88287	-10.72238	7.37969
26.88707	-10.72238	7.37969
26.89127	-10.70041	7.37969
26.89546	-10.70041	7.37969
26.89976	-10.67843	7.37969
26.90396	-10.67843	7.37969
26.90815	-10.67843	7.37969
26.91234	-10.67843	7.37969
26.91653	-10.65646	7.37969
26.92072	-10.65646	7.37969
26.92490	-10.65646	7.37969
26.92922	-10.65646	7.37969
26.93343	-10.65646	7.37969
26.93762	-10.63449	7.37969
26.94180	-10.61252	7.37969
26.94609	-10.61252	7.37969
26.95028	-10.61252	7.37969
26.95447	-10.61252	7.37969
26.95879	-10.61252	7.37969
26.96304	-10.59054	7.37969
26.96723	-10.59054	7.37969
26.97142	-10.59054	7.37969
26.97561	-10.56857	7.37969
26.97978	-10.56857	7.37969
26.98398	-10.56857	7.37969
26.98826	-10.54660	7.37969
26.99254	-10.54660	7.37969
26.99675	-10.54660	7.37969
27.00094	-10.52463	7.37969
27.00513	-10.52463	7.37969
27.00932	-10.52463	7.37969
27.01350	-10.50265	7.37969
27.01769	-10.50265	7.37969
27.02198	-10.50265	7.37969
27.02618	-10.48068	7.37969
27.03037	-10.48068	7.37969
27.03456	-10.48068	7.37969
27.03875	-10.48068	7.37969
27.04293	-10.45871	7.37969
27.04722	-10.45871	7.37969
27.05154	-10.43673	7.37969
27.05575	-10.43673	7.37969
27.05994	-10.43673	7.37969
27.06413	-10.41476	7.37969
27.06832	-10.41476	7.37969
27.07251	-10.41476	7.37969
27.07669	-10.41476	7.37969
27.08103	-10.39279	7.37969
27.08528	-10.39279	7.37969
27.08951	-10.39279	7.37969
27.09371	-10.37082	7.37969
27.09789	-10.37082	7.37969
27.10208	-10.37082	7.37969
27.10627	-10.34884	7.37969
27.11052	-10.34884	7.37969
27.11479	-10.34884	7.37969
27.11899	-10.32687	7.37969
27.12318	-10.32687	7.37969
27.12737	-10.32687	7.37969
27.13156	-10.32687	7.37969
27.13575	-10.30490	7.37969
27.13994	-10.30490	7.37969
27.14423	-10.30490	7.37969
27.14854	-10.28293	7.37969
27.15272	-10.30490	7.37969
27.15691	-10.28293	7.37969
27.16110	-10.28293	7.37969
27.16529	-10.28293	7.37969
27.16947	-10.26095	7.37969
27.17378	-10.26095	7.37969
27.17799	-10.26095	7.37969
27.18218	-10.23898	7.37969
27.18637	-10.23898	7.37969
27.19057	-10.23898	7.37969
27.19476	-10.23898	7.37969
27.19896	-10.21701	7.37969
27.20329	-10.21701	7.37969
27.20755	-10.19504	7.37969
27.21175	-10.21701	7.37969
27.21595	-10.21701	7.37969
27.22014	-10.19504	7.37969
27.22433	-10.19504	7.37969
27.22852	-10.19504	7.37969
27.23279	-10.17306	7.37969
27.23707	-10.17306	7.37969
27.24127	-10.17306	7.37969
27.24546	-10.15109	7.37969
27.24976	-10.15109	7.37969
27.25395	-10.15109	7.37969
27.25813	-10.12912	7.37969
27.26232	-10.12912	7.37969
27.26661	-10.12912	7.37969
27.27081	-10.12912	7.37969
27.27502	-10.12912	7.37969
27.27920	-10.12912	7.37969
27.28339	-10.10714	7.37969
27.28760	-10.10714	7.37969
27.29179	-10.10714	7.37969
27.29628	-10.08517	7.37969
27.30053	-10.08517	7.37969
27.30474	-10.08517	7.37969
27.30894	-10.08517	7.37969
27.31313	-10.08517	7.37969
27.31733	-10.06320	7.37969
27.32152	-10.06320	7.37969
27.32654	-10.06320	7.37969
27.33080	-10.06320	7.37969
27.33502	-10.06320	7.37969
27.33922	-10.04123	7.37969
27.34341	-10.04123	7.37969
27.34759	-10.04123	7.37969
27.35189	-10.01925	7.37969
27.35620	-10.01925	7.37969
27.36048	-10.04123	7.37969
27.36467	-10.01925	7.37969
27.36887	-10.01925	7.37969
27.37306	-10.01925	7.37969
27.37725	-9.99728	7.37969
27.38144	-9.99728	7.37969
27.38571	-9.99728	7.37969
27.39000	-9.99728	7.37969
27.39419	-9.99728	7.37969
27.39838	-9.99728	7.37969
27.40257	-9.97531	7.37969
27.40676	-9.99728	7.37969
27.41094	-9.99728	7.37969
27.41513	-9.97531	7.37969
27.41943	-9.97531	7.37969
27.42365	-9.97531	7.37969
27.42784	-9.95334	7.37969
27.43203	-9.95334	7.37969
27.43622	-9.95334	7.37969
27.44041	-9.95334	7.37969
27.44460	-9.95334	7.37969
27.44894	-9.95334	7.37969
27.45326	-9.95334	7.37969
27.45745	-9.95334	7.37969
27.46164	-9.93136	7.37969
27.46583	-9.93136	7.37969
27.47002	-9.93136	7.37969
27.47421	-9.93136	7.37969
27.47854	-9.93136	7.37969
27.48280	-9.93136	7.37969
27.48700	-9.93136	7.37969
27.49119	-9.93136	7.37969
27.49538	-9.93136	7.37969
27.49956	-9.90939	7.37969
27.50376	-9.90939	7.37969
27.50801	-9.90939	7.37969
27.51229	-9.90939	7.37969
27.51649	-9.90939	7.37969
27.52068	-9.93136	7.37969
27.52487	-9.90939	7.37969
27.52905	-9.90939	7.37969
27.53324	-9.90939	7.37969
27.53742	-9.90939	7.37969
27.54172	-9.90939	7.37969
27.54592	-9.90939	7.37969
27.55011	-9.88742	7.37969
27.55441	-9.90939	7.37969
27.55860	-9.88742	7.37969
27.56278	-9.90939	7.37969
27.56697	-9.90939	7.37969
27.57128	-9.90939	7.37969
27.57549	-9.90939	7.37969
27.57969	-9.90939	7.37969
27.58388	-9.88742	7.37969
27.58806	-9.88742	7.37969
27.59225	-9.90939	7.37969
27.59644	-9.90939	7.37969
27.60078	-9.90939	7.37969
27.60504	-9.90939	7.37969
27.60923	-9.90939	7.37969
27.61342	-9.90939	7.37969
27.61761	-9.90939	7.37969
27.62179	-9.90939	7.37969
27.62598	-9.90939	7.37969
27.63023	-9.90939	7.37969
27.63451	-9.90939	7.37969
27.63870	-9.90939	7.37969
27.64289	-9.90939	7.37969
27.64708	-9.90939	7.37969
27.65127	-9.90939	7.37969
27.65556	-9.90939	7.37969
27.65975	-9.90939	7.37969
27.66404	-9.93136	7.37969
27.66825	-9.93136	7.37969
27.67244	-9.93136	7.37969
27.67663	-9.93136	7.37969
27.68081	-9.93136	7.37969
27.68500	-9.93136	7.37969
27.68919	-9.93136	7.37969
27.69349	-9.93136	7.37969
27.69770	-9.93136	7.37969
27.70189	-9.93136	7.37969
27.70607	-9.93136	7.37969
27.71026	-9.93136	7.37969
27.71444	-9.95334	7.37969
27.71863	-9.95334	7.37969
27.72295	-9.95334	7.37969
27.72720	-9.95334	7.37969
27.73140	-9.95334	7.37969
27.73558	-9.95334	7.37969
27.73978	-9.95334	7.37969
27.74396	-9.95334	7.37969
27.74815	-9.95334	7.37969
27.75239	-9.97531	7.37969
27.75677	-9.95334	7.37969
27.76097	-9.97531	7.37969
27.76516	-9.97531	7.37969
27.76934	-9.97531	7.37969
27.77353	-9.97531	7.37969
27.77773	-9.97531	7.37969
27.78191	-9.99728	7.37969
27.78621	-9.99728	7.37969
27.79041	-9.99728	7.37969
27.79460	-9.99728	7.37969
27.79879	-9.99728	7.37969
27.80298	-9.99728	7.37969
27.80717	-9.99728	7.37969
27.81135	-10.01925	7.37969
27.81567	-9.99728	7.37969
27.81988	-10.01925	7.37969
27.82407	-10.01925	7.37969
27.82826	-10.01925	7.37969
27.83245	-10.01925	7.37969
27.83663	-10.01925	7.37969
27.84082	-10.04123	7.37969
27.84515	-10.04123	7.37969
27.84940	-10.04123	7.37969
27.85359	-10.04123	7.37969
27.85788	-10.04123	7.37969
27.86207	-10.04123	7.37969
27.86626	-10.04123	7.37969
27.87044	-10.06320	7.37969
27.87469	-10.06320	7.37969
27.87897	-10.06320	7.37969
27.88317	-10.06320	7.37969
27.88736	-10.06320	7.37969
27.89155	-10.08517	7.37969
27.89575	-10.08517	7.37969
27.89993	-10.08517	7.37969
27.90412	-10.08517	7.37969
27.90841	-10.08517	7.37969
27.91261	-10.08517	7.37969
27.91680	-10.10714	7.37969
27.92099	-10.10714	7.37969
27.92518	-10.10714	7.37969
27.92936	-10.10714	7.37969
27.93355	-10.10714	7.37969
27.93785	-10.10714	7.37969
27.94206	-10.12912	7.37969
27.94624	-10.12912	7.37969
27.95043	-10.12912	7.37969
27.95462	-10.12912	7.37969
27.95891	-10.12912	7.37969
27.96309	-10.12912	7.37969
27.96741	-10.15109	7.37969
27.97168	-10.15109	7.37969
27.97587	-10.15109	7.37969
27.98006	-10.15109	7.37969
27.98425	-10.15109	7.37969
27.98843	-10.15109	7.37969
27.99262	-10.17306	7.37969
27.99687	-10.17306	7.37969
28.00114	-10.19504	7.37969
28.00534	-10.17306	7.37969
28.00952	-10.17306	7.37969
28.01371	-10.17306	7.37969
28.01790	-10.19504	7.37969
28.02209	-10.19504	7.37969
28.02627	-10.19504	7.37969
28.03057	-10.21701	7.37969
28.03478	-10.21701	7.37969
28.03897	-10.21701	7.37969
28.04315	-10.21701	7.37969
28.04734	-10.21701	7.37969
28.05153	-10.21701	7.37969
28.05573	-10.21701	7.37969
28.06014	-10.23898	7.37969
28.06434	-10.23898	7.37969
28.06853	-10.23898	7.37969
28.07271	-10.23898	7.37969
28.07690	-10.26095	7.37969
28.08110	-10.26095	7.37969
28.08528	-10.26095	7.37969
28.08962	-10.26095	7.37969
28.09387	-10.26095	7.37969
28.09806	-10.26095	7.37969
28.10225	-10.28293	7.37969
28.10644	-10.28293	7.37969
28.11063	-10.28293	7.37969
28.11481	-10.28293	7.37969
28.11905	-10.28293	7.37969
28.12333	-10.28293	7.37969
28.12753	-10.30490	7.37969
28.13172	-10.30490	7.37969
28.13591	-10.30490	7.37969
28.14010	-10.30490	7.37969
28.14429	-10.30490	7.37969
28.14848	-10.30490	7.37969
28.15277	-10.32687	7.37969
28.15697	-10.32687	7.37969
28.16127	-10.32687	7.37969
28.16545	-10.32687	7.37969
28.16964	-10.32687	7.37969
28.17383	-10.32687	7.37969
28.17801	-10.34884	7.37969
28.18231	-10.34884	7.37969
28.18652	-10.34884	7.37969
28.19071	-10.34884	7.37969
28.19490	-10.34884	7.37969
28.19909	-10.34884	7.37969
28.20328	-10.37082	7.37969
28.20746	-10.37082	7.37969
28.21180	-10.37082	7.37969
28.21606	-10.37082	7.37969
28.22025	-10.37082	7.37969
28.22444	-10.39279	7.37969
28.22862	-10.39279	7.37969
28.23281	-10.39279	7.37969
28.23700	-10.39279	7.37969
28.24125	-10.39279	7.37969
28.24552	-10.39279	7.37969
28.24972	-10.39279	7.37969
28.25391	-10.39279	7.37969
28.25810	-10.41476	7.37969
28.26239	-10.41476	7.37969
28.26657	-10.41476	7.37969
28.27076	-10.41476	7.37969
28.27505	-10.41476	7.37969
28.27926	-10.41476	7.37969
28.28345	-10.43673	7.37969
28.28765	-10.43673	7.37969
28.29184	-10.43673	7.37969
28.29603	-10.43673	7.37969
28.30021	-10.43673	7.37969
28.30453	-10.43673	7.37969
28.30874	-10.43673	7.37969
28.31292	-10.43673	7.37969
28.31711	-10.45871	7.37969
28.32130	-10.45871	7.37969
28.32549	-10.45871	7.37969
28.32968	-10.45871	7.37969
28.33400	-10.48068	7.37969
28.33825	-10.45871	7.37969
28.34245	-10.48068	7.37969
28.34663	-10.48068	7.37969
28.35082	-10.48068	7.37969
28.35501	-10.48068	7.37969
28.35919	-10.48068	7.37969
28.36354	-10.48068	7.37969
28.36782	-10.48068	7.37969
28.37202	-10.50265	7.37969
28.37620	-10.50265	7.37969
28.38039	-10.50265	7.37969
28.38458	-10.50265	7.37969
28.38877	-10.50265	7.37969
28.39295	-10.52463	7.37969
28.39725	-10.50265	7.37969
28.40146	-10.52463	7.37969
28.40565	-10.52463	7.37969
28.40984	-10.52463	7.37969
28.41402	-10.52463	7.37969
28.41821	-10.52463	7.37969
28.42240	-10.54660	7.37969
28.42671	-10.54660	7.37969
28.43092	-10.54660	7.37969
28.43512	-10.54660	7.37969
28.43930	-10.54660	7.37969
28.44349	-10.54660	7.37969
28.44770	-10.54660	7.37969
28.45189	-10.54660	7.37969
28.45623	-10.56857	7.37969
28.46050	-10.56857	7.37969
28.46480	-10.54660	7.37969
28.46900	-10.56857	7.37969
28.47319	-10.56857	7.37969
28.47738	-10.56857	7.37969
28.48156	-10.56857	7.37969
28.48584	-10.56857	7.37969
28.49012	-10.56857	7.37969
28.49432	-10.59054	7.37969
28.49851	-10.56857	7.37969
28.50270	-10.59054	7.37969
28.50689	-10.59054	7.37969
28.51107	-10.59054	7.37969
28.51526	-10.59054	7.37969
28.51956	-10.59054	7.37969
28.52377	-10.59054	7.37969
28.52796	-10.59054	7.37969
28.53215	-10.61252	7.37969
28.53633	-10.61252	7.37969
28.54052	-10.61252	7.37969
28.54471	-10.61252	7.37969
28.54901	-10.61252	7.37969
28.55322	-10.61252	7.37969
28.55740	-10.61252	7.37969
28.56159	-10.61252	7.37969
28.56588	-10.61252	7.37969
28.57007	-10.61252	7.37969
28.57426	-10.61252	7.37969
28.57858	-10.61252	7.37969
28.58283	-10.63449	7.37969
28.58704	-10.63449	7.37969
28.59123	-10.63449	7.37969
28.59541	-10.63449	7.37969
28.59960	-10.63449	7.37969
28.60377	-10.63449	7.37969
28.60803	-10.63449	7.37969
28.61230	-10.65646	7.37969
28.61650	-10.63449	7.37969
28.62069	-10.63449	7.37969
28.62488	-10.63449	7.37969
28.62907	-10.63449	7.37969
28.63326	-10.63449	7.37969
28.63744	-10.65646	7.37969
28.64173	-10.65646	7.37969
28.64594	-10.65646	7.37969
28.65013	-10.65646	7.37969
28.65431	-10.65646	7.37969
28.65850	-10.65646	7.37969
28.66269	-10.65646	7.37969
28.66698	-10.65646	7.37969
28.67129	-10.65646	7.37969
28.67550	-10.65646	7.37969
28.67970	-10.65646	7.37969
28.68389	-10.65646	7.37969
28.68808	-10.65646	7.37969
28.69227	-10.65646	7.37969
28.69645	-10.65646	7.37969
28.70080	-10.65646	7.37969
28.70506	-10.67843	7.37969
28.70926	-10.65646	7.37969
28.71344	-10.65646	7.37969
28.71763	-10.65646	7.37969
28.72182	-10.65646	7.37969
28.72600	-10.65646	7.37969
28.73025	-10.67843	7.37969
28.73452	-10.65646	7.37969
28.73872	-10.65646	7.37969
28.74291	-10.65646	7.37969
28.74710	-10.67843	7.37969
28.75129	-10.67843	7.37969
28.75548	-10.65646	7.37969
28.75967	-10.67843	7.37969
28.76397	-10.65646	7.37969
28.76829	-10.67843	7.37969
28.77247	-10.67843	7.37969
28.77666	-10.67843	7.37969
28.78085	-10.65646	7.37969
28.78503	-10.67843	7.37969
28.78922	-10.65646	7.37969
28.79355	-10.65646	7.37969
28.79776	-10.67843	7.37969
28.80195	-10.67843	7.37969
28.80614	-10.65646	7.37969
28.81033	-10.67843	7.37969
28.81451	-10.65646	7.37969
28.81870	-10.65646	7.37969
28.82302	-10.65646	7.37969
28.82728	-10.65646	7.37969
28.83147	-10.65646	7.37969
28.83567	-10.65646	7.37969
28.83986	-10.65646	7.37969
28.84405	-10.65646	7.37969
28.84824	-10.65646	7.37969
28.85249	-10.65646	7.37969
28.85677	-10.65646	7.37969
28.86097	-10.65646	7.37969
28.86516	-10.65646	7.37969
28.86945	-10.67843	7.37969
28.87364	-10.65646	7.37969
28.87783	-10.65646	7.37969
28.88201	-10.65646	7.37969
28.88631	-10.65646	7.37969
28.89052	-10.65646	7.37969
28.89471	-10.65646	7.37969
28.89890	-10.65646	7.37969
28.90309	-10.65646	7.37969
28.90727	-10.65646	7.37969
28.91146	-10.63449	7.37969
28.91578	-10.63449	7.37969
28.91998	-10.65646	7.37969
28.92417	-10.63449	7.37969
28.92835	-10.63449	7.37969
28.93254	-10.63449	7.37969
28.93673	-10.63449	7.37969
28.94091	-10.63449	7.37969
28.94525	-10.65646	7.37969
28.94950	-10.63449	7.37969
28.95369	-10.63449	7.37969
28.95788	-10.63449	7.37969
28.96207	-10.63449	7.37969
28.96625	-10.63449	7.37969
28.97054	-10.63449	7.37969
28.97478	-10.63449	7.37969
28.97906	-10.63449	7.37969
28.98326	-10.63449	7.37969
28.98745	-10.63449	7.37969
28.99165	-10.63449	7.37969
28.99584	-10.63449	7.37969
29.00002	-10.63449	7.37969
29.00421	-10.63449	7.37969
29.00851	-10.63449	7.37969
29.01271	-10.63449	7.37969
29.01690	-10.65646	7.37969
29.02109	-10.63449	7.37969
29.02528	-10.63449	7.37969
29.02946	-10.63449	7.37969
29.03365	-10.63449	7.37969
29.03796	-10.63449	7.37969
29.04216	-10.63449	7.37969
29.04635	-10.63449	7.37969
29.05054	-10.63449	7.37969
29.05473	-10.63449	7.37969
29.05892	-10.63449	7.37969
29.06310	-10.63449	7.37969
29.06743	-10.63449	7.37969
29.07180	-10.63449	7.37969
29.07599	-10.63449	7.37969
29.08017	-10.63449	7.37969
29.08436	-10.63449	7.37969
29.08856	-10.65646	7.37969
29.09274	-10.65646	7.37969
29.09699	-10.63449	7.37969
29.10127	-10.65646	7.37969
29.10551	-10.63449	7.37969
29.10970	-10.65646	7.37969
29.11388	-10.65646	7.37969
29.11807	-10.65646	7.37969
29.12225	-10.65646	7.37969
29.12644	-10.65646	7.37969
29.13074	-10.65646	7.37969
29.13495	-10.65646	7.37969
29.13914	-10.65646	7.37969
29.14332	-10.65646	7.37969
29.14751	-10.65646	7.37969
29.15171	-10.65646	7.37969
29.15590	-10.65646	7.37969
29.16021	-10.65646	7.37969
29.16442	-10.65646	7.37969
29.16861	-10.65646	7.37969
29.17291	-10.65646	7.37969
29.17709	-10.65646	7.37969
29.18128	-10.65646	7.37969
29.18547	-10.65646	7.37969
29.18981	-10.65646	7.37969
29.19410	-10.67843	7.37969
29.19830	-10.67843	7.37969
29.20249	-10.65646	7.37969
29.20668	-10.65646	7.37969
29.21087	-10.67843	7.37969
29.21506	-10.65646	7.37969
29.21931	-10.67843	7.37969
29.22359	-10.67843	7.37969
29.22781	-10.67843	7.37969
29.23201	-10.67843	7.37969
29.23620	-10.67843	7.37969
29.24038	-10.67843	7.37969
29.24457	-10.67843	7.37969
29.24875	-10.67843	7.37969
29.25305	-10.67843	7.37969
29.25726	-10.67843	7.37969
29.26145	-10.67843	7.37969
29.26563	-10.67843	7.37969
29.26982	-10.67843	7.37969
29.27411	-10.67843	7.37969
29.27830	-10.67843	7.37969
29.28260	-10.67843	7.37969
29.28681	-10.67843	7.37969
29.29102	-10.67843	7.37969
29.29522	-10.67843	7.37969
29.29942	-10.65646	7.37969
29.30361	-10.65646	7.37969
29.30777	-10.67843	7.37969
29.31211	-10.67843	7.37969
29.31637	-10.67843	7.37969
29.32056	-10.67843	7.37969
29.32475	-10.65646	7.37969
29.32894	-10.65646	7.37969
29.33313	-10.67843	7.37969
29.33732	-10.67843	7.37969
29.34156	-10.65646	7.37969
29.34583	-10.67843	7.37969
29.35004	-10.65646	7.37969
29.35422	-10.65646	7.37969
29.35841	-10.67843	7.37969
29.36260	-10.67843	7.37969
29.36678	-10.67843	7.37969
29.37097	-10.65646	7.37969
29.37538	-10.67843	7.37969
29.37958	-10.67843	7.37969
29.38379	-10.67843	7.37969
29.38798	-10.65646	7.37969
29.39219	-10.65646	7.37969
29.39638	-10.65646	7.37969
29.40057	-10.65646	7.37969
29.40494	-10.65646	7.37969
29.40916	-10.65646	7.37969
29.41334	-10.65646	7.37969
29.41753	-10.65646	7.37969
29.42172	-10.65646	7.37969
29.42591	-10.65646	7.37969
29.43010	-10.65646	7.37969
29.43443	-10.65646	7.37969
29.43869	-10.65646	7.37969
29.44288	-10.65646	7.37969
29.44707	-10.65646	7.37969
29.45127	-10.65646	7.37969
29.45545	-10.65646	7.37969
29.45965	-10.65646	7.37969
29.46392	-10.63449	7.37969
29.46820	-10.65646	7.37969
29.47241	-10.65646	7.37969
29.47671	-10.63449	7.37969
29.48090	-10.65646	7.37969
29.48509	-10.65646	7.37969
29.48928	-10.65646	7.37969
29.49348	-10.65646	7.37969
29.49779	-10.63449	7.37969
29.50200	-10.65646	7.37969
29.50619	-10.63449	7.37969
29.51038	-10.63449	7.37969
29.51457	-10.63449	7.37969
29.51875	-10.63449	7.37969
29.52294	-10.63449	7.37969
29.52725	-10.63449	7.37969
29.53146	-10.63449	7.37969
29.53566	-10.63449	7.37969
29.53985	-10.63449	7.37969
29.54404	-10.63449	7.37969
29.54822	-10.63449	7.37969
29.55241	-10.65646	7.37969
29.55674	-10.63449	7.37969
29.56100	-10.63449	7.37969
29.56519	-10.63449	7.37969
29.56938	-10.63449	7.37969
29.57357	-10.63449	7.37969
29.57785	-10.63449	7.37969
29.58204	-10.63449	7.37969
29.58628	-10.63449	7.37969
29.59055	-10.63449	7.37969
29.59477	-10.63449	7.37969
29.59897	-10.63449	7.37969
29.60317	-10.63449	7.37969
29.60736	-10.63449	7.37969
29.61154	-10.63449	7.37969
29.61574	-10.63449	7.37969
29.62004	-10.63449	7.37969
29.62424	-10.63449	7.37969
29.62844	-10.63449	7.37969
29.63263	-10.63449	7.37969
29.63682	-10.63449	7.37969
29.64101	-10.63449	7.37969
29.64519	-10.63449	7.37969
29.64951	-10.63449	7.37969
29.65372	-10.63449	7.37969
29.65791	-10.63449	7.37969
29.66209	-10.63449	7.37969
29.66628	-10.61252	7.37969
29.67047	-10.61252	7.37969
29.67466	-10.61252	7.37969
29.67910	-10.63449	7.37969
29.68335	-10.61252	7.37969
29.68755	-10.63449	7.37969
29.69177	-10.61252	7.37969
29.69597	-10.61252	7.37969
29.70017	-10.61252	7.37969
29.70436	-10.61252	7.37969
29.70860	-10.61252	7.37969
29.71288	-10.61252	7.37969
29.71709	-10.61252	7.37969
29.72129	-10.61252	7.37969
29.72548	-10.61252	7.37969
29.72968	-10.61252	7.37969
29.73387	-10.61252	7.37969
29.73806	-10.61252	7.37969
29.74236	-10.61252	7.37969
29.74657	-10.63449	7.37969
29.75078	-10.63449	7.37969
29.75497	-10.61252	7.37969
29.75917	-10.61252	7.37969
29.76336	-10.61252	7.37969
29.76755	-10.61252	7.37969
29.77188	-10.61252	7.37969
29.77609	-10.61252	7.37969
29.78040	-10.61252	7.37969
29.78459	-10.61252	7.37969
29.78878	-10.61252	7.37969
29.79299	-10.61252	7.37969
29.79719	-10.61252	7.37969
29.80154	-10.61252	7.37969
29.80580	-10.61252	7.37969
29.81000	-10.61252	7.37969
29.81420	-10.59054	7.37969
29.81839	-10.59054	7.37969
29.82258	-10.61252	7.37969
29.82677	-10.59054	7.37969
29.83102	-10.59054	7.37969
29.83529	-10.59054	7.37969
29.83949	-10.59054	7.37969
29.84369	-10.59054	7.37969
29.84788	-10.59054	7.37969
29.85207	-10.59054	7.37969
29.85625	-10.59054	7.37969
29.86044	-10.59054	7.37969
29.86473	-10.59054	7.37969
29.86894	-10.59054	7.37969
29.87312	-10.59054	7.37969
29.87731	-10.59054	7.37969
29.88160	-10.59054	7.37969
29.88578	-10.59054	7.37969
29.88997	-10.56857	7.37969
29.89430	-10.56857	7.37969
29.89853	-10.56857	7.37969
29.90272	-10.56857	7.37969
29.90691	-10.56857	7.37969
29.91110	-10.56857	7.37969
29.91529	-10.56857	7.37969
29.91948	-10.56857	7.37969
29.92382	-10.56857	7.37969
29.92808	-10.56857	7.37969
29.93228	-10.56857	7.37969
29.93647	-10.56857	7.37969
29.94066	-10.56857	7.37969
29.94485	-10.56857	7.37969
29.94903	-10.56857	7.37969
29.95327	-10.54660	7.37969
29.95755	-10.56857	7.37969
29.96176	-10.54660	7.37969
29.96595	-10.54660	7.37969
29.97013	-10.56857	7.37969
29.97432	-10.56857	7.37969
29.97851	-10.54660	7.37969
29.98279	-10.54660	7.37969
29.98709	-10.54660	7.37969
29.99131	-10.54660	7.37969
29.99553	-10.54660	7.37969
29.99973	-10.54660	7.37969
