Time (s)   roll (deg)   Delta
0.00040	-6.17404	11.27051
0.00462	-6.17404	11.27051
0.00882	-6.19601	11.27051
0.01299	-6.17404	11.27051
0.01716	-6.17404	11.27051
0.02134	-6.17404	11.27051
0.02558	-6.15207	11.27051
0.02984	-6.15207	11.27051
0.03401	-6.15207	11.27051
0.03818	-6.15207	11.27051
0.04235	-6.15207	11.27051
0.04652	-6.15207	11.27051
0.05070	-6.15207	11.27051
0.05487	-6.13009	11.27051
0.05914	-6.13009	11.27051
0.06333	-6.13009	11.27051
0.06752	-6.13009	11.27051
0.07169	-6.13009	11.27051
0.07586	-6.13009	11.27051
0.08003	-6.13009	11.27051
0.08420	-6.13009	11.27051
0.08845	-6.10812	11.27051
0.09270	-6.10812	11.27051
0.09687	-6.10812	11.27051
0.10114	-6.10812	11.27051
0.10531	-6.10812	11.27051
0.10950	-6.10812	11.27051
0.11368	-6.10812	11.27051
0.11787	-6.10812	11.27051
0.12217	-6.13009	11.27051
0.12637	-6.10812	11.27051
0.13055	-6.13009	11.27051
0.13474	-6.13009	11.27051
0.13893	-6.13009	11.27051
0.14311	-6.13009	11.27051
0.14729	-6.13009	11.27051
0.15154	-6.15207	11.27051
0.15581	-6.15207	11.27051
0.16001	-6.17404	11.27051
0.16419	-6.17404	11.27051
0.16840	-6.19601	11.27051
0.17259	-6.19601	11.27051
0.17678	-6.19601	11.27051
0.18096	-6.21798	11.27051
0.18526	-6.21798	11.27051
0.18946	-6.23996	11.27051
0.19365	-6.26193	11.27051
0.19783	-6.26193	11.27051
0.20212	-6.28390	11.27051
0.20631	-6.30588	11.27051
0.21050	-6.30588	11.27051
0.21494	-6.32785	11.27051
0.21922	-6.34982	11.27051
0.22345	-6.37179	11.27051
0.22764	-6.37179	11.27051
0.23184	-6.39377	11.27051
0.23603	-6.41574	11.27051
0.24022	-6.45968	11.27051
0.24454	-6.48166	11.27051
0.24883	-6.50363	11.27051
0.25304	-6.52560	11.27051
0.25723	-6.52560	11.27051
0.26142	-6.56955	11.27051
0.26563	-6.59152	11.27051
0.26982	-6.61349	11.27051
0.27403	-6.65744	11.27051
0.27836	-6.70138	11.27051
0.28258	-6.70138	11.27051
0.28676	-6.72336	11.27051
0.29096	-6.76730	11.27051
0.29515	-6.78927	11.27051
0.29934	-6.83322	11.27051
0.30364	-6.83322	11.27051
0.30791	-6.87716	11.27051
0.31219	-6.92111	11.27051
0.31639	-6.96506	11.27051
0.32059	-6.98703	11.27051
0.32478	-7.03097	11.27051
0.32897	-7.03097	11.27051
0.33316	-7.07492	11.27051
0.33736	-7.14084	11.27051
0.34168	-7.16281	11.27051
0.34588	-7.20675	11.27051
0.35008	-7.25070	11.27051
0.35427	-7.31662	11.27051
0.35846	-7.31662	11.27051
0.36266	-7.36056	11.27051
0.36686	-7.40451	11.27051
0.37131	-7.47043	11.27051
0.37552	-7.51437	11.27051
0.37971	-7.55832	11.27051
0.38390	-7.60226	11.27051
0.38809	-7.60226	11.27051
0.39229	-7.66818	11.27051
0.39648	-7.73410	11.27051
0.40076	-7.77804	11.27051
0.40517	-7.84396	11.27051
0.40936	-7.90988	11.27051
0.41354	-7.90988	11.27051
0.41773	-7.95382	11.27051
0.42191	-8.01974	11.27051
0.42609	-8.06369	11.27051
0.43028	-8.12961	11.27051
0.43458	-8.19552	11.27051
0.43877	-8.19552	11.27051
0.44296	-8.26144	11.27051
0.44714	-8.30539	11.27051
0.45133	-8.39328	11.27051
0.45551	-8.43722	11.27051
0.45970	-8.50314	11.27051
0.46395	-8.56906	11.27051
0.46823	-8.56906	11.27051
0.47244	-8.63498	11.27051
0.47662	-8.70089	11.27051
0.48081	-8.76681	11.27051
0.48499	-8.83273	11.27051
0.48917	-8.83273	11.27051
0.49336	-8.89865	11.27051
0.49765	-8.96457	11.27051
0.50186	-9.05246	11.27051
0.50615	-9.11838	11.27051
0.51033	-9.18429	11.27051
0.51453	-9.25021	11.27051
0.51873	-9.25021	11.27051
0.52291	-9.31613	11.27051
0.52736	-9.40402	11.27051
0.53158	-9.46994	11.27051
0.53577	-9.53586	11.27051
0.53996	-9.62375	11.27051
0.54415	-9.62375	11.27051
0.54834	-9.68966	11.27051
0.55253	-9.75558	11.27051
0.55679	-9.84347	11.27051
0.56108	-9.93136	11.27051
0.56528	-9.99728	11.27051
0.56949	-9.99728	11.27051
0.57369	-10.08517	11.27051
0.57788	-10.15109	11.27051
0.58207	-10.21701	11.27051
0.58626	-10.30490	11.27051
0.59057	-10.39279	11.27051
0.59478	-10.43673	11.27051
0.59898	-10.43673	11.27051
0.60318	-10.52463	11.27051
0.60748	-10.61252	11.27051
0.61168	-10.67843	11.27051
0.61587	-10.76632	11.27051
0.62030	-10.85422	11.27051
0.62452	-10.85422	11.27051
0.62872	-10.92013	11.27051
0.63291	-10.98605	11.27051
0.63710	-11.07394	11.27051
0.64129	-11.13986	11.27051
0.64548	-11.22775	11.27051
0.64975	-11.22775	11.27051
0.65404	-11.31564	11.27051
0.65824	-11.38156	11.27051
0.66243	-11.46945	11.27051
0.66666	-11.55734	11.27051
0.67085	-11.64523	11.27051
0.67505	-11.64523	11.27051
0.67923	-11.71115	11.27051
0.68353	-11.77707	11.27051
0.68775	-11.86496	11.27051
0.69194	-11.95285	11.27051
0.69612	-12.01877	11.27051
0.70033	-12.10666	11.27051
0.70452	-12.10666	11.27051
0.70881	-12.19455	11.27051
0.71327	-12.26047	11.27051
0.71749	-12.34836	11.27051
0.72168	-12.41427	11.27051
0.72587	-12.50216	11.27051
0.73006	-12.59006	11.27051
0.73425	-12.59006	11.27051
0.73844	-12.65597	11.27051
0.74273	-12.74386	11.27051
0.74703	-12.83175	11.27051
0.75123	-12.91964	11.27051
0.75542	-12.91964	11.27051
0.75961	-12.98556	11.27051
0.76380	-13.07345	11.27051
0.76801	-13.13937	11.27051
0.77221	-13.22726	11.27051
0.77651	-13.31515	11.27051
0.78072	-13.38107	11.27051
0.78493	-13.38107	11.27051
0.78912	-13.46896	11.27051
0.79331	-13.55685	11.27051
0.79750	-13.64474	11.27051
0.80169	-13.73263	11.27051
0.80596	-13.79855	11.27051
0.81035	-13.79855	11.27051
0.81454	-13.86447	11.27051
0.81874	-13.95236	11.27051
0.82293	-14.04025	11.27051
0.82711	-14.12814	11.27051
0.83130	-14.19406	11.27051
0.83556	-14.19406	11.27051
0.83984	-14.28195	11.27051
0.84403	-14.36984	11.27051
0.84821	-14.45773	11.27051
0.85240	-14.52365	11.27051
0.85658	-14.58957	11.27051
0.86076	-14.58957	11.27051
0.86495	-14.67746	11.27051
0.86941	-14.76535	11.27051
0.87363	-14.83127	11.27051
0.87782	-14.91916	11.27051
0.88202	-14.98507	11.27051
0.88621	-14.98507	11.27051
0.89040	-15.09494	11.27051
0.89459	-15.13888	11.27051
0.89885	-15.22677	11.27051
0.90314	-15.29269	11.27051
0.90735	-15.38058	11.27051
0.91165	-15.46847	11.27051
0.91584	-15.46847	11.27051
0.92002	-15.53439	11.27051
0.92421	-15.62228	11.27051
0.92840	-15.71017	11.27051
0.93270	-15.77609	11.27051
0.93691	-15.84201	11.27051
0.94110	-15.90793	11.27051
0.94529	-15.90793	11.27051
0.94948	-16.01779	11.27051
0.95367	-16.08371	11.27051
0.95785	-16.14963	11.27051
0.96213	-16.21554	11.27051
0.96641	-16.30343	11.27051
0.97063	-16.30343	11.27051
0.97483	-16.39132	11.27051
0.97902	-16.43527	11.27051
0.98320	-16.52316	11.27051
0.98739	-16.58908	11.27051
0.99164	-16.67697	11.27051
0.99590	-16.67697	11.27051
1.00010	-16.74289	11.27051
1.00429	-16.80881	11.27051
1.00848	-16.87472	11.27051
1.01276	-16.96261	11.27051
1.01695	-17.02853	11.27051
1.02113	-17.09445	11.27051
1.02542	-17.09445	11.27051
1.02963	-17.16037	11.27051
1.03382	-17.24826	11.27051
1.03800	-17.31418	11.27051
1.04219	-17.38009	11.27051
1.04637	-17.44601	11.27051
1.05055	-17.44601	11.27051
1.05483	-17.53390	11.27051
1.05909	-17.57785	11.27051
1.06328	-17.66574	11.27051
1.06749	-17.73166	11.27051
1.07168	-17.73166	11.27051
1.07587	-17.79757	11.27051
1.08005	-17.88547	11.27051
1.08423	-17.92941	11.27051
1.08852	-17.99533	11.27051
1.09273	-18.06125	11.27051
1.09692	-18.06125	11.27051
1.10110	-18.12716	11.27051
1.10530	-18.19308	11.27051
1.10949	-18.23703	11.27051
1.11377	-18.30295	11.27051
1.11818	-18.36886	11.27051
1.12240	-18.43478	11.27051
1.12659	-18.43478	11.27051
1.13075	-18.47873	11.27051
1.13494	-18.54464	11.27051
1.13913	-18.61056	11.27051
1.14332	-18.65451	11.27051
1.14759	-18.72043	11.27051
1.15186	-18.76437	11.27051
1.15607	-18.76437	11.27051
1.16026	-18.83029	11.27051
1.16445	-18.89621	11.27051
1.16866	-18.94015	11.27051
1.17286	-19.00607	11.27051
1.17705	-19.00607	11.27051
1.18135	-19.05002	11.27051
1.18557	-19.11593	11.27051
1.18977	-19.15988	11.27051
1.19396	-19.20382	11.27051
1.19814	-19.26974	11.27051
1.20234	-19.31369	11.27051
1.20652	-19.31369	11.27051
1.21081	-19.37961	11.27051
1.21519	-19.42355	11.27051
1.21939	-19.46750	11.27051
1.22359	-19.51144	11.27051
1.22778	-19.55539	11.27051
1.23197	-19.59933	11.27051
1.23615	-19.59933	11.27051
1.24043	-19.64328	11.27051
1.24470	-19.68722	11.27051
1.24890	-19.75314	11.27051
1.25309	-19.79709	11.27051
1.25728	-19.84103	11.27051
1.26146	-19.84103	11.27051
1.26565	-19.86300	11.27051
1.26984	-19.90695	11.27051
1.27415	-19.95089	11.27051
1.27837	-19.99484	11.27051
1.28256	-20.01681	11.27051
1.28676	-20.01681	11.27051
1.29094	-20.06076	11.27051
1.29513	-20.10470	11.27051
1.29931	-20.14865	11.27051
1.30357	-20.19259	11.27051
1.30783	-20.21457	11.27051
1.31203	-20.21457	11.27051
1.31632	-20.25851	11.27051
1.32050	-20.28048	11.27051
1.32469	-20.32443	11.27051
1.32888	-20.36838	11.27051
1.33307	-20.36838	11.27051
1.33736	-20.36838	11.27051
1.34157	-20.41232	11.27051
1.34576	-20.43429	11.27051
1.34995	-20.47824	11.27051
1.35413	-20.50021	11.27051
1.35832	-20.50021	11.27051
1.36250	-20.52218	11.27051
1.36683	-20.54416	11.27051
1.37109	-20.54416	11.27051
1.37529	-20.56613	11.27051
1.37948	-20.58810	11.27051
1.38367	-20.58810	11.27051
1.38788	-20.58810	11.27051
1.39208	-20.61007	11.27051
1.39627	-20.61007	11.27051
1.40057	-20.63205	11.27051
1.40478	-20.63205	11.27051
1.40897	-20.63205	11.27051
1.41316	-20.63205	11.27051
1.41746	-20.63205	11.27051
1.42165	-20.63205	11.27051
1.42584	-20.63205	11.27051
1.43025	-20.61007	11.27051
1.43448	-20.63205	11.27051
1.43868	-20.61007	11.27051
1.44287	-20.61007	11.27051
1.44706	-20.61007	11.27051
1.45125	-20.58810	11.27051
1.45544	-20.56613	11.27051
1.45970	-20.56613	11.27051
1.46396	-20.54416	11.27051
1.46819	-20.54416	11.27051
1.47239	-20.54416	11.27051
1.47658	-20.52218	11.27051
1.48077	-20.47824	11.27051
1.48495	-20.47824	11.27051
1.48914	-20.45627	11.27051
1.49343	-20.43429	11.27051
1.49764	-20.43429	11.27051
1.50184	-20.41232	11.27051
1.50603	-20.39035	11.27051
1.51022	-20.34640	11.27051
1.51441	-20.32443	11.27051
1.51872	-20.30246	11.27051
1.52315	-20.30246	11.27051
1.52737	-20.25851	11.27051
1.53157	-20.23654	11.27051
1.53576	-20.21457	11.27051
1.53995	-20.19259	11.27051
1.54414	-20.17062	11.27051
1.54833	-20.12668	11.27051
1.55259	-20.12668	11.27051
1.55686	-20.10470	11.27051
1.56107	-20.06076	11.27051
1.56526	-20.03879	11.27051
1.56947	-19.99484	11.27051
1.57368	-19.99484	11.27051
1.57787	-19.95089	11.27051
1.58206	-19.95089	11.27051
1.58637	-19.90695	11.27051
1.59060	-19.86300	11.27051
1.59476	-19.84103	11.27051
1.59895	-19.84103	11.27051
1.60314	-19.79709	11.27051
1.60733	-19.77511	11.27051
1.61152	-19.73117	11.27051
1.61578	-19.68722	11.27051
1.62015	-19.66525	11.27051
1.62435	-19.62131	11.27051
1.62854	-19.62131	11.27051
1.63273	-19.57736	11.27051
1.63692	-19.53341	11.27051
1.64111	-19.51144	11.27051
1.64530	-19.46750	11.27051
1.64959	-19.42355	11.27051
1.65380	-19.42355	11.27051
1.65798	-19.40158	11.27051
1.66217	-19.35763	11.27051
1.66635	-19.31369	11.27051
1.67055	-19.26974	11.27051
1.67475	-19.24777	11.27051
1.67918	-19.18185	11.27051
1.68340	-19.18185	11.27051
1.68759	-19.15988	11.27051
1.69178	-19.11593	11.27051
1.69597	-19.07199	11.27051
1.70016	-19.02804	11.27051
1.70435	-18.98410	11.27051
1.70861	-18.98410	11.27051
1.71290	-18.96213	11.27051
1.71712	-18.89621	11.27051
1.72143	-18.85226	11.27051
1.72562	-18.83029	11.27051
1.72981	-18.78634	11.27051
1.73400	-18.78634	11.27051
1.73819	-18.74240	11.27051
1.74248	-18.69845	11.27051
1.74670	-18.65451	11.27051
1.75090	-18.61056	11.27051
1.75509	-18.56662	11.27051
1.75928	-18.52267	11.27051
1.76347	-18.52267	11.27051
1.76767	-18.47873	11.27051
1.77209	-18.43478	11.27051
1.77631	-18.39084	11.27051
1.78051	-18.34689	11.27051
1.78471	-18.30295	11.27051
1.78890	-18.25900	11.27051
1.79309	-18.25900	11.27051
1.79727	-18.21506	11.27051
1.80152	-18.17111	11.27051
1.80578	-18.12716	11.27051
1.80998	-18.08322	11.27051
1.81417	-18.08322	11.27051
1.81835	-18.03927	11.27051
1.82266	-17.99533	11.27051
1.82684	-17.92941	11.27051
1.83102	-17.90744	11.27051
1.83530	-17.84152	11.27051
1.83951	-17.84152	11.27051
1.84370	-17.79757	11.27051
1.84788	-17.75363	11.27051
1.85207	-17.70968	11.27051
1.85625	-17.66574	11.27051
1.86044	-17.62179	11.27051
1.86469	-17.62179	11.27051
1.86896	-17.57785	11.27051
1.87316	-17.53390	11.27051
1.87736	-17.48996	11.27051
1.88154	-17.44601	11.27051
1.88573	-17.40207	11.27051
1.88991	-17.40207	11.27051
1.89410	-17.35812	11.27051
1.89839	-17.29220	11.27051
1.90260	-17.24826	11.27051
1.90675	-17.20431	11.27051
1.91094	-17.16037	11.27051
1.91512	-17.13839	11.27051
1.91930	-17.13839	11.27051
1.92359	-17.07248	11.27051
1.92800	-17.02853	11.27051
1.93222	-16.98459	11.27051
1.93641	-16.94064	11.27051
1.94060	-16.89670	11.27051
1.94479	-16.89670	11.27051
1.94898	-16.85275	11.27051
1.95316	-16.80881	11.27051
1.95743	-16.76486	11.27051
1.96170	-16.72091	11.27051
1.96590	-16.65500	11.27051
1.97012	-16.63302	11.27051
1.97432	-16.63302	11.27051
1.97851	-16.58908	11.27051
1.98272	-16.52316	11.27051
1.98691	-16.47922	11.27051
1.99121	-16.43527	11.27051
1.99543	-16.43527	11.27051
1.99962	-16.39132	11.27051
2.00381	-16.36935	11.27051
2.00800	-16.30343	11.27051
2.01219	-16.28146	11.27051
2.01638	-16.21554	11.27051
2.02066	-16.17160	11.27051
2.02503	-16.17160	11.27051
2.02922	-16.14963	11.27051
2.03342	-16.08371	11.27051
2.03761	-16.03976	11.27051
2.04180	-15.99582	11.27051
2.04599	-15.95187	11.27051
2.05018	-15.90793	11.27051
2.05446	-15.90793	11.27051
2.05868	-15.86398	11.27051
2.06287	-15.84201	11.27051
2.06706	-15.79806	11.27051
2.07126	-15.75412	11.27051
2.07544	-15.75412	11.27051
2.07963	-15.68820	11.27051
2.08404	-15.64425	11.27051
2.08826	-15.60031	11.27051
2.09246	-15.55636	11.27051
2.09665	-15.53439	11.27051
2.10084	-15.53439	11.27051
2.10503	-15.49045	11.27051
2.10922	-15.44650	11.27051
2.11348	-15.40256	11.27051
2.11775	-15.35861	11.27051
2.12196	-15.31466	11.27051
2.12627	-15.31466	11.27051
2.13046	-15.27072	11.27051
2.13467	-15.22677	11.27051
2.13886	-15.18283	11.27051
2.14305	-15.16086	11.27051
2.14734	-15.09494	11.27051
2.15155	-15.07297	11.27051
2.15575	-15.07297	11.27051
2.15994	-15.02902	11.27051
2.16413	-14.98507	11.27051
2.16834	-14.94113	11.27051
2.17254	-14.91916	11.27051
2.17695	-14.87521	11.27051
2.18118	-14.83127	11.27051
2.18538	-14.83127	11.27051
2.18958	-14.78732	11.27051
2.19376	-14.74338	11.27051
2.19795	-14.69943	11.27051
2.20213	-14.65548	11.27051
2.20639	-14.65548	11.27051
2.21066	-14.63351	11.27051
2.21487	-14.58957	11.27051
2.21906	-14.56759	11.27051
2.22325	-14.52365	11.27051
2.22756	-14.47970	11.27051
2.23174	-14.43576	11.27051
2.23593	-14.43576	11.27051
2.24022	-14.41379	11.27051
2.24443	-14.36984	11.27051
2.24863	-14.32589	11.27051
2.25282	-14.28195	11.27051
2.25700	-14.25998	11.27051
2.26118	-14.21603	11.27051
2.26537	-14.21603	11.27051
2.26966	-14.19406	11.27051
2.27394	-14.15011	11.27051
2.27814	-14.12814	11.27051
2.28234	-14.08420	11.27051
2.28654	-14.04025	11.27051
2.29074	-14.04025	11.27051
2.29493	-14.01828	11.27051
2.29913	-13.97433	11.27051
2.30343	-13.95236	11.27051
2.30764	-13.93039	11.27051
2.31183	-13.88644	11.27051
2.31601	-13.88644	11.27051
2.32020	-13.86447	11.27051
2.32438	-13.82052	11.27051
2.32868	-13.77658	11.27051
2.33311	-13.75461	11.27051
2.33733	-13.73263	11.27051
2.34152	-13.73263	11.27051
2.34571	-13.68869	11.27051
2.34990	-13.66672	11.27051
2.35408	-13.62277	11.27051
2.35827	-13.60080	11.27051
2.36252	-13.55685	11.27051
2.36680	-13.55685	11.27051
2.37103	-13.53488	11.27051
2.37522	-13.51291	11.27051
2.37941	-13.46896	11.27051
2.38360	-13.44699	11.27051
2.38778	-13.42502	11.27051
2.39197	-13.40304	11.27051
2.39625	-13.40304	11.27051
2.40047	-13.35910	11.27051
2.40466	-13.33713	11.27051
2.40885	-13.31515	11.27051
2.41304	-13.29318	11.27051
2.41722	-13.29318	11.27051
2.42141	-13.27121	11.27051
2.42566	-13.22726	11.27051
2.43004	-13.20529	11.27051
2.43423	-13.18332	11.27051
2.43842	-13.18332	11.27051
2.44262	-13.13937	11.27051
2.44681	-13.13937	11.27051
2.45099	-13.11740	11.27051
2.45518	-13.09543	11.27051
2.45947	-13.07345	11.27051
2.46367	-13.05148	11.27051
2.46786	-13.02951	11.27051
2.47207	-13.00754	11.27051
2.47626	-13.00754	11.27051
2.48046	-13.00754	11.27051
2.48466	-12.96359	11.27051
2.48893	-12.96359	11.27051
2.49318	-12.94162	11.27051
2.49738	-12.94162	11.27051
2.50157	-12.91964	11.27051
2.50576	-12.89767	11.27051
2.50994	-12.87570	11.27051
2.51413	-12.87570	11.27051
2.51831	-12.85373	11.27051
2.52260	-12.83175	11.27051
2.52677	-12.83175	11.27051
2.53107	-12.80978	11.27051
2.53526	-12.80978	11.27051
2.53944	-12.78781	11.27051
2.54363	-12.76584	11.27051
2.54781	-12.76584	11.27051
2.55224	-12.76584	11.27051
2.55645	-12.74386	11.27051
2.56064	-12.74386	11.27051
2.56482	-12.72189	11.27051
2.56903	-12.72189	11.27051
2.57322	-12.69992	11.27051
2.57742	-12.67795	11.27051
2.58169	-12.67795	11.27051
2.58596	-12.67795	11.27051
2.59016	-12.65597	11.27051
2.59435	-12.65597	11.27051
2.59854	-12.65597	11.27051
2.60273	-12.65597	11.27051
2.60692	-12.65597	11.27051
2.61110	-12.63400	11.27051
2.61539	-12.61203	11.27051
2.61960	-12.61203	11.27051
2.62379	-12.61203	11.27051
2.62798	-12.61203	11.27051
2.63227	-12.61203	11.27051
2.63645	-12.59006	11.27051
2.64064	-12.59006	11.27051
2.64489	-12.59006	11.27051
2.64915	-12.59006	11.27051
2.65335	-12.59006	11.27051
2.65754	-12.59006	11.27051
2.66172	-12.56808	11.27051
2.66591	-12.56808	11.27051
2.67011	-12.56808	11.27051
2.67430	-12.54611	11.27051
2.67860	-12.56808	11.27051
2.68278	-12.54611	11.27051
2.68696	-12.54611	11.27051
2.69115	-12.54611	11.27051
2.69533	-12.56808	11.27051
2.69952	-12.54611	11.27051
2.70370	-12.56808	11.27051
2.70796	-12.56808	11.27051
2.71221	-12.54611	11.27051
2.71641	-12.54611	11.27051
2.72061	-12.54611	11.27051
2.72479	-12.54611	11.27051
2.72898	-12.56808	11.27051
2.73327	-12.54611	11.27051
2.73745	-12.54611	11.27051
2.74175	-12.56808	11.27051
2.74596	-12.54611	11.27051
2.75015	-12.56808	11.27051
2.75434	-12.56808	11.27051
2.75853	-12.54611	11.27051
2.76272	-12.54611	11.27051
2.76690	-12.56808	11.27051
2.77119	-12.56808	11.27051
2.77546	-12.59006	11.27051
2.77966	-12.56808	11.27051
2.78385	-12.59006	11.27051
2.78803	-12.59006	11.27051
2.79222	-12.59006	11.27051
2.79640	-12.59006	11.27051
2.80058	-12.61203	11.27051
2.80487	-12.59006	11.27051
2.80908	-12.61203	11.27051
2.81326	-12.63400	11.27051
2.81745	-12.63400	11.27051
2.82163	-12.61203	11.27051
2.82582	-12.63400	11.27051
2.83000	-12.63400	11.27051
2.83437	-12.65597	11.27051
2.83863	-12.65597	11.27051
2.84283	-12.65597	11.27051
2.84702	-12.67795	11.27051
2.85121	-12.67795	11.27051
2.85539	-12.67795	11.27051
2.85958	-12.69992	11.27051
2.86376	-12.69992	11.27051
2.86805	-12.69992	11.27051
2.87228	-12.72189	11.27051
2.87647	-12.72189	11.27051
2.88066	-12.74386	11.27051
2.88485	-12.76584	11.27051
2.88903	-12.76584	11.27051
2.89322	-12.76584	11.27051
2.89763	-12.78781	11.27051
2.90186	-12.78781	11.27051
2.90605	-12.80978	11.27051
2.91024	-12.83175	11.27051
2.91443	-12.83175	11.27051
2.91862	-12.83175	11.27051
2.92281	-12.85373	11.27051
2.92708	-12.85373	11.27051
2.93135	-12.89767	11.27051
2.93566	-12.89767	11.27051
2.93984	-12.91964	11.27051
2.94403	-12.91964	11.27051
2.94821	-12.91964	11.27051
2.95240	-12.94162	11.27051
2.95658	-12.96359	11.27051
2.96087	-12.96359	11.27051
2.96510	-12.98556	11.27051
2.96931	-12.98556	11.27051
2.97350	-13.00754	11.27051
2.97770	-13.02951	11.27051
2.98188	-13.05148	11.27051
2.98607	-13.05148	11.27051
2.99032	-13.07345	11.27051
2.99458	-13.09543	11.27051
2.99876	-13.09543	11.27051
3.00295	-13.11740	11.27051
3.00713	-13.13937	11.27051
3.01132	-13.16134	11.27051
3.01550	-13.18332	11.27051
3.01968	-13.18332	11.27051
3.02397	-13.20529	11.27051
3.02818	-13.20529	11.27051
3.03237	-13.22726	11.27051
3.03665	-13.24923	11.27051
3.04084	-13.27121	11.27051
3.04502	-13.29318	11.27051
3.04921	-13.29318	11.27051
3.05362	-13.31515	11.27051
3.05784	-13.33713	11.27051
3.06204	-13.35910	11.27051
3.06624	-13.38107	11.27051
3.07046	-13.40304	11.27051
3.07468	-13.42502	11.27051
3.07889	-13.42502	11.27051
3.08381	-13.44699	11.27051
3.08811	-13.46896	11.27051
3.09232	-13.49093	11.27051
3.09653	-13.51291	11.27051
3.10074	-13.53488	11.27051
3.10494	-13.55685	11.27051
3.10916	-13.55685	11.27051
3.11501	-13.60080	11.27051
3.11930	-13.60080	11.27051
3.12351	-13.64474	11.27051
3.12771	-13.66672	11.27051
3.13190	-13.68869	11.27051
3.13610	-13.71066	11.27051
3.14040	-13.71066	11.27051
3.14467	-13.73263	11.27051
3.14894	-13.75461	11.27051
3.15315	-13.77658	11.27051
3.15734	-13.79855	11.27051
3.16153	-13.82052	11.27051
3.16572	-13.84250	11.27051
3.16991	-13.84250	11.27051
3.17410	-13.88644	11.27051
3.17840	-13.88644	11.27051
3.18262	-13.93039	11.27051
3.18681	-13.95236	11.27051
3.19101	-13.97433	11.27051
3.19519	-13.99631	11.27051
3.19938	-13.99631	11.27051
3.20356	-14.01828	11.27051
3.20781	-14.04025	11.27051
3.21212	-14.06222	11.27051
3.21634	-14.10617	11.27051
3.22054	-14.12814	11.27051
3.22475	-14.12814	11.27051
3.22895	-14.15011	11.27051
3.23313	-14.17209	11.27051
3.23732	-14.19406	11.27051
3.24173	-14.23800	11.27051
3.24594	-14.25998	11.27051
3.25013	-14.28195	11.27051
3.25431	-14.28195	11.27051
3.25850	-14.30392	11.27051
3.26270	-14.32589	11.27051
3.26688	-14.36984	11.27051
3.27129	-14.36984	11.27051
3.27551	-14.36984	11.27051
3.27970	-14.41379	11.27051
3.28388	-14.43576	11.27051
3.28807	-14.45773	11.27051
3.29225	-14.47970	11.27051
3.29643	-14.50168	11.27051
3.30070	-14.52365	11.27051
3.30496	-14.52365	11.27051
3.30916	-14.56759	11.27051
3.31335	-14.58957	11.27051
3.31753	-14.61154	11.27051
3.32172	-14.63351	11.27051
3.32590	-14.65548	11.27051
3.33012	-14.67746	11.27051
3.33442	-14.67746	11.27051
3.33865	-14.72140	11.27051
3.34294	-14.72140	11.27051
3.34713	-14.76535	11.27051
3.35131	-14.78732	11.27051
3.35550	-14.78732	11.27051
3.35968	-14.80929	11.27051
3.36394	-14.83127	11.27051
3.36819	-14.85324	11.27051
3.37238	-14.89718	11.27051
3.37657	-14.89718	11.27051
3.38075	-14.89718	11.27051
3.38494	-14.94113	11.27051
3.38912	-14.96310	11.27051
3.39331	-14.98507	11.27051
3.39759	-15.00705	11.27051
3.40180	-15.02902	11.27051
3.40599	-15.02902	11.27051
3.41017	-15.05099	11.27051
3.41436	-15.07297	11.27051
3.41854	-15.09494	11.27051
3.42273	-15.11691	11.27051
3.42699	-15.13888	11.27051
3.43123	-15.13888	11.27051
3.43543	-15.16086	11.27051
3.43962	-15.18283	11.27051
3.44391	-15.22677	11.27051
3.44811	-15.24875	11.27051
3.45230	-15.27072	11.27051
3.45650	-15.29269	11.27051
3.46080	-15.29269	11.27051
3.46501	-15.29269	11.27051
3.46920	-15.33664	11.27051
3.47339	-15.35861	11.27051
3.47757	-15.38058	11.27051
3.48176	-15.40256	11.27051
3.48594	-15.40256	11.27051
3.49019	-15.42453	11.27051
3.49444	-15.44650	11.27051
3.49865	-15.46847	11.27051
3.50284	-15.49045	11.27051
3.50702	-15.51242	11.27051
3.51121	-15.51242	11.27051
3.51539	-15.51242	11.27051
3.51957	-15.55636	11.27051
3.52387	-15.55636	11.27051
3.52809	-15.60031	11.27051
3.53228	-15.60031	11.27051
3.53648	-15.62228	11.27051
3.54066	-15.62228	11.27051
3.54495	-15.64425	11.27051
3.54913	-15.66623	11.27051
3.55354	-15.68820	11.27051
3.55776	-15.71017	11.27051
3.56194	-15.73214	11.27051
3.56613	-15.73214	11.27051
3.57031	-15.75412	11.27051
3.57449	-15.77609	11.27051
3.57868	-15.79806	11.27051
3.58293	-15.82004	11.27051
3.58720	-15.84201	11.27051
3.59140	-15.84201	11.27051
3.59558	-15.84201	11.27051
3.59977	-15.86398	11.27051
3.60395	-15.88595	11.27051
3.60814	-15.90793	11.27051
3.61232	-15.92990	11.27051
3.61661	-15.92990	11.27051
3.62082	-15.95187	11.27051
3.62500	-15.97384	11.27051
3.62919	-15.99582	11.27051
3.63337	-15.99582	11.27051
3.63756	-16.03976	11.27051
3.64174	-16.03976	11.27051
3.64610	-16.03976	11.27051
3.65034	-16.06173	11.27051
3.65453	-16.08371	11.27051
3.65873	-16.10568	11.27051
3.66291	-16.12765	11.27051
3.66709	-16.12765	11.27051
3.67128	-16.12765	11.27051
3.67546	-16.14963	11.27051
3.67975	-16.17160	11.27051
3.68396	-16.17160	11.27051
3.68815	-16.19357	11.27051
3.69233	-16.19357	11.27051
3.69651	-16.21554	11.27051
3.70070	-16.23752	11.27051
3.70488	-16.25949	11.27051
3.70914	-16.25949	11.27051
3.71337	-16.28146	11.27051
3.71757	-16.30343	11.27051
3.72176	-16.30343	11.27051
3.72594	-16.32541	11.27051
3.73012	-16.32541	11.27051
3.73431	-16.34738	11.27051
3.73850	-16.36935	11.27051
3.74279	-16.36935	11.27051
3.74710	-16.36935	11.27051
3.75129	-16.39132	11.27051
3.75547	-16.41330	11.27051
3.75965	-16.41330	11.27051
3.76384	-16.45724	11.27051
3.76802	-16.45724	11.27051
3.77242	-16.45724	11.27051
3.77663	-16.45724	11.27051
3.78082	-16.47922	11.27051
3.78500	-16.50119	11.27051
3.78918	-16.50119	11.27051
3.79337	-16.52316	11.27051
3.79755	-16.52316	11.27051
3.80179	-16.52316	11.27051
3.80605	-16.54513	11.27051
3.81025	-16.56711	11.27051
3.81444	-16.56711	11.27051
3.81864	-16.58908	11.27051
3.82282	-16.61105	11.27051
3.82700	-16.61105	11.27051
3.83119	-16.61105	11.27051
3.83547	-16.63302	11.27051
3.83968	-16.63302	11.27051
3.84386	-16.65500	11.27051
3.84816	-16.67697	11.27051
3.85234	-16.67697	11.27051
3.85652	-16.67697	11.27051
3.86070	-16.69894	11.27051
3.86495	-16.69894	11.27051
3.86921	-16.69894	11.27051
3.87341	-16.72091	11.27051
3.87759	-16.72091	11.27051
3.88178	-16.72091	11.27051
3.88596	-16.74289	11.27051
3.89015	-16.74289	11.27051
3.89433	-16.76486	11.27051
3.89863	-16.78683	11.27051
3.90284	-16.78683	11.27051
3.90702	-16.78683	11.27051
3.91121	-16.78683	11.27051
3.91539	-16.80881	11.27051
3.91957	-16.80881	11.27051
3.92375	-16.83078	11.27051
3.92800	-16.83078	11.27051
3.93225	-16.83078	11.27051
3.93644	-16.85275	11.27051
3.94063	-16.85275	11.27051
3.94482	-16.87472	11.27051
3.94910	-16.85275	11.27051
3.95329	-16.85275	11.27051
3.95747	-16.87472	11.27051
3.96175	-16.87472	11.27051
3.96596	-16.89670	11.27051
3.97015	-16.89670	11.27051
3.97433	-16.91867	11.27051
3.97851	-16.91867	11.27051
3.98270	-16.91867	11.27051
3.98689	-16.94064	11.27051
3.99114	-16.94064	11.27051
3.99538	-16.94064	11.27051
3.99958	-16.94064	11.27051
4.00376	-16.94064	11.27051
4.00795	-16.96261	11.27051
4.01213	-16.96261	11.27051
4.01631	-16.96261	11.27051
4.02050	-16.96261	11.27051
4.02478	-16.98459	11.27051
4.02899	-16.98459	11.27051
4.03317	-16.98459	11.27051
4.03736	-16.98459	11.27051
4.04154	-17.00656	11.27051
4.04573	-17.00656	11.27051
4.05001	-17.00656	11.27051
4.05440	-17.00656	11.27051
4.05862	-17.02853	11.27051
4.06281	-17.02853	11.27051
4.06700	-17.02853	11.27051
4.07118	-17.02853	11.27051
4.07537	-17.02853	11.27051
4.07955	-17.02853	11.27051
4.08379	-17.05050	11.27051
4.08806	-17.05050	11.27051
4.09226	-17.05050	11.27051
4.09644	-17.05050	11.27051
4.10062	-17.07248	11.27051
4.10481	-17.07248	11.27051
4.10899	-17.07248	11.27051
4.11317	-17.07248	11.27051
4.11757	-17.07248	11.27051
4.12179	-17.07248	11.27051
4.12597	-17.07248	11.27051
4.13016	-17.09445	11.27051
4.13434	-17.09445	11.27051
4.13855	-17.09445	11.27051
4.14276	-17.09445	11.27051
4.14702	-17.09445	11.27051
4.15140	-17.09445	11.27051
4.15560	-17.11642	11.27051
4.15978	-17.09445	11.27051
4.16396	-17.09445	11.27051
4.16815	-17.11642	11.27051
4.17233	-17.11642	11.27051
4.17652	-17.11642	11.27051
4.18080	-17.11642	11.27051
4.18501	-17.11642	11.27051
4.18920	-17.11642	11.27051
4.19338	-17.11642	11.27051
4.19756	-17.11642	11.27051
4.20175	-17.11642	11.27051
4.20593	-17.13839	11.27051
4.21020	-17.11642	11.27051
4.21446	-17.11642	11.27051
4.21867	-17.13839	11.27051
4.22286	-17.13839	11.27051
4.22707	-17.13839	11.27051
4.23127	-17.13839	11.27051
4.23545	-17.13839	11.27051
4.23964	-17.13839	11.27051
4.24393	-17.13839	11.27051
4.24814	-17.13839	11.27051
4.25244	-17.13839	11.27051
4.25662	-17.13839	11.27051
4.26080	-17.13839	11.27051
4.26499	-17.16037	11.27051
4.26917	-17.13839	11.27051
4.27360	-17.13839	11.27051
4.27781	-17.13839	11.27051
4.28200	-17.13839	11.27051
4.28618	-17.13839	11.27051
4.29036	-17.13839	11.27051
4.29455	-17.13839	11.27051
4.29876	-17.13839	11.27051
4.30308	-17.13839	11.27051
4.30737	-17.13839	11.27051
4.31158	-17.13839	11.27051
4.31579	-17.13839	11.27051
4.31999	-17.11642	11.27051
4.32418	-17.11642	11.27051
4.32840	-17.13839	11.27051
4.33259	-17.11642	11.27051
4.33689	-17.13839	11.27051
4.34111	-17.11642	11.27051
4.34530	-17.11642	11.27051
4.34949	-17.11642	11.27051
4.35378	-17.11642	11.27051
4.35797	-17.11642	11.27051
4.36215	-17.11642	11.27051
4.36641	-17.09445	11.27051
4.37067	-17.09445	11.27051
4.37487	-17.09445	11.27051
4.37906	-17.09445	11.27051
4.38325	-17.09445	11.27051
4.38743	-17.07248	11.27051
4.39161	-17.07248	11.27051
4.39580	-17.07248	11.27051
4.40008	-17.07248	11.27051
4.40429	-17.07248	11.27051
4.40847	-17.07248	11.27051
4.41266	-17.07248	11.27051
4.41684	-17.05050	11.27051
4.42103	-17.05050	11.27051
4.42521	-17.05050	11.27051
4.42946	-17.02853	11.27051
4.43370	-17.05050	11.27051
4.43790	-17.02853	11.27051
4.44208	-17.02853	11.27051
4.44628	-17.02853	11.27051
4.45048	-17.00656	11.27051
4.45478	-17.00656	11.27051
4.45897	-17.00656	11.27051
4.46326	-16.98459	11.27051
4.46747	-16.98459	11.27051
4.47166	-16.96261	11.27051
4.47584	-16.96261	11.27051
4.48003	-16.96261	11.27051
4.48421	-16.96261	11.27051
4.48839	-16.94064	11.27051
4.49264	-16.94064	11.27051
4.49689	-16.94064	11.27051
4.50109	-16.91867	11.27051
4.50527	-16.91867	11.27051
4.50946	-16.91867	11.27051
4.51365	-16.89670	11.27051
4.51783	-16.89670	11.27051
4.52201	-16.89670	11.27051
4.52630	-16.89670	11.27051
4.53050	-16.87472	11.27051
4.53470	-16.87472	11.27051
4.53888	-16.87472	11.27051
4.54307	-16.85275	11.27051
4.54725	-16.85275	11.27051
4.55143	-16.83078	11.27051
4.55579	-16.83078	11.27051
4.56002	-16.83078	11.27051
4.56421	-16.83078	11.27051
4.56839	-16.80881	11.27051
4.57258	-16.80881	11.27051
4.57676	-16.78683	11.27051
4.58094	-16.76486	11.27051
4.58513	-16.76486	11.27051
4.58941	-16.76486	11.27051
4.59362	-16.74289	11.27051
4.59781	-16.74289	11.27051
4.60199	-16.74289	11.27051
4.60617	-16.72091	11.27051
4.61036	-16.72091	11.27051
4.61454	-16.72091	11.27051
4.61881	-16.69894	11.27051
4.62305	-16.69894	11.27051
4.62724	-16.67697	11.27051
4.63143	-16.67697	11.27051
4.63561	-16.67697	11.27051
4.63979	-16.65500	11.27051
4.64398	-16.65500	11.27051
4.64816	-16.63302	11.27051
4.65244	-16.61105	11.27051
4.65676	-16.61105	11.27051
4.66094	-16.61105	11.27051
4.66512	-16.61105	11.27051
4.66931	-16.58908	11.27051
4.67349	-16.58908	11.27051
4.67767	-16.56711	11.27051
4.68208	-16.56711	11.27051
4.68631	-16.56711	11.27051
4.69050	-16.54513	11.27051
4.69469	-16.54513	11.27051
4.69888	-16.52316	11.27051
4.70307	-16.50119	11.27051
4.70725	-16.50119	11.27051
4.71154	-16.47922	11.27051
4.71581	-16.47922	11.27051
4.72001	-16.47922	11.27051
4.72420	-16.45724	11.27051
4.72838	-16.45724	11.27051
4.73256	-16.43527	11.27051
4.73675	-16.41330	11.27051
4.74093	-16.41330	11.27051
4.74522	-16.41330	11.27051
4.74944	-16.39132	11.27051
4.75362	-16.39132	11.27051
4.75791	-16.36935	11.27051
4.76209	-16.36935	11.27051
4.76627	-16.36935	11.27051
4.77046	-16.36935	11.27051
4.77472	-16.32541	11.27051
4.77897	-16.32541	11.27051
4.78317	-16.32541	11.27051
4.78736	-16.30343	11.27051
4.79154	-16.28146	11.27051
4.79573	-16.28146	11.27051
4.79991	-16.28146	11.27051
4.80409	-16.25949	11.27051
4.80837	-16.23752	11.27051
4.81258	-16.23752	11.27051
4.81677	-16.21554	11.27051
4.82095	-16.21554	11.27051
4.82513	-16.21554	11.27051
4.82932	-16.19357	11.27051
4.83350	-16.17160	11.27051
4.83775	-16.17160	11.27051
4.84201	-16.14963	11.27051
4.84621	-16.14963	11.27051
4.85040	-16.14963	11.27051
4.85459	-16.12765	11.27051
4.85885	-16.12765	11.27051
4.86303	-16.10568	11.27051
4.86721	-16.08371	11.27051
4.87150	-16.08371	11.27051
4.87573	-16.08371	11.27051
4.87993	-16.06173	11.27051
4.88411	-16.06173	11.27051
4.88830	-16.03976	11.27051
4.89248	-16.01779	11.27051
4.89667	-16.01779	11.27051
4.90108	-16.01779	11.27051
4.90529	-16.01779	11.27051
4.90948	-15.99582	11.27051
4.91366	-15.97384	11.27051
4.91785	-15.97384	11.27051
4.92203	-15.97384	11.27051
4.92621	-15.95187	11.27051
4.93047	-15.95187	11.27051
4.93475	-15.92990	11.27051
4.93895	-15.90793	11.27051
4.94314	-15.88595	11.27051
4.94732	-15.88595	11.27051
4.95151	-15.88595	11.27051
4.95569	-15.88595	11.27051
4.95998	-15.86398	11.27051
4.96426	-15.84201	11.27051
4.96847	-15.84201	11.27051
4.97266	-15.82004	11.27051
4.97684	-15.82004	11.27051
4.98102	-15.84201	11.27051
4.98521	-15.79806	11.27051
4.98939	-15.79806	11.27051
4.99364	-15.79806	11.27051
4.99788	-15.77609	11.27051
5.00208	-15.77609	11.27051
5.00627	-15.75412	11.27051
5.01045	-15.75412	11.27051
5.01464	-15.75412	11.27051
5.01882	-15.73214	11.27051
5.02300	-15.73214	11.27051
5.02729	-15.73214	11.27051
5.03150	-15.71017	11.27051
5.03569	-15.68820	11.27051
5.03987	-15.68820	11.27051
5.04405	-15.66623	11.27051
5.04824	-15.68820	11.27051
5.05243	-15.66623	11.27051
5.05668	-15.66623	11.27051
5.06102	-15.64425	11.27051
5.06522	-15.64425	11.27051
5.06940	-15.62228	11.27051
5.07359	-15.62228	11.27051
5.07777	-15.60031	11.27051
5.08196	-15.60031	11.27051
5.08614	-15.60031	11.27051
5.09043	-15.60031	11.27051
5.09465	-15.57834	11.27051
5.09884	-15.57834	11.27051
5.10302	-15.55636	11.27051
5.10721	-15.55636	11.27051
5.11139	-15.55636	11.27051
5.11557	-15.55636	11.27051
5.11983	-15.53439	11.27051
5.12408	-15.53439	11.27051
5.12827	-15.53439	11.27051
5.13246	-15.53439	11.27051
5.13664	-15.53439	11.27051
5.14082	-15.51242	11.27051
5.14501	-15.51242	11.27051
5.14919	-15.51242	11.27051
5.15348	-15.49045	11.27051
5.15769	-15.49045	11.27051
5.16197	-15.49045	11.27051
5.16616	-15.49045	11.27051
5.17034	-15.49045	11.27051
5.17453	-15.46847	11.27051
5.17872	-15.46847	11.27051
5.18312	-15.46847	11.27051
5.18733	-15.46847	11.27051
5.19152	-15.44650	11.27051
5.19570	-15.44650	11.27051
5.19988	-15.44650	11.27051
5.20407	-15.44650	11.27051
5.20825	-15.42453	11.27051
5.21256	-15.42453	11.27051
5.21684	-15.42453	11.27051
5.22105	-15.42453	11.27051
5.22524	-15.42453	11.27051
5.22945	-15.42453	11.27051
5.23365	-15.42453	11.27051
5.23785	-15.42453	11.27051
5.24204	-15.40256	11.27051
5.24634	-15.40256	11.27051
5.25058	-15.40256	11.27051
5.25476	-15.40256	11.27051
5.25895	-15.40256	11.27051
5.26325	-15.40256	11.27051
5.26744	-15.40256	11.27051
5.27163	-15.40256	11.27051
5.27610	-15.40256	11.27051
5.28039	-15.40256	11.27051
5.28461	-15.40256	11.27051
5.28881	-15.40256	11.27051
5.29300	-15.40256	11.27051
5.29719	-15.38058	11.27051
5.30137	-15.40256	11.27051
5.30564	-15.38058	11.27051
5.30990	-15.40256	11.27051
5.31410	-15.38058	11.27051
5.31829	-15.38058	11.27051
5.32247	-15.40256	11.27051
5.32667	-15.38058	11.27051
5.33088	-15.38058	11.27051
5.33508	-15.38058	11.27051
5.33939	-15.38058	11.27051
5.34360	-15.38058	11.27051
5.34780	-15.38058	11.27051
5.35199	-15.38058	11.27051
5.35617	-15.38058	11.27051
5.36036	-15.40256	11.27051
5.36464	-15.38058	11.27051
5.36906	-15.38058	11.27051
5.37328	-15.38058	11.27051
5.37749	-15.38058	11.27051
5.38168	-15.38058	11.27051
5.38587	-15.40256	11.27051
5.39006	-15.38058	11.27051
5.39424	-15.40256	11.27051
5.39852	-15.38058	11.27051
5.40280	-15.38058	11.27051
5.40700	-15.40256	11.27051
5.41119	-15.40256	11.27051
5.41538	-15.40256	11.27051
5.41956	-15.40256	11.27051
5.42375	-15.40256	11.27051
5.42793	-15.40256	11.27051
5.43222	-15.40256	11.27051
5.43642	-15.40256	11.27051
5.44061	-15.40256	11.27051
5.44480	-15.40256	11.27051
5.44900	-15.40256	11.27051
5.45319	-15.40256	11.27051
5.45738	-15.42453	11.27051
5.46163	-15.42453	11.27051
5.46599	-15.42453	11.27051
5.47018	-15.42453	11.27051
5.47437	-15.42453	11.27051
5.47857	-15.42453	11.27051
5.48276	-15.42453	11.27051
5.48694	-15.42453	11.27051
5.49114	-15.44650	11.27051
5.49543	-15.44650	11.27051
5.49964	-15.44650	11.27051
5.50383	-15.44650	11.27051
5.50802	-15.44650	11.27051
5.51221	-15.46847	11.27051
5.51640	-15.46847	11.27051
5.52058	-15.46847	11.27051
5.52498	-15.46847	11.27051
5.52920	-15.46847	11.27051
5.53339	-15.46847	11.27051
5.53757	-15.49045	11.27051
5.54176	-15.49045	11.27051
5.54594	-15.49045	11.27051
5.55012	-15.51242	11.27051
5.55439	-15.51242	11.27051
5.55867	-15.51242	11.27051
5.56288	-15.51242	11.27051
5.56717	-15.51242	11.27051
5.57135	-15.53439	11.27051
5.57556	-15.53439	11.27051
5.57975	-15.53439	11.27051
5.58394	-15.55636	11.27051
5.58823	-15.55636	11.27051
5.59244	-15.55636	11.27051
5.59663	-15.55636	11.27051
5.60081	-15.57834	11.27051
5.60500	-15.57834	11.27051
5.60918	-15.57834	11.27051
5.61337	-15.60031	11.27051
5.61762	-15.60031	11.27051
5.62189	-15.62228	11.27051
5.62609	-15.62228	11.27051
5.63028	-15.62228	11.27051
5.63446	-15.62228	11.27051
5.63866	-15.62228	11.27051
5.64284	-15.64425	11.27051
5.64703	-15.64425	11.27051
5.65131	-15.64425	11.27051
5.65552	-15.66623	11.27051
5.65971	-15.66623	11.27051
5.66389	-15.66623	11.27051
5.66818	-15.68820	11.27051
5.67237	-15.71017	11.27051
5.67657	-15.71017	11.27051
5.68100	-15.71017	11.27051
5.68522	-15.71017	11.27051
5.68942	-15.73214	11.27051
5.69360	-15.73214	11.27051
5.69779	-15.73214	11.27051
5.70198	-15.75412	11.27051
5.70617	-15.77609	11.27051
5.71043	-15.77609	11.27051
5.71471	-15.75412	11.27051
5.71891	-15.77609	11.27051
5.72310	-15.77609	11.27051
5.72728	-15.79806	11.27051
5.73147	-15.79806	11.27051
5.73565	-15.82004	11.27051
5.73984	-15.82004	11.27051
5.74412	-15.82004	11.27051
5.74834	-15.82004	11.27051
5.75252	-15.84201	11.27051
5.75672	-15.84201	11.27051
5.76090	-15.86398	11.27051
5.76509	-15.86398	11.27051
5.76937	-15.88595	11.27051
5.77363	-15.88595	11.27051
5.77790	-15.88595	11.27051
5.78211	-15.88595	11.27051
5.78630	-15.90793	11.27051
5.79048	-15.90793	11.27051
5.79469	-15.90793	11.27051
5.79887	-15.92990	11.27051
5.80306	-15.92990	11.27051
5.80735	-15.95187	11.27051
5.81155	-15.95187	11.27051
5.81574	-15.97384	11.27051
5.81992	-15.97384	11.27051
5.82412	-15.97384	11.27051
5.82830	-15.97384	11.27051
5.83249	-15.99582	11.27051
5.83674	-16.01779	11.27051
5.84099	-16.01779	11.27051
5.84518	-16.01779	11.27051
5.84937	-16.01779	11.27051
5.85355	-16.03976	11.27051
5.85775	-16.03976	11.27051
5.86193	-16.06173	11.27051
5.86612	-16.06173	11.27051
5.87050	-16.06173	11.27051
5.87472	-16.06173	11.27051
5.87892	-16.08371	11.27051
5.88311	-16.10568	11.27051
5.88729	-16.10568	11.27051
5.89149	-16.10568	11.27051
5.89568	-16.12765	11.27051
5.90009	-16.12765	11.27051
5.90430	-16.12765	11.27051
5.90849	-16.14963	11.27051
5.91267	-16.14963	11.27051
5.91686	-16.17160	11.27051
5.92104	-16.17160	11.27051
5.92523	-16.17160	11.27051
5.92947	-16.19357	11.27051
5.93373	-16.19357	11.27051
5.93794	-16.21554	11.27051
5.94212	-16.21554	11.27051
5.94630	-16.21554	11.27051
5.95049	-16.21554	11.27051
5.95468	-16.23752	11.27051
5.95886	-16.23752	11.27051
5.96315	-16.25949	11.27051
5.96736	-16.25949	11.27051
5.97165	-16.28146	11.27051
5.97586	-16.28146	11.27051
5.98005	-16.30343	11.27051
5.98424	-16.30343	11.27051
5.98842	-16.30343	11.27051
5.99267	-16.32541	11.27051
5.99692	-16.32541	11.27051
6.00111	-16.32541	11.27051
6.00530	-16.34738	11.27051
6.00951	-16.34738	11.27051
6.01370	-16.34738	11.27051
6.01789	-16.36935	11.27051
6.02207	-16.39132	11.27051
6.02636	-16.39132	11.27051
6.03057	-16.39132	11.27051
6.03476	-16.41330	11.27051
6.03895	-16.41330	11.27051
6.04313	-16.41330	11.27051
6.04732	-16.43527	11.27051
6.05150	-16.43527	11.27051
6.05576	-16.43527	11.27051
6.06003	-16.45724	11.27051
6.06422	-16.45724	11.27051
6.06841	-16.45724	11.27051
6.07270	-16.47922	11.27051
6.07690	-16.50119	11.27051
6.08110	-16.50119	11.27051
6.08529	-16.50119	11.27051
6.08959	-16.50119	11.27051
6.09380	-16.52316	11.27051
6.09798	-16.52316	11.27051
6.10217	-16.54513	11.27051
6.10636	-16.54513	11.27051
6.11054	-16.54513	11.27051
6.11473	-16.54513	11.27051
6.11899	-16.56711	11.27051
6.12325	-16.56711	11.27051
6.12744	-16.58908	11.27051
6.13163	-16.58908	11.27051
6.13581	-16.58908	11.27051
6.14000	-16.61105	11.27051
6.14418	-16.61105	11.27051
6.14836	-16.61105	11.27051
6.15266	-16.63302	11.27051
6.15686	-16.63302	11.27051
6.16105	-16.63302	11.27051
6.16524	-16.65500	11.27051
6.16942	-16.65500	11.27051
6.17371	-16.67697	11.27051
6.17791	-16.67697	11.27051
6.18236	-16.67697	11.27051
6.18658	-16.67697	11.27051
6.19076	-16.69894	11.27051
6.19495	-16.69894	11.27051
6.19913	-16.72091	11.27051
6.20332	-16.74289	11.27051
6.20750	-16.74289	11.27051
6.21181	-16.74289	11.27051
6.21609	-16.76486	11.27051
6.22029	-16.74289	11.27051
6.22447	-16.76486	11.27051
6.22869	-16.76486	11.27051
6.23288	-16.78683	11.27051
6.23707	-16.78683	11.27051
6.24125	-16.78683	11.27051
6.24554	-16.78683	11.27051
6.24976	-16.80881	11.27051
6.25394	-16.80881	11.27051
6.25813	-16.83078	11.27051
6.26232	-16.83078	11.27051
6.26651	-16.83078	11.27051
6.27070	-16.83078	11.27051
6.27506	-16.85275	11.27051
6.27932	-16.85275	11.27051
6.28352	-16.87472	11.27051
6.28772	-16.87472	11.27051
6.29191	-16.87472	11.27051
6.29611	-16.89670	11.27051
6.30030	-16.89670	11.27051
6.30449	-16.89670	11.27051
6.30882	-16.91867	11.27051
6.31303	-16.91867	11.27051
6.31723	-16.94064	11.27051
6.32142	-16.94064	11.27051
6.32561	-16.94064	11.27051
6.32982	-16.94064	11.27051
6.33402	-16.96261	11.27051
6.33847	-16.96261	11.27051
6.34269	-16.96261	11.27051
6.34688	-16.98459	11.27051
6.35107	-16.98459	11.27051
6.35525	-16.98459	11.27051
6.35944	-17.00656	11.27051
6.36362	-17.00656	11.27051
6.36789	-17.00656	11.27051
6.37217	-17.00656	11.27051
6.37650	-17.00656	11.27051
6.38070	-17.02853	11.27051
6.38489	-17.02853	11.27051
6.38908	-17.02853	11.27051
6.39327	-17.05050	11.27051
6.39745	-17.05050	11.27051
6.40175	-17.05050	11.27051
6.40595	-17.07248	11.27051
6.41014	-17.07248	11.27051
6.41432	-17.09445	11.27051
6.41851	-17.09445	11.27051
6.42270	-17.09445	11.27051
6.42689	-17.09445	11.27051
6.43114	-17.09445	11.27051
6.43540	-17.09445	11.27051
6.43959	-17.11642	11.27051
6.44377	-17.11642	11.27051
6.44800	-17.11642	11.27051
6.45220	-17.13839	11.27051
6.45639	-17.13839	11.27051
6.46058	-17.13839	11.27051
6.46488	-17.13839	11.27051
6.46908	-17.16037	11.27051
6.47327	-17.16037	11.27051
6.47759	-17.16037	11.27051
6.48178	-17.16037	11.27051
6.48597	-17.16037	11.27051
6.49016	-17.18234	11.27051
6.49460	-17.18234	11.27051
6.49878	-17.18234	11.27051
6.50296	-17.18234	11.27051
6.50720	-17.18234	11.27051
6.51140	-17.18234	11.27051
6.51558	-17.20431	11.27051
6.51977	-17.20431	11.27051
6.52402	-17.20431	11.27051
6.52830	-17.20431	11.27051
6.53254	-17.20431	11.27051
6.53673	-17.20431	11.27051
6.54092	-17.20431	11.27051
6.54511	-17.22629	11.27051
6.54929	-17.20431	11.27051
6.55348	-17.20431	11.27051
6.55777	-17.22629	11.27051
6.56198	-17.22629	11.27051
6.56616	-17.22629	11.27051
6.57035	-17.22629	11.27051
6.57453	-17.22629	11.27051
6.57886	-17.24826	11.27051
6.58305	-17.24826	11.27051
6.58750	-17.24826	11.27051
6.59173	-17.24826	11.27051
6.59592	-17.27023	11.27051
6.60010	-17.24826	11.27051
6.60429	-17.27023	11.27051
6.60847	-17.24826	11.27051
6.61265	-17.24826	11.27051
6.61692	-17.27023	11.27051
6.62120	-17.24826	11.27051
6.62540	-17.27023	11.27051
6.62958	-17.27023	11.27051
6.63376	-17.27023	11.27051
6.63795	-17.27023	11.27051
6.64213	-17.27023	11.27051
6.64632	-17.27023	11.27051
6.65064	-17.27023	11.27051
6.65484	-17.27023	11.27051
6.65903	-17.27023	11.27051
6.66321	-17.27023	11.27051
6.66740	-17.27023	11.27051
6.67158	-17.27023	11.27051
6.67577	-17.27023	11.27051
6.68015	-17.29220	11.27051
6.68441	-17.29220	11.27051
6.68860	-17.29220	11.27051
6.69279	-17.27023	11.27051
6.69697	-17.29220	11.27051
6.70115	-17.29220	11.27051
6.70534	-17.27023	11.27051
6.70952	-17.29220	11.27051
6.71382	-17.29220	11.27051
6.71802	-17.29220	11.27051
6.72221	-17.29220	11.27051
6.72639	-17.29220	11.27051
6.73057	-17.29220	11.27051
6.73474	-17.29220	11.27051
6.73893	-17.29220	11.27051
6.74318	-17.29220	11.27051
6.74745	-17.29220	11.27051
6.75164	-17.29220	11.27051
6.75582	-17.29220	11.27051
6.76001	-17.29220	11.27051
6.76421	-17.29220	11.27051
6.76839	-17.29220	11.27051
6.77258	-17.29220	11.27051
6.77690	-17.29220	11.27051
6.78123	-17.29220	11.27051
6.78542	-17.29220	11.27051
6.78961	-17.29220	11.27051
6.79379	-17.29220	11.27051
6.79798	-17.29220	11.27051
6.80217	-17.27023	11.27051
6.80656	-17.29220	11.27051
6.81077	-17.29220	11.27051
6.81495	-17.29220	11.27051
6.81914	-17.29220	11.27051
6.82332	-17.29220	11.27051
6.82750	-17.29220	11.27051
6.83169	-17.29220	11.27051
6.83594	-17.29220	11.27051
6.84021	-17.29220	11.27051
6.84441	-17.29220	11.27051
6.84860	-17.29220	11.27051
6.85278	-17.29220	11.27051
6.85697	-17.29220	11.27051
6.86115	-17.27023	11.27051
6.86534	-17.29220	11.27051
6.86964	-17.29220	11.27051
6.87387	-17.29220	11.27051
6.87808	-17.27023	11.27051
6.88238	-17.29220	11.27051
6.88656	-17.27023	11.27051
6.89075	-17.29220	11.27051
6.89494	-17.27023	11.27051
6.89918	-17.27023	11.27051
6.90347	-17.27023	11.27051
6.90767	-17.27023	11.27051
6.91185	-17.27023	11.27051
6.91604	-17.27023	11.27051
6.92022	-17.27023	11.27051
6.92441	-17.27023	11.27051
6.92860	-17.27023	11.27051
6.93290	-17.27023	11.27051
6.93711	-17.27023	11.27051
6.94130	-17.27023	11.27051
6.94548	-17.27023	11.27051
6.94967	-17.27023	11.27051
6.95385	-17.27023	11.27051
6.95803	-17.24826	11.27051
6.96229	-17.27023	11.27051
6.96656	-17.24826	11.27051
6.97076	-17.27023	11.27051
6.97495	-17.27023	11.27051
6.97915	-17.24826	11.27051
6.98345	-17.27023	11.27051
6.98763	-17.27023	11.27051
6.99182	-17.24826	11.27051
6.99611	-17.27023	11.27051
7.00032	-17.24826	11.27051
7.00450	-17.24826	11.27051
7.00871	-17.27023	11.27051
7.01290	-17.24826	11.27051
7.01709	-17.24826	11.27051
7.02127	-17.24826	11.27051
7.02571	-17.24826	11.27051
7.02993	-17.24826	11.27051
7.03411	-17.24826	11.27051
7.03830	-17.24826	11.27051
7.04249	-17.24826	11.27051
7.04668	-17.24826	11.27051
7.05087	-17.22629	11.27051
7.05513	-17.22629	11.27051
7.05942	-17.24826	11.27051
7.06361	-17.22629	11.27051
7.06824	-17.22629	11.27051
7.07244	-17.24826	11.27051
7.07663	-17.22629	11.27051
7.08082	-17.22629	11.27051
7.08511	-17.22629	11.27051
7.08941	-17.22629	11.27051
7.09362	-17.22629	11.27051
7.09781	-17.22629	11.27051
7.10200	-17.22629	11.27051
7.10618	-17.22629	11.27051
7.11037	-17.22629	11.27051
7.11455	-17.20431	11.27051
7.11900	-17.22629	11.27051
7.12320	-17.20431	11.27051
7.12739	-17.22629	11.27051
7.13158	-17.20431	11.27051
7.13577	-17.20431	11.27051
7.13996	-17.20431	11.27051
7.14414	-17.20431	11.27051
7.14839	-17.20431	11.27051
7.15267	-17.20431	11.27051
7.15686	-17.20431	11.27051
7.16105	-17.20431	11.27051
7.16523	-17.20431	11.27051
7.16941	-17.20431	11.27051
7.17360	-17.20431	11.27051
7.17780	-17.20431	11.27051
7.18212	-17.18234	11.27051
7.18643	-17.18234	11.27051
7.19063	-17.18234	11.27051
7.19482	-17.18234	11.27051
7.19901	-17.18234	11.27051
7.20319	-17.18234	11.27051
7.20738	-17.18234	11.27051
7.21165	-17.18234	11.27051
7.21593	-17.18234	11.27051
7.22012	-17.16037	11.27051
7.22431	-17.18234	11.27051
7.22852	-17.16037	11.27051
7.23272	-17.16037	11.27051
7.23690	-17.16037	11.27051
7.24109	-17.16037	11.27051
7.24539	-17.16037	11.27051
7.24959	-17.16037	11.27051
7.25378	-17.16037	11.27051
7.25797	-17.16037	11.27051
7.26215	-17.16037	11.27051
7.26633	-17.16037	11.27051
7.27052	-17.13839	11.27051
7.27479	-17.13839	11.27051
7.27907	-17.13839	11.27051
7.28327	-17.13839	11.27051
7.28756	-17.13839	11.27051
7.29175	-17.13839	11.27051
7.29593	-17.13839	11.27051
7.30012	-17.11642	11.27051
7.30430	-17.11642	11.27051
7.30860	-17.11642	11.27051
7.31280	-17.11642	11.27051
7.31699	-17.11642	11.27051
7.32118	-17.11642	11.27051
7.32536	-17.11642	11.27051
7.32958	-17.09445	11.27051
7.33377	-17.09445	11.27051
7.33820	-17.09445	11.27051
7.34240	-17.09445	11.27051
7.34659	-17.07248	11.27051
7.35075	-17.07248	11.27051
7.35493	-17.07248	11.27051
7.35912	-17.07248	11.27051
7.36330	-17.07248	11.27051
7.36760	-17.07248	11.27051
7.37188	-17.05050	11.27051
7.37607	-17.05050	11.27051
7.38028	-17.05050	11.27051
7.38447	-17.05050	11.27051
7.38877	-17.05050	11.27051
7.39296	-17.05050	11.27051
7.39714	-17.02853	11.27051
7.40144	-17.02853	11.27051
7.40565	-17.02853	11.27051
7.40983	-17.00656	11.27051
7.41402	-17.00656	11.27051
7.41820	-17.00656	11.27051
7.42239	-16.98459	11.27051
7.42657	-17.00656	11.27051
7.43083	-17.00656	11.27051
7.43509	-16.98459	11.27051
7.43929	-16.98459	11.27051
7.44348	-16.98459	11.27051
7.44766	-16.98459	11.27051
7.45187	-16.96261	11.27051
7.45606	-16.96261	11.27051
7.46026	-16.94064	11.27051
7.46456	-16.94064	11.27051
7.46877	-16.94064	11.27051
7.47296	-16.91867	11.27051
7.47715	-16.91867	11.27051
7.48135	-16.91867	11.27051
7.48554	-16.91867	11.27051
7.48984	-16.89670	11.27051
7.49426	-16.89670	11.27051
7.49847	-16.89670	11.27051
7.50267	-16.89670	11.27051
7.50686	-16.87472	11.27051
7.51106	-16.87472	11.27051
7.51525	-16.85275	11.27051
7.51944	-16.85275	11.27051
7.52370	-16.85275	11.27051
7.52799	-16.85275	11.27051
7.53218	-16.85275	11.27051
7.53637	-16.83078	11.27051
7.54055	-16.83078	11.27051
7.54474	-16.83078	11.27051
7.54892	-16.80881	11.27051
7.55311	-16.80881	11.27051
7.55741	-16.80881	11.27051
7.56162	-16.80881	11.27051
7.56580	-16.78683	11.27051
7.57000	-16.78683	11.27051
7.57418	-16.76486	11.27051
7.57839	-16.76486	11.27051
7.58258	-16.76486	11.27051
7.58684	-16.74289	11.27051
7.59122	-16.74289	11.27051
7.59541	-16.74289	11.27051
7.59960	-16.72091	11.27051
7.60379	-16.72091	11.27051
7.60797	-16.69894	11.27051
7.61216	-16.69894	11.27051
7.61641	-16.69894	11.27051
7.62068	-16.69894	11.27051
7.62488	-16.67697	11.27051
7.62906	-16.67697	11.27051
7.63325	-16.65500	11.27051
7.63743	-16.65500	11.27051
7.64162	-16.65500	11.27051
7.64580	-16.63302	11.27051
7.65010	-16.63302	11.27051
7.65431	-16.63302	11.27051
7.65850	-16.58908	11.27051
7.66269	-16.58908	11.27051
7.66687	-16.61105	11.27051
7.67106	-16.58908	11.27051
7.67524	-16.58908	11.27051
7.67952	-16.56711	11.27051
7.68380	-16.54513	11.27051
7.68800	-16.54513	11.27051
7.69229	-16.54513	11.27051
7.69647	-16.54513	11.27051
7.70066	-16.54513	11.27051
7.70484	-16.52316	11.27051
7.70903	-16.50119	11.27051
7.71333	-16.50119	11.27051
7.71753	-16.50119	11.27051
7.72172	-16.47922	11.27051
7.72590	-16.47922	11.27051
7.73009	-16.47922	11.27051
7.73427	-16.45724	11.27051
7.73846	-16.45724	11.27051
7.74272	-16.45724	11.27051
7.74698	-16.41330	11.27051
7.75118	-16.43527	11.27051
7.75536	-16.41330	11.27051
7.75955	-16.41330	11.27051
7.76373	-16.39132	11.27051
7.76792	-16.39132	11.27051
7.77210	-16.39132	11.27051
7.77640	-16.36935	11.27051
7.78062	-16.34738	11.27051
7.78482	-16.34738	11.27051
7.78900	-16.32541	11.27051
7.79329	-16.32541	11.27051
7.79748	-16.32541	11.27051
7.80166	-16.30343	11.27051
7.80609	-16.30343	11.27051
7.81030	-16.30343	11.27051
7.81449	-16.28146	11.27051
7.81868	-16.28146	11.27051
7.82287	-16.28146	11.27051
7.82705	-16.25949	11.27051
7.83124	-16.23752	11.27051
7.83551	-16.23752	11.27051
7.83980	-16.21554	11.27051
7.84400	-16.21554	11.27051
7.84819	-16.21554	11.27051
7.85237	-16.21554	11.27051
7.85655	-16.19357	11.27051
7.86074	-16.17160	11.27051
7.86492	-16.17160	11.27051
7.86922	-16.14963	11.27051
7.87342	-16.14963	11.27051
7.87762	-16.14963	11.27051
7.88182	-16.12765	11.27051
7.88602	-16.12765	11.27051
7.89021	-16.10568	11.27051
7.89450	-16.10568	11.27051
7.89898	-16.08371	11.27051
7.90320	-16.08371	11.27051
7.90738	-16.08371	11.27051
7.91157	-16.08371	11.27051
7.91576	-16.08371	11.27051
7.91994	-16.06173	11.27051
7.92413	-16.03976	11.27051
7.92840	-16.03976	11.27051
7.93268	-16.03976	11.27051
7.93688	-16.01779	11.27051
7.94107	-16.01779	11.27051
7.94525	-16.01779	11.27051
7.94944	-15.99582	11.27051
7.95362	-15.97384	11.27051
7.95781	-15.97384	11.27051
7.96210	-15.97384	11.27051
7.96631	-15.97384	11.27051
7.97050	-15.95187	11.27051
7.97469	-15.97384	11.27051
7.97889	-15.97384	11.27051
7.98309	-15.92990	11.27051
7.98727	-15.92990	11.27051
7.99153	-15.92990	11.27051
7.99590	-15.92990	11.27051
8.00009	-15.90793	11.27051
8.00428	-15.90793	11.27051
8.00852	-15.90793	11.27051
8.01272	-15.90793	11.27051
8.01690	-15.88595	11.27051
8.02109	-15.88595	11.27051
8.02538	-15.88595	11.27051
8.02960	-15.86398	11.27051
8.03379	-15.86398	11.27051
8.03798	-15.86398	11.27051
8.04216	-15.86398	11.27051
8.04636	-15.86398	11.27051
8.05055	-15.84201	11.27051
8.05482	-15.84201	11.27051
8.05908	-15.82004	11.27051
8.06328	-15.82004	11.27051
8.06747	-15.82004	11.27051
8.07166	-15.82004	11.27051
8.07585	-15.79806	11.27051
8.08005	-15.79806	11.27051
8.08424	-15.79806	11.27051
8.08854	-15.79806	11.27051
8.09274	-15.77609	11.27051
8.09704	-15.77609	11.27051
8.10122	-15.77609	11.27051
8.10540	-15.77609	11.27051
8.10959	-15.77609	11.27051
8.11378	-15.77609	11.27051
8.11821	-15.75412	11.27051
8.12242	-15.75412	11.27051
8.12662	-15.75412	11.27051
8.13080	-15.75412	11.27051
8.13499	-15.75412	11.27051
8.13918	-15.75412	11.27051
8.14336	-15.75412	11.27051
8.14762	-15.73214	11.27051
8.15190	-15.73214	11.27051
8.15610	-15.75412	11.27051
8.16028	-15.71017	11.27051
8.16447	-15.71017	11.27051
8.16865	-15.73214	11.27051
8.17285	-15.73214	11.27051
8.17703	-15.73214	11.27051
8.18135	-15.73214	11.27051
8.18556	-15.71017	11.27051
8.18975	-15.73214	11.27051
8.19393	-15.73214	11.27051
8.19822	-15.71017	11.27051
8.20241	-15.71017	11.27051
8.20659	-15.71017	11.27051
8.21085	-15.71017	11.27051
8.21513	-15.73214	11.27051
8.21932	-15.73214	11.27051
8.22351	-15.71017	11.27051
8.22769	-15.71017	11.27051
8.23190	-15.71017	11.27051
8.23610	-15.73214	11.27051
8.24029	-15.73214	11.27051
8.24460	-15.73214	11.27051
8.24881	-15.73214	11.27051
8.25300	-15.73214	11.27051
8.25719	-15.73214	11.27051
8.26140	-15.73214	11.27051
8.26559	-15.73214	11.27051
8.26980	-15.73214	11.27051
8.27428	-15.73214	11.27051
8.27850	-15.73214	11.27051
8.28271	-15.73214	11.27051
8.28691	-15.73214	11.27051
8.29110	-15.73214	11.27051
8.29529	-15.73214	11.27051
8.29958	-15.73214	11.27051
8.30384	-15.73214	11.27051
8.30811	-15.75412	11.27051
8.31231	-15.75412	11.27051
8.31650	-15.75412	11.27051
8.32068	-15.75412	11.27051
8.32486	-15.75412	11.27051
8.32908	-15.75412	11.27051
8.33327	-15.77609	11.27051
8.33758	-15.77609	11.27051
8.34178	-15.77609	11.27051
8.34596	-15.77609	11.27051
8.35015	-15.77609	11.27051
8.35433	-15.77609	11.27051
8.35851	-15.77609	11.27051
8.36271	-15.77609	11.27051
8.36697	-15.79806	11.27051
8.37124	-15.79806	11.27051
8.37543	-15.79806	11.27051
8.37963	-15.79806	11.27051
8.38383	-15.79806	11.27051
8.38802	-15.79806	11.27051
8.39220	-15.82004	11.27051
8.39639	-15.82004	11.27051
8.40080	-15.82004	11.27051
8.40500	-15.82004	11.27051
8.40918	-15.82004	11.27051
8.41336	-15.84201	11.27051
8.41755	-15.84201	11.27051
8.42173	-15.84201	11.27051
8.42592	-15.86398	11.27051
8.43031	-15.86398	11.27051
8.43452	-15.86398	11.27051
8.43871	-15.86398	11.27051
8.44290	-15.86398	11.27051
8.44708	-15.88595	11.27051
8.45128	-15.88595	11.27051
8.45547	-15.88595	11.27051
8.45974	-15.88595	11.27051
8.46403	-15.88595	11.27051
8.46823	-15.90793	11.27051
8.47242	-15.90793	11.27051
8.47661	-15.92990	11.27051
8.48081	-15.92990	11.27051
8.48500	-15.92990	11.27051
8.48919	-15.92990	11.27051
8.49351	-15.92990	11.27051
8.49771	-15.95187	11.27051
8.50200	-15.95187	11.27051
8.50619	-15.95187	11.27051
8.51039	-15.95187	11.27051
8.51458	-15.97384	11.27051
8.51875	-15.97384	11.27051
8.52301	-15.97384	11.27051
8.52728	-15.97384	11.27051
8.53149	-15.99582	11.27051
8.53568	-15.99582	11.27051
8.53986	-15.99582	11.27051
8.54404	-15.99582	11.27051
8.54823	-16.01779	11.27051
8.55241	-16.01779	11.27051
8.55671	-16.01779	11.27051
8.56092	-16.01779	11.27051
8.56511	-16.01779	11.27051
8.56929	-16.03976	11.27051
8.57347	-16.03976	11.27051
8.57767	-16.03976	11.27051
8.58187	-16.06173	11.27051
8.58613	-16.06173	11.27051
8.59040	-16.06173	11.27051
8.59462	-16.06173	11.27051
8.59881	-16.06173	11.27051
8.60310	-16.08371	11.27051
8.60728	-16.08371	11.27051
8.61146	-16.08371	11.27051
8.61565	-16.08371	11.27051
8.61994	-16.10568	11.27051
8.62414	-16.10568	11.27051
8.62832	-16.10568	11.27051
8.63250	-16.10568	11.27051
8.63668	-16.10568	11.27051
8.64087	-16.10568	11.27051
8.64505	-16.12765	11.27051
8.64930	-16.12765	11.27051
8.65357	-16.12765	11.27051
8.65776	-16.12765	11.27051
8.66194	-16.12765	11.27051
8.66613	-16.12765	11.27051
8.67031	-16.14963	11.27051
8.67449	-16.14963	11.27051
8.67870	-16.14963	11.27051
8.68301	-16.14963	11.27051
8.68723	-16.17160	11.27051
8.69142	-16.17160	11.27051
8.69561	-16.17160	11.27051
8.69980	-16.17160	11.27051
8.70408	-16.17160	11.27051
8.70827	-16.17160	11.27051
8.71263	-16.19357	11.27051
8.71684	-16.19357	11.27051
8.72103	-16.19357	11.27051
8.72521	-16.19357	11.27051
8.72940	-16.19357	11.27051
8.73358	-16.19357	11.27051
8.73776	-16.21554	11.27051
8.74202	-16.21554	11.27051
8.74630	-16.19357	11.27051
8.75052	-16.21554	11.27051
8.75473	-16.21554	11.27051
8.75894	-16.21554	11.27051
8.76314	-16.21554	11.27051
8.76735	-16.21554	11.27051
8.77155	-16.21554	11.27051
8.77593	-16.21554	11.27051
8.78018	-16.23752	11.27051
8.78438	-16.21554	11.27051
8.78860	-16.23752	11.27051
8.79280	-16.23752	11.27051
8.79700	-16.23752	11.27051
8.80121	-16.23752	11.27051
8.80590	-16.23752	11.27051
8.81012	-16.23752	11.27051
8.81431	-16.23752	11.27051
8.81850	-16.23752	11.27051
8.82270	-16.23752	11.27051
8.82689	-16.23752	11.27051
8.83107	-16.23752	11.27051
8.83533	-16.23752	11.27051
8.83960	-16.23752	11.27051
8.84379	-16.23752	11.27051
8.84798	-16.23752	11.27051
8.85216	-16.23752	11.27051
8.85635	-16.25949	11.27051
8.86053	-16.25949	11.27051
8.86471	-16.23752	11.27051
8.86901	-16.25949	11.27051
8.87321	-16.25949	11.27051
8.87740	-16.25949	11.27051
8.88160	-16.25949	11.27051
8.88579	-16.25949	11.27051
8.88999	-16.25949	11.27051
8.89418	-16.25949	11.27051
8.89859	-16.25949	11.27051
8.90285	-16.25949	11.27051
8.90723	-16.25949	11.27051
8.91146	-16.25949	11.27051
8.91567	-16.25949	11.27051
8.91988	-16.25949	11.27051
8.92409	-16.25949	11.27051
8.92890	-16.25949	11.27051
8.93322	-16.25949	11.27051
8.93745	-16.25949	11.27051
8.94166	-16.25949	11.27051
8.94586	-16.25949	11.27051
8.95005	-16.25949	11.27051
8.95425	-16.25949	11.27051
8.95852	-16.25949	11.27051
8.96283	-16.25949	11.27051
8.96704	-16.25949	11.27051
8.97124	-16.25949	11.27051
8.97544	-16.25949	11.27051
8.97963	-16.25949	11.27051
8.98382	-16.25949	11.27051
8.98801	-16.23752	11.27051
8.99233	-16.23752	11.27051
8.99655	-16.25949	11.27051
9.00075	-16.25949	11.27051
9.00494	-16.23752	11.27051
9.00924	-16.23752	11.27051
9.01344	-16.23752	11.27051
9.01763	-16.23752	11.27051
9.02189	-16.23752	11.27051
9.02617	-16.25949	11.27051
9.03036	-16.23752	11.27051
9.03455	-16.23752	11.27051
9.03875	-16.23752	11.27051
9.04293	-16.23752	11.27051
9.04712	-16.23752	11.27051
9.05130	-16.23752	11.27051
9.05560	-16.23752	11.27051
9.05980	-16.23752	11.27051
9.06399	-16.23752	11.27051
9.06817	-16.23752	11.27051
9.07236	-16.23752	11.27051
9.07654	-16.23752	11.27051
9.08073	-16.23752	11.27051
9.08498	-16.23752	11.27051
9.08925	-16.23752	11.27051
9.09345	-16.23752	11.27051
9.09764	-16.23752	11.27051
9.10182	-16.23752	11.27051
9.10601	-16.23752	11.27051
9.11030	-16.21554	11.27051
9.11448	-16.23752	11.27051
9.11880	-16.23752	11.27051
9.12300	-16.21554	11.27051
9.12719	-16.21554	11.27051
9.13137	-16.23752	11.27051
9.13556	-16.23752	11.27051
9.13974	-16.21554	11.27051
9.14392	-16.23752	11.27051
9.14818	-16.23752	11.27051
9.15245	-16.21554	11.27051
9.15665	-16.21554	11.27051
9.16083	-16.21554	11.27051
9.16502	-16.21554	11.27051
9.16920	-16.21554	11.27051
9.17339	-16.21554	11.27051
9.17757	-16.21554	11.27051
9.18189	-16.21554	11.27051
9.18609	-16.21554	11.27051
9.19028	-16.21554	11.27051
9.19447	-16.21554	11.27051
9.19866	-16.21554	11.27051
9.20285	-16.21554	11.27051
9.20703	-16.21554	11.27051
9.21141	-16.21554	11.27051
9.21568	-16.21554	11.27051
9.21987	-16.21554	11.27051
9.22405	-16.21554	11.27051
9.22824	-16.21554	11.27051
9.23243	-16.19357	11.27051
9.23662	-16.21554	11.27051
9.24080	-16.21554	11.27051
9.24511	-16.21554	11.27051
9.24932	-16.19357	11.27051
9.25351	-16.19357	11.27051
9.25770	-16.19357	11.27051
9.26188	-16.21554	11.27051
9.26606	-16.19357	11.27051
9.27025	-16.21554	11.27051
9.27451	-16.21554	11.27051
9.27880	-16.21554	11.27051
9.28300	-16.19357	11.27051
9.28719	-16.21554	11.27051
9.29138	-16.21554	11.27051
9.29556	-16.19357	11.27051
9.29975	-16.21554	11.27051
9.30393	-16.21554	11.27051
9.30824	-16.21554	11.27051
9.31254	-16.21554	11.27051
9.31673	-16.21554	11.27051
9.32092	-16.21554	11.27051
9.32511	-16.21554	11.27051
9.32930	-16.21554	11.27051
9.33349	-16.21554	11.27051
9.33792	-16.21554	11.27051
9.34214	-16.21554	11.27051
9.34634	-16.21554	11.27051
9.35053	-16.21554	11.27051
9.35472	-16.19357	11.27051
9.35891	-16.19357	11.27051
9.36310	-16.21554	11.27051
9.36735	-16.21554	11.27051
9.37164	-16.21554	11.27051
9.37583	-16.21554	11.27051
9.38002	-16.21554	11.27051
9.38421	-16.21554	11.27051
9.38840	-16.21554	11.27051
9.39258	-16.21554	11.27051
9.39677	-16.21554	11.27051
9.40107	-16.21554	11.27051
9.40528	-16.21554	11.27051
9.40947	-16.21554	11.27051
9.41376	-16.21554	11.27051
9.41795	-16.21554	11.27051
9.42214	-16.21554	11.27051
9.42632	-16.21554	11.27051
9.43058	-16.21554	11.27051
9.43483	-16.21554	11.27051
9.43903	-16.21554	11.27051
9.44321	-16.21554	11.27051
9.44740	-16.21554	11.27051
9.45158	-16.21554	11.27051
9.45577	-16.21554	11.27051
9.45996	-16.21554	11.27051
9.46426	-16.21554	11.27051
9.46846	-16.21554	11.27051
9.47265	-16.21554	11.27051
9.47683	-16.21554	11.27051
9.48102	-16.21554	11.27051
9.48520	-16.23752	11.27051
9.48939	-16.23752	11.27051
9.49364	-16.23752	11.27051
9.49791	-16.23752	11.27051
9.50211	-16.23752	11.27051
9.50630	-16.23752	11.27051
9.51048	-16.23752	11.27051
9.51478	-16.23752	11.27051
9.51897	-16.23752	11.27051
9.52315	-16.23752	11.27051
9.52745	-16.23752	11.27051
9.53166	-16.25949	11.27051
9.53585	-16.23752	11.27051
9.54004	-16.23752	11.27051
9.54422	-16.23752	11.27051
9.54841	-16.23752	11.27051
9.55259	-16.23752	11.27051
9.55685	-16.25949	11.27051
9.56111	-16.23752	11.27051
9.56531	-16.23752	11.27051
9.56950	-16.25949	11.27051
9.57368	-16.25949	11.27051
9.57786	-16.23752	11.27051
9.58205	-16.25949	11.27051
9.58623	-16.25949	11.27051
9.59054	-16.25949	11.27051
9.59475	-16.25949	11.27051
9.59894	-16.25949	11.27051
9.60312	-16.25949	11.27051
9.60731	-16.25949	11.27051
9.61149	-16.25949	11.27051
9.61578	-16.28146	11.27051
9.62022	-16.28146	11.27051
9.62442	-16.25949	11.27051
9.62861	-16.25949	11.27051
9.63280	-16.25949	11.27051
9.63698	-16.28146	11.27051
9.64116	-16.25949	11.27051
9.64535	-16.25949	11.27051
9.64960	-16.25949	11.27051
9.65389	-16.25949	11.27051
9.65808	-16.28146	11.27051
9.66227	-16.28146	11.27051
9.66646	-16.25949	11.27051
9.67065	-16.25949	11.27051
9.67484	-16.28146	11.27051
9.67902	-16.28146	11.27051
9.68332	-16.28146	11.27051
9.68753	-16.28146	11.27051
9.69172	-16.28146	11.27051
9.69591	-16.28146	11.27051
9.70009	-16.28146	11.27051
9.70428	-16.28146	11.27051
9.70846	-16.28146	11.27051
9.71271	-16.28146	11.27051
9.71707	-16.28146	11.27051
9.72127	-16.28146	11.27051
9.72546	-16.28146	11.27051
9.72964	-16.28146	11.27051
9.73383	-16.28146	11.27051
9.73801	-16.28146	11.27051
9.74220	-16.28146	11.27051
9.74649	-16.28146	11.27051
9.75072	-16.28146	11.27051
9.75491	-16.25949	11.27051
9.75909	-16.28146	11.27051
9.76328	-16.25949	11.27051
9.76746	-16.25949	11.27051
9.77164	-16.25949	11.27051
9.77588	-16.25949	11.27051
9.78014	-16.28146	11.27051
9.78434	-16.28146	11.27051
9.78853	-16.28146	11.27051
9.79271	-16.25949	11.27051
9.79690	-16.25949	11.27051
9.80108	-16.25949	11.27051
9.80526	-16.28146	11.27051
9.80956	-16.28146	11.27051
9.81378	-16.25949	11.27051
9.81808	-16.25949	11.27051
9.82227	-16.25949	11.27051
9.82645	-16.25949	11.27051
9.83064	-16.28146	11.27051
9.83482	-16.25949	11.27051
9.83925	-16.25949	11.27051
9.84347	-16.25949	11.27051
9.84766	-16.25949	11.27051
9.85185	-16.25949	11.27051
9.85605	-16.25949	11.27051
9.86023	-16.25949	11.27051
9.86442	-16.25949	11.27051
9.86869	-16.25949	11.27051
9.87297	-16.25949	11.27051
9.87718	-16.25949	11.27051
9.88138	-16.25949	11.27051
9.88557	-16.25949	11.27051
9.88976	-16.23752	11.27051
9.89395	-16.23752	11.27051
9.89814	-16.23752	11.27051
9.90244	-16.23752	11.27051
9.90667	-16.23752	11.27051
9.91086	-16.23752	11.27051
9.91506	-16.23752	11.27051
9.91936	-16.23752	11.27051
9.92355	-16.23752	11.27051
9.92774	-16.23752	11.27051
9.93200	-16.23752	11.27051
9.93625	-16.23752	11.27051
9.94046	-16.23752	11.27051
9.94465	-16.23752	11.27051
9.94884	-16.21554	11.27051
9.95303	-16.21554	11.27051
9.95722	-16.21554	11.27051
9.96141	-16.21554	11.27051
9.96571	-16.21554	11.27051
9.96993	-16.21554	11.27051
9.97412	-16.21554	11.27051
9.97831	-16.21554	11.27051
9.98251	-16.21554	11.27051
9.98671	-16.21554	11.27051
9.99089	-16.21554	11.27051
9.99532	-16.21554	11.27051
9.99955	-16.19357	11.27051
10.00374	-16.19357	11.27051
10.00793	-16.21554	11.27051
10.01212	-16.19357	11.27051
10.01631	-16.19357	11.27051
10.02062	-16.19357	11.27051
10.02489	-16.19357	11.27051
10.02917	-16.19357	11.27051
10.03338	-16.19357	11.27051
10.03757	-16.19357	11.27051
10.04176	-16.19357	11.27051
10.04596	-16.19357	11.27051
10.05015	-16.19357	11.27051
10.05434	-16.19357	11.27051
10.05865	-16.19357	11.27051
10.06288	-16.19357	11.27051
10.06707	-16.19357	11.27051
10.07126	-16.19357	11.27051
10.07545	-16.19357	11.27051
10.07964	-16.19357	11.27051
10.08383	-16.19357	11.27051
10.08810	-16.19357	11.27051
10.09236	-16.19357	11.27051
10.09657	-16.17160	11.27051
10.10077	-16.17160	11.27051
10.10496	-16.19357	11.27051
10.10915	-16.19357	11.27051
10.11334	-16.19357	11.27051
10.11753	-16.19357	11.27051
10.12194	-16.19357	11.27051
10.12615	-16.19357	11.27051
10.13034	-16.19357	11.27051
10.13453	-16.19357	11.27051
10.13872	-16.19357	11.27051
10.14290	-16.19357	11.27051
10.14709	-16.19357	11.27051
10.15154	-16.19357	11.27051
10.15576	-16.19357	11.27051
10.15996	-16.19357	11.27051
10.16414	-16.19357	11.27051
10.16833	-16.19357	11.27051
10.17252	-16.19357	11.27051
10.17670	-16.19357	11.27051
10.18097	-16.19357	11.27051
10.18526	-16.19357	11.27051
10.18948	-16.19357	11.27051
10.19367	-16.19357	11.27051
10.19786	-16.19357	11.27051
10.20204	-16.19357	11.27051
10.20623	-16.19357	11.27051
10.21042	-16.19357	11.27051
10.21474	-16.19357	11.27051
10.21896	-16.19357	11.27051
10.22329	-16.19357	11.27051
10.22751	-16.19357	11.27051
10.23171	-16.19357	11.27051
10.23591	-16.19357	11.27051
10.24010	-16.19357	11.27051
10.24446	-16.19357	11.27051
10.24870	-16.19357	11.27051
10.25290	-16.19357	11.27051
10.25709	-16.19357	11.27051
10.26127	-16.19357	11.27051
10.26546	-16.19357	11.27051
10.26964	-16.19357	11.27051
10.27391	-16.19357	11.27051
10.27819	-16.21554	11.27051
10.28242	-16.21554	11.27051
10.28663	-16.19357	11.27051
10.29082	-16.21554	11.27051
10.29500	-16.21554	11.27051
10.29919	-16.21554	11.27051
10.30338	-16.21554	11.27051
10.30769	-16.21554	11.27051
10.31190	-16.21554	11.27051
10.31610	-16.21554	11.27051
10.32029	-16.21554	11.27051
10.32458	-16.21554	11.27051
10.32876	-16.21554	11.27051
10.33295	-16.21554	11.27051
10.33721	-16.21554	11.27051
10.34146	-16.21554	11.27051
10.34566	-16.21554	11.27051
10.34985	-16.21554	11.27051
10.35404	-16.21554	11.27051
10.35822	-16.21554	11.27051
10.36240	-16.21554	11.27051
10.36659	-16.21554	11.27051
10.37085	-16.23752	11.27051
10.37506	-16.21554	11.27051
10.37925	-16.21554	11.27051
10.38346	-16.21554	11.27051
10.38765	-16.23752	11.27051
10.39184	-16.21554	11.27051
10.39603	-16.23752	11.27051
10.40030	-16.23752	11.27051
10.40456	-16.23752	11.27051
10.40877	-16.23752	11.27051
10.41296	-16.23752	11.27051
10.41715	-16.21554	11.27051
10.42133	-16.23752	11.27051
10.42562	-16.23752	11.27051
10.42981	-16.23752	11.27051
10.43410	-16.23752	11.27051
10.43832	-16.23752	11.27051
10.44251	-16.23752	11.27051
10.44671	-16.23752	11.27051
10.45090	-16.23752	11.27051
10.45509	-16.23752	11.27051
10.45927	-16.23752	11.27051
10.46371	-16.23752	11.27051
10.46794	-16.23752	11.27051
10.47213	-16.23752	11.27051
10.47632	-16.23752	11.27051
10.48051	-16.23752	11.27051
10.48472	-16.23752	11.27051
10.48892	-16.23752	11.27051
10.49319	-16.23752	11.27051
10.49747	-16.23752	11.27051
10.50168	-16.23752	11.27051
10.50587	-16.23752	11.27051
10.51007	-16.23752	11.27051
10.51426	-16.25949	11.27051
10.51845	-16.25949	11.27051
10.52265	-16.23752	11.27051
10.52707	-16.25949	11.27051
10.53130	-16.25949	11.27051
10.53549	-16.23752	11.27051
10.53969	-16.25949	11.27051
10.54387	-16.25949	11.27051
10.54807	-16.23752	11.27051
10.55226	-16.25949	11.27051
10.55668	-16.25949	11.27051
10.56090	-16.25949	11.27051
10.56510	-16.23752	11.27051
10.56929	-16.23752	11.27051
10.57348	-16.25949	11.27051
10.57767	-16.25949	11.27051
10.58188	-16.23752	11.27051
10.58617	-16.23752	11.27051
10.59044	-16.23752	11.27051
10.59465	-16.23752	11.27051
10.59884	-16.23752	11.27051
10.60303	-16.25949	11.27051
10.60721	-16.25949	11.27051
10.61140	-16.25949	11.27051
10.61560	-16.23752	11.27051
10.61989	-16.25949	11.27051
10.62411	-16.25949	11.27051
10.62840	-16.25949	11.27051
10.63259	-16.23752	11.27051
10.63677	-16.25949	11.27051
10.64096	-16.23752	11.27051
10.64514	-16.25949	11.27051
10.64957	-16.25949	11.27051
10.65380	-16.23752	11.27051
10.65800	-16.25949	11.27051
10.66219	-16.25949	11.27051
10.66638	-16.23752	11.27051
10.67058	-16.25949	11.27051
10.67475	-16.23752	11.27051
10.67903	-16.23752	11.27051
10.68332	-16.23752	11.27051
10.68754	-16.23752	11.27051
10.69173	-16.25949	11.27051
10.69593	-16.25949	11.27051
10.70012	-16.25949	11.27051
10.70431	-16.25949	11.27051
10.70850	-16.25949	11.27051
10.71280	-16.23752	11.27051
10.71702	-16.23752	11.27051
10.72121	-16.23752	11.27051
10.72540	-16.23752	11.27051
10.72971	-16.23752	11.27051
10.73390	-16.25949	11.27051
10.73808	-16.23752	11.27051
10.74249	-16.25949	11.27051
10.74672	-16.23752	11.27051
10.75092	-16.23752	11.27051
10.75511	-16.23752	11.27051
10.75930	-16.23752	11.27051
10.76349	-16.23752	11.27051
10.76768	-16.23752	11.27051
10.77194	-16.23752	11.27051
10.77621	-16.23752	11.27051
10.78041	-16.23752	11.27051
10.78462	-16.23752	11.27051
10.78881	-16.23752	11.27051
10.79300	-16.23752	11.27051
10.79719	-16.23752	11.27051
10.80137	-16.23752	11.27051
10.80567	-16.23752	11.27051
10.80988	-16.23752	11.27051
10.81408	-16.23752	11.27051
10.81827	-16.23752	11.27051
10.82245	-16.23752	11.27051
10.82665	-16.23752	11.27051
10.83094	-16.23752	11.27051
10.83535	-16.23752	11.27051
10.83957	-16.23752	11.27051
10.84376	-16.23752	11.27051
10.84795	-16.23752	11.27051
10.85214	-16.23752	11.27051
10.85634	-16.23752	11.27051
10.86052	-16.23752	11.27051
10.86480	-16.23752	11.27051
10.86907	-16.21554	11.27051
10.87328	-16.23752	11.27051
10.87747	-16.21554	11.27051
10.88166	-16.23752	11.27051
10.88587	-16.23752	11.27051
10.89006	-16.23752	11.27051
10.89426	-16.23752	11.27051
10.89856	-16.23752	11.27051
10.90279	-16.21554	11.27051
10.90698	-16.23752	11.27051
10.91117	-16.23752	11.27051
10.91537	-16.23752	11.27051
10.91956	-16.21554	11.27051
10.92375	-16.23752	11.27051
10.92802	-16.21554	11.27051
10.93238	-16.23752	11.27051
10.93658	-16.21554	11.27051
10.94077	-16.23752	11.27051
10.94496	-16.23752	11.27051
10.94915	-16.21554	11.27051
10.95334	-16.21554	11.27051
10.95759	-16.21554	11.27051
10.96186	-16.21554	11.27051
10.96607	-16.23752	11.27051
10.97026	-16.23752	11.27051
10.97444	-16.21554	11.27051
10.97864	-16.21554	11.27051
10.98284	-16.21554	11.27051
10.98703	-16.21554	11.27051
10.99133	-16.21554	11.27051
10.99554	-16.21554	11.27051
10.99973	-16.21554	11.27051
11.00392	-16.21554	11.27051
11.00810	-16.21554	11.27051
11.01229	-16.21554	11.27051
11.01648	-16.21554	11.27051
11.02074	-16.21554	11.27051
11.02502	-16.21554	11.27051
11.02922	-16.21554	11.27051
11.03351	-16.21554	11.27051
11.03769	-16.21554	11.27051
11.04187	-16.21554	11.27051
11.04606	-16.21554	11.27051
11.05024	-16.21554	11.27051
11.05455	-16.23752	11.27051
11.05876	-16.21554	11.27051
11.06294	-16.21554	11.27051
11.06713	-16.21554	11.27051
11.07132	-16.21554	11.27051
11.07551	-16.23752	11.27051
11.07969	-16.21554	11.27051
11.08397	-16.21554	11.27051
11.08825	-16.23752	11.27051
11.09244	-16.21554	11.27051
11.09663	-16.21554	11.27051
11.10082	-16.21554	11.27051
11.10500	-16.21554	11.27051
11.10918	-16.23752	11.27051
11.11336	-16.23752	11.27051
11.11767	-16.23752	11.27051
11.12187	-16.23752	11.27051
11.12605	-16.23752	11.27051
11.13024	-16.23752	11.27051
11.13452	-16.23752	11.27051
11.13871	-16.23752	11.27051
11.14290	-16.23752	11.27051
11.14731	-16.23752	11.27051
11.15152	-16.23752	11.27051
11.15570	-16.23752	11.27051
11.15989	-16.23752	11.27051
11.16407	-16.23752	11.27051
11.16825	-16.25949	11.27051
11.17244	-16.25949	11.27051
11.17668	-16.25949	11.27051
11.18097	-16.25949	11.27051
11.18519	-16.25949	11.27051
11.18938	-16.25949	11.27051
11.19357	-16.25949	11.27051
11.19776	-16.25949	11.27051
11.20194	-16.28146	11.27051
11.20612	-16.28146	11.27051
11.21043	-16.25949	11.27051
11.21466	-16.25949	11.27051
11.21885	-16.28146	11.27051
11.22304	-16.28146	11.27051
11.22722	-16.28146	11.27051
11.23141	-16.28146	11.27051
11.23570	-16.28146	11.27051
11.23996	-16.28146	11.27051
11.24423	-16.28146	11.27051
11.24844	-16.30343	11.27051
11.25262	-16.30343	11.27051
11.25681	-16.30343	11.27051
11.26099	-16.30343	11.27051
11.26518	-16.30343	11.27051
11.26936	-16.30343	11.27051
11.27367	-16.30343	11.27051
11.27788	-16.32541	11.27051
11.28207	-16.32541	11.27051
11.28628	-16.32541	11.27051
11.29047	-16.32541	11.27051
11.29467	-16.32541	11.27051
11.29886	-16.34738	11.27051
11.30325	-16.34738	11.27051
11.30749	-16.34738	11.27051
11.31168	-16.34738	11.27051
11.31587	-16.34738	11.27051
11.32005	-16.36935	11.27051
11.32424	-16.36935	11.27051
11.32842	-16.36935	11.27051
11.33271	-16.36935	11.27051
11.33710	-16.36935	11.27051
11.34129	-16.39132	11.27051
11.34548	-16.36935	11.27051
11.34966	-16.39132	11.27051
11.35385	-16.39132	11.27051
11.35803	-16.41330	11.27051
11.36221	-16.41330	11.27051
11.36651	-16.41330	11.27051
11.37072	-16.41330	11.27051
11.37491	-16.43527	11.27051
11.37909	-16.41330	11.27051
11.38330	-16.43527	11.27051
11.38750	-16.43527	11.27051
11.39169	-16.43527	11.27051
11.39596	-16.43527	11.27051
11.40024	-16.43527	11.27051
11.40443	-16.45724	11.27051
11.40862	-16.45724	11.27051
11.41280	-16.45724	11.27051
11.41699	-16.45724	11.27051
11.42117	-16.45724	11.27051
11.42536	-16.47922	11.27051
11.42966	-16.47922	11.27051
11.43386	-16.47922	11.27051
11.43815	-16.47922	11.27051
11.44233	-16.47922	11.27051
11.44652	-16.50119	11.27051
11.45071	-16.50119	11.27051
11.45490	-16.50119	11.27051
11.45929	-16.50119	11.27051
11.46352	-16.52316	11.27051
11.46771	-16.52316	11.27051
11.47189	-16.52316	11.27051
11.47608	-16.52316	11.27051
11.48026	-16.52316	11.27051
11.48447	-16.52316	11.27051
11.48873	-16.54513	11.27051
11.49303	-16.54513	11.27051
11.49724	-16.54513	11.27051
11.50142	-16.54513	11.27051
11.50561	-16.56711	11.27051
11.50979	-16.54513	11.27051
11.51398	-16.56711	11.27051
11.51816	-16.56711	11.27051
11.52246	-16.56711	11.27051
11.52668	-16.56711	11.27051
11.53087	-16.58908	11.27051
11.53505	-16.58908	11.27051
11.53934	-16.58908	11.27051
11.54353	-16.58908	11.27051
11.54771	-16.58908	11.27051
11.55196	-16.58908	11.27051
11.55623	-16.61105	11.27051
11.56042	-16.61105	11.27051
11.56460	-16.63302	11.27051
11.56879	-16.61105	11.27051
11.57297	-16.61105	11.27051
11.57716	-16.63302	11.27051
11.58134	-16.63302	11.27051
11.58566	-16.63302	11.27051
11.58988	-16.63302	11.27051
11.59407	-16.63302	11.27051
11.59826	-16.63302	11.27051
11.60244	-16.65500	11.27051
11.60664	-16.63302	11.27051
11.61082	-16.65500	11.27051
11.61523	-16.65500	11.27051
11.61945	-16.65500	11.27051
11.62363	-16.65500	11.27051
11.62782	-16.67697	11.27051
11.63200	-16.65500	11.27051
11.63618	-16.67697	11.27051
11.64047	-16.67697	11.27051
11.64472	-16.67697	11.27051
11.64900	-16.67697	11.27051
11.65320	-16.67697	11.27051
11.65738	-16.67697	11.27051
11.66157	-16.69894	11.27051
11.66575	-16.67697	11.27051
11.66993	-16.69894	11.27051
11.67412	-16.69894	11.27051
11.67853	-16.69894	11.27051
11.68276	-16.69894	11.27051
11.68696	-16.72091	11.27051
11.69115	-16.69894	11.27051
11.69534	-16.72091	11.27051
11.69953	-16.72091	11.27051
11.70371	-16.72091	11.27051
11.70797	-16.72091	11.27051
11.71226	-16.72091	11.27051
11.71646	-16.72091	11.27051
11.72065	-16.74289	11.27051
11.72483	-16.74289	11.27051
11.72902	-16.74289	11.27051
11.73320	-16.74289	11.27051
11.73739	-16.74289	11.27051
11.74179	-16.74289	11.27051
11.74600	-16.74289	11.27051
11.75019	-16.74289	11.27051
11.75438	-16.76486	11.27051
11.75856	-16.76486	11.27051
11.76275	-16.76486	11.27051
11.76693	-16.76486	11.27051
11.77118	-16.76486	11.27051
11.77545	-16.76486	11.27051
11.77966	-16.78683	11.27051
11.78387	-16.76486	11.27051
11.78807	-16.76486	11.27051
11.79226	-16.78683	11.27051
11.79645	-16.78683	11.27051
11.80063	-16.78683	11.27051
11.80493	-16.80881	11.27051
11.80914	-16.78683	11.27051
11.81334	-16.78683	11.27051
11.81753	-16.80881	11.27051
11.82172	-16.80881	11.27051
11.82591	-16.80881	11.27051
11.83009	-16.80881	11.27051
11.83435	-16.80881	11.27051
11.83863	-16.80881	11.27051
11.84293	-16.83078	11.27051
11.84711	-16.80881	11.27051
11.85130	-16.83078	11.27051
11.85548	-16.83078	11.27051
11.85967	-16.83078	11.27051
11.86385	-16.83078	11.27051
11.86815	-16.83078	11.27051
11.87234	-16.83078	11.27051
11.87653	-16.85275	11.27051
11.88071	-16.83078	11.27051
11.88492	-16.85275	11.27051
11.88911	-16.85275	11.27051
11.89331	-16.85275	11.27051
11.89758	-16.85275	11.27051
11.90186	-16.87472	11.27051
11.90605	-16.85275	11.27051
11.91024	-16.87472	11.27051
11.91442	-16.87472	11.27051
11.91862	-16.85275	11.27051
11.92281	-16.87472	11.27051
11.92699	-16.87472	11.27051
11.93129	-16.85275	11.27051
11.93550	-16.87472	11.27051
11.93968	-16.87472	11.27051
11.94397	-16.87472	11.27051
11.94815	-16.87472	11.27051
11.95234	-16.87472	11.27051
11.95652	-16.87472	11.27051
11.96097	-16.89670	11.27051
11.96519	-16.87472	11.27051
11.96938	-16.87472	11.27051
11.97356	-16.89670	11.27051
11.97774	-16.89670	11.27051
11.98193	-16.89670	11.27051
11.98613	-16.89670	11.27051
11.99038	-16.89670	11.27051
11.99471	-16.89670	11.27051
11.99891	-16.89670	11.27051
12.00310	-16.89670	11.27051
12.00729	-16.91867	11.27051
12.01148	-16.89670	11.27051
12.01567	-16.91867	11.27051
12.01986	-16.91867	11.27051
12.02416	-16.91867	11.27051
12.02836	-16.91867	11.27051
12.03255	-16.91867	11.27051
12.03674	-16.91867	11.27051
12.04092	-16.91867	11.27051
12.04521	-16.91867	11.27051
12.04939	-16.91867	11.27051
12.05364	-16.91867	11.27051
12.05791	-16.91867	11.27051
12.06211	-16.91867	11.27051
12.06630	-16.94064	11.27051
12.07048	-16.91867	11.27051
12.07468	-16.91867	11.27051
12.07886	-16.91867	11.27051
12.08305	-16.91867	11.27051
12.08737	-16.91867	11.27051
12.09158	-16.94064	11.27051
12.09577	-16.94064	11.27051
12.09996	-16.91867	11.27051
12.10414	-16.94064	11.27051
12.10833	-16.91867	11.27051
12.11251	-16.94064	11.27051
12.11677	-16.94064	11.27051
12.12104	-16.91867	11.27051
12.12524	-16.91867	11.27051
12.12943	-16.94064	11.27051
12.13361	-16.94064	11.27051
12.13780	-16.94064	11.27051
12.14198	-16.91867	11.27051
12.14627	-16.94064	11.27051
12.15057	-16.94064	11.27051
12.15477	-16.94064	11.27051
12.15896	-16.91867	11.27051
12.16314	-16.94064	11.27051
12.16733	-16.94064	11.27051
12.17151	-16.94064	11.27051
12.17570	-16.94064	11.27051
12.18014	-16.94064	11.27051
12.18437	-16.94064	11.27051
12.18857	-16.96261	11.27051
12.19276	-16.94064	11.27051
12.19695	-16.96261	11.27051
12.20114	-16.96261	11.27051
12.20533	-16.96261	11.27051
12.20957	-16.94064	11.27051
12.21386	-16.96261	11.27051
12.21806	-16.94064	11.27051
12.22224	-16.96261	11.27051
12.22643	-16.96261	11.27051
12.23063	-16.96261	11.27051
12.23481	-16.96261	11.27051
12.23900	-16.96261	11.27051
12.24330	-16.96261	11.27051
12.24761	-16.98459	11.27051
12.25179	-16.96261	11.27051
12.25598	-16.96261	11.27051
12.26016	-16.96261	11.27051
12.26434	-16.96261	11.27051
12.26853	-16.96261	11.27051
12.27281	-16.96261	11.27051
12.27709	-16.96261	11.27051
12.28129	-16.98459	11.27051
12.28549	-16.96261	11.27051
12.28969	-16.96261	11.27051
12.29388	-16.96261	11.27051
12.29807	-16.98459	11.27051
12.30225	-16.96261	11.27051
12.30655	-16.98459	11.27051
12.31077	-16.98459	11.27051
12.31495	-16.96261	11.27051
12.31914	-16.98459	11.27051
12.32332	-16.96261	11.27051
12.32751	-16.96261	11.27051
12.33169	-16.98459	11.27051
12.33595	-16.98459	11.27051
12.34022	-16.98459	11.27051
12.34441	-16.98459	11.27051
12.34870	-16.96261	11.27051
12.35288	-16.98459	11.27051
12.35707	-16.98459	11.27051
12.36125	-16.98459	11.27051
12.36543	-16.98459	11.27051
12.36974	-16.98459	11.27051
12.37395	-16.98459	11.27051
12.37814	-16.98459	11.27051
12.38232	-16.98459	11.27051
12.38652	-16.98459	11.27051
12.39073	-16.98459	11.27051
12.39491	-16.98459	11.27051
12.39936	-16.98459	11.27051
12.40358	-16.98459	11.27051
12.40777	-16.96261	11.27051
12.41196	-16.98459	11.27051
12.41615	-16.98459	11.27051
12.42033	-16.98459	11.27051
12.42452	-16.98459	11.27051
12.42876	-16.98459	11.27051
12.43304	-16.98459	11.27051
12.43724	-16.98459	11.27051
12.44143	-16.98459	11.27051
12.44562	-16.98459	11.27051
12.44991	-16.98459	11.27051
12.45409	-16.98459	11.27051
12.45827	-16.98459	11.27051
12.46257	-16.98459	11.27051
12.46678	-16.96261	11.27051
12.47096	-16.96261	11.27051
12.47515	-16.98459	11.27051
12.47933	-16.96261	11.27051
12.48352	-16.96261	11.27051
12.48772	-16.96261	11.27051
12.49198	-16.96261	11.27051
12.49626	-16.98459	11.27051
12.50046	-16.98459	11.27051
12.50465	-16.96261	11.27051
12.50884	-16.96261	11.27051
12.51302	-16.96261	11.27051
12.51721	-16.96261	11.27051
12.52139	-16.96261	11.27051
12.52569	-16.96261	11.27051
12.52990	-16.94064	11.27051
12.53409	-16.96261	11.27051
12.53827	-16.94064	11.27051
12.54245	-16.94064	11.27051
12.54665	-16.94064	11.27051
12.55094	-16.94064	11.27051
12.55538	-16.94064	11.27051
12.55960	-16.94064	11.27051
12.56380	-16.91867	11.27051
12.56799	-16.91867	11.27051
12.57218	-16.91867	11.27051
12.57637	-16.91867	11.27051
12.58056	-16.91867	11.27051
12.58487	-16.91867	11.27051
12.58918	-16.89670	11.27051
12.59338	-16.89670	11.27051
12.59758	-16.89670	11.27051
12.60177	-16.89670	11.27051
12.60596	-16.89670	11.27051
12.61015	-16.87472	11.27051
12.61434	-16.87472	11.27051
12.61867	-16.87472	11.27051
12.62290	-16.87472	11.27051
12.62709	-16.85275	11.27051
12.63129	-16.87472	11.27051
12.63548	-16.85275	11.27051
12.63967	-16.85275	11.27051
12.64386	-16.85275	11.27051
12.64813	-16.83078	11.27051
12.65251	-16.83078	11.27051
12.65670	-16.85275	11.27051
12.66089	-16.83078	11.27051
12.66508	-16.83078	11.27051
12.66927	-16.83078	11.27051
12.67346	-16.80881	11.27051
12.67765	-16.80881	11.27051
12.68197	-16.80881	11.27051
12.68620	-16.80881	11.27051
12.69040	-16.80881	11.27051
12.69460	-16.78683	11.27051
12.69875	-16.78683	11.27051
12.70295	-16.78683	11.27051
12.70714	-16.78683	11.27051
12.71156	-16.78683	11.27051
12.71578	-16.76486	11.27051
12.71996	-16.76486	11.27051
12.72415	-16.76486	11.27051
12.72833	-16.76486	11.27051
12.73253	-16.76486	11.27051
12.73671	-16.74289	11.27051
12.74097	-16.74289	11.27051
12.74526	-16.72091	11.27051
12.74945	-16.72091	11.27051
12.75374	-16.72091	11.27051
12.75792	-16.69894	11.27051
12.76211	-16.69894	11.27051
12.76629	-16.69894	11.27051
12.77048	-16.69894	11.27051
12.77479	-16.69894	11.27051
12.77900	-16.67697	11.27051
12.78319	-16.67697	11.27051
12.78739	-16.67697	11.27051
12.79158	-16.65500	11.27051
12.79577	-16.65500	11.27051
12.79996	-16.65500	11.27051
12.80421	-16.63302	11.27051
12.80848	-16.63302	11.27051
12.81268	-16.63302	11.27051
12.81687	-16.63302	11.27051
12.82105	-16.61105	11.27051
12.82524	-16.61105	11.27051
12.82942	-16.61105	11.27051
12.83360	-16.61105	11.27051
12.83790	-16.61105	11.27051
12.84210	-16.58908	11.27051
12.84629	-16.58908	11.27051
12.85049	-16.56711	11.27051
12.85479	-16.56711	11.27051
12.85898	-16.56711	11.27051
12.86316	-16.56711	11.27051
12.86762	-16.54513	11.27051
12.87183	-16.54513	11.27051
12.87603	-16.52316	11.27051
12.88022	-16.52316	11.27051
12.88441	-16.52316	11.27051
12.88861	-16.52316	11.27051
12.89281	-16.52316	11.27051
12.89709	-16.50119	11.27051
12.90138	-16.50119	11.27051
12.90560	-16.50119	11.27051
12.90979	-16.47922	11.27051
12.91399	-16.47922	11.27051
12.91818	-16.47922	11.27051
12.92237	-16.45724	11.27051
12.92656	-16.45724	11.27051
12.93088	-16.45724	11.27051
12.93509	-16.45724	11.27051
12.93928	-16.45724	11.27051
12.94348	-16.45724	11.27051
12.94767	-16.43527	11.27051
12.95186	-16.43527	11.27051
12.95616	-16.43527	11.27051
12.96043	-16.41330	11.27051
12.96471	-16.41330	11.27051
12.96891	-16.41330	11.27051
12.97310	-16.41330	11.27051
12.97729	-16.41330	11.27051
12.98148	-16.39132	11.27051
12.98569	-16.39132	11.27051
12.98989	-16.39132	11.27051
12.99422	-16.36935	11.27051
12.99845	-16.36935	11.27051
13.00265	-16.39132	11.27051
13.00684	-16.36935	11.27051
13.01102	-16.36935	11.27051
13.01521	-16.36935	11.27051
13.01939	-16.34738	11.27051
13.02381	-16.36935	11.27051
13.02802	-16.36935	11.27051
13.03221	-16.34738	11.27051
13.03640	-16.34738	11.27051
13.04058	-16.32541	11.27051
13.04477	-16.32541	11.27051
13.04895	-16.32541	11.27051
13.05320	-16.32541	11.27051
13.05759	-16.30343	11.27051
13.06180	-16.32541	11.27051
13.06598	-16.30343	11.27051
13.07017	-16.30343	11.27051
13.07435	-16.30343	11.27051
13.07854	-16.30343	11.27051
13.08273	-16.30343	11.27051
13.08705	-16.30343	11.27051
13.09126	-16.28146	11.27051
13.09546	-16.30343	11.27051
13.09965	-16.28146	11.27051
13.10384	-16.28146	11.27051
13.10803	-16.28146	11.27051
13.11221	-16.28146	11.27051
13.11711	-16.28146	11.27051
13.12141	-16.28146	11.27051
13.12563	-16.28146	11.27051
13.12983	-16.28146	11.27051
13.13404	-16.28146	11.27051
13.13825	-16.25949	11.27051
13.14246	-16.25949	11.27051
13.14697	-16.25949	11.27051
13.15131	-16.25949	11.27051
13.15554	-16.25949	11.27051
13.15985	-16.25949	11.27051
13.16406	-16.25949	11.27051
13.16825	-16.25949	11.27051
13.17244	-16.25949	11.27051
13.17663	-16.25949	11.27051
13.18098	-16.25949	11.27051
13.18519	-16.25949	11.27051
13.18939	-16.25949	11.27051
13.19358	-16.25949	11.27051
13.19779	-16.23752	11.27051
13.20196	-16.25949	11.27051
13.20613	-16.23752	11.27051
13.21074	-16.23752	11.27051
13.21494	-16.23752	11.27051
13.21912	-16.25949	11.27051
13.22329	-16.23752	11.27051
13.22746	-16.25949	11.27051
13.23162	-16.23752	11.27051
13.23581	-16.23752	11.27051
13.24007	-16.25949	11.27051
13.24438	-16.25949	11.27051
13.24859	-16.23752	11.27051
13.25276	-16.25949	11.27051
13.25693	-16.23752	11.27051
13.26120	-16.25949	11.27051
13.26537	-16.25949	11.27051
13.26953	-16.23752	11.27051
13.27385	-16.23752	11.27051
13.27804	-16.25949	11.27051
13.28222	-16.23752	11.27051
13.28639	-16.25949	11.27051
13.29056	-16.25949	11.27051
13.29472	-16.25949	11.27051
13.29891	-16.25949	11.27051
13.30345	-16.25949	11.27051
13.30772	-16.25949	11.27051
13.31194	-16.28146	11.27051
13.31615	-16.25949	11.27051
13.32034	-16.28146	11.27051
13.32453	-16.28146	11.27051
13.32873	-16.28146	11.27051
13.33300	-16.28146	11.27051
13.33728	-16.30343	11.27051
13.34148	-16.28146	11.27051
13.34567	-16.30343	11.27051
13.34986	-16.30343	11.27051
13.35405	-16.30343	11.27051
13.35824	-16.30343	11.27051
13.36253	-16.30343	11.27051
13.36685	-16.32541	11.27051
13.37105	-16.32541	11.27051
13.37524	-16.32541	11.27051
13.37943	-16.32541	11.27051
13.38361	-16.34738	11.27051
13.38779	-16.34738	11.27051
13.39198	-16.34738	11.27051
13.39642	-16.36935	11.27051
13.40064	-16.34738	11.27051
13.40483	-16.34738	11.27051
13.40901	-16.36935	11.27051
13.41320	-16.36935	11.27051
13.41738	-16.39132	11.27051
13.42156	-16.39132	11.27051
13.42581	-16.39132	11.27051
13.43011	-16.39132	11.27051
13.43430	-16.41330	11.27051
13.43849	-16.41330	11.27051
13.44268	-16.43527	11.27051
13.44687	-16.43527	11.27051
13.45106	-16.43527	11.27051
13.45524	-16.43527	11.27051
13.45954	-16.45724	11.27051
13.46385	-16.45724	11.27051
13.46804	-16.45724	11.27051
13.47222	-16.47922	11.27051
13.47641	-16.47922	11.27051
13.48059	-16.50119	11.27051
13.48477	-16.50119	11.27051
13.48902	-16.50119	11.27051
13.49328	-16.52316	11.27051
13.49748	-16.50119	11.27051
13.50167	-16.52316	11.27051
13.50586	-16.52316	11.27051
13.51004	-16.52316	11.27051
13.51422	-16.54513	11.27051
13.51841	-16.54513	11.27051
13.52273	-16.56711	11.27051
13.52694	-16.58908	11.27051
13.53112	-16.56711	11.27051
13.53531	-16.56711	11.27051
13.53949	-16.58908	11.27051
13.54368	-16.61105	11.27051
13.54786	-16.61105	11.27051
13.55232	-16.63302	11.27051
13.55653	-16.63302	11.27051
13.56072	-16.63302	11.27051
13.56501	-16.65500	11.27051
13.56919	-16.65500	11.27051
13.57337	-16.65500	11.27051
13.57755	-16.67697	11.27051
13.58180	-16.67697	11.27051
13.58608	-16.67697	11.27051
13.59027	-16.67697	11.27051
13.59449	-16.67697	11.27051
13.59870	-16.69894	11.27051
13.60290	-16.69894	11.27051
13.60708	-16.72091	11.27051
13.61127	-16.72091	11.27051
13.61559	-16.74289	11.27051
13.61979	-16.72091	11.27051
13.62398	-16.74289	11.27051
13.62817	-16.74289	11.27051
13.63236	-16.76486	11.27051
13.63654	-16.76486	11.27051
13.64073	-16.76486	11.27051
13.64499	-16.76486	11.27051
13.64928	-16.78683	11.27051
13.65347	-16.78683	11.27051
13.65766	-16.78683	11.27051
13.66184	-16.78683	11.27051
13.66613	-16.78683	11.27051
13.67031	-16.80881	11.27051
13.67451	-16.83078	11.27051
13.67883	-16.83078	11.27051
13.68303	-16.83078	11.27051
13.68722	-16.83078	11.27051
13.69140	-16.85275	11.27051
13.69558	-16.85275	11.27051
13.69977	-16.85275	11.27051
13.70395	-16.85275	11.27051
13.70821	-16.87472	11.27051
13.71247	-16.87472	11.27051
13.71667	-16.87472	11.27051
13.72086	-16.89670	11.27051
13.72504	-16.87472	11.27051
13.72922	-16.89670	11.27051
13.73341	-16.91867	11.27051
13.73759	-16.91867	11.27051
13.74189	-16.91867	11.27051
13.74610	-16.91867	11.27051
13.75029	-16.91867	11.27051
13.75448	-16.94064	11.27051
13.75867	-16.94064	11.27051
13.76287	-16.94064	11.27051
13.76716	-16.96261	11.27051
13.77161	-16.96261	11.27051
13.77582	-16.96261	11.27051
13.78001	-16.98459	11.27051
13.78419	-16.96261	11.27051
13.78838	-16.98459	11.27051
13.79256	-17.00656	11.27051
13.79674	-17.00656	11.27051
13.80100	-16.98459	11.27051
13.80528	-17.00656	11.27051
13.80951	-16.98459	11.27051
13.81371	-17.00656	11.27051
13.81790	-17.00656	11.27051
13.82209	-17.02853	11.27051
13.82627	-17.02853	11.27051
13.83046	-17.02853	11.27051
13.83478	-17.02853	11.27051
13.83898	-17.02853	11.27051
13.84317	-17.02853	11.27051
13.84736	-17.05050	11.27051
13.85154	-17.05050	11.27051
13.85573	-17.05050	11.27051
13.85991	-17.05050	11.27051
13.86416	-17.07248	11.27051
13.86855	-17.07248	11.27051
13.87274	-17.07248	11.27051
13.87693	-17.07248	11.27051
13.88111	-17.07248	11.27051
13.88530	-17.07248	11.27051
13.88948	-17.09445	11.27051
13.89366	-17.09445	11.27051
13.89798	-17.09445	11.27051
13.90218	-17.09445	11.27051
13.90637	-17.09445	11.27051
13.91056	-17.09445	11.27051
13.91475	-17.11642	11.27051
13.91893	-17.11642	11.27051
13.92312	-17.11642	11.27051
13.92738	-17.11642	11.27051
13.93165	-17.11642	11.27051
13.93584	-17.11642	11.27051
13.94003	-17.11642	11.27051
13.94421	-17.13839	11.27051
13.94839	-17.13839	11.27051
13.95258	-17.11642	11.27051
13.95676	-17.11642	11.27051
13.96106	-17.13839	11.27051
13.96527	-17.13839	11.27051
13.96956	-17.16037	11.27051
13.97374	-17.13839	11.27051
13.97792	-17.13839	11.27051
13.98210	-17.13839	11.27051
13.98629	-17.13839	11.27051
13.99075	-17.16037	11.27051
13.99496	-17.16037	11.27051
13.99915	-17.16037	11.27051
14.00333	-17.16037	11.27051
14.00752	-17.16037	11.27051
14.01170	-17.16037	11.27051
14.01589	-17.16037	11.27051
14.02013	-17.16037	11.27051
14.02441	-17.16037	11.27051
14.02862	-17.18234	11.27051
14.03280	-17.16037	11.27051
14.03699	-17.16037	11.27051
14.04117	-17.16037	11.27051
14.04535	-17.16037	11.27051
14.04953	-17.16037	11.27051
14.05383	-17.18234	11.27051
14.05804	-17.16037	11.27051
14.06222	-17.16037	11.27051
14.06641	-17.18234	11.27051
14.07071	-17.16037	11.27051
14.07490	-17.16037	11.27051
14.07908	-17.18234	11.27051
14.08333	-17.16037	11.27051
14.08760	-17.16037	11.27051
14.09179	-17.18234	11.27051
14.09598	-17.16037	11.27051
14.10017	-17.18234	11.27051
14.10436	-17.18234	11.27051
14.10855	-17.16037	11.27051
14.11273	-17.16037	11.27051
14.11704	-17.18234	11.27051
14.12124	-17.16037	11.27051
14.12542	-17.16037	11.27051
14.12961	-17.16037	11.27051
14.13380	-17.16037	11.27051
14.13798	-17.16037	11.27051
14.14216	-17.16037	11.27051
14.14642	-17.16037	11.27051
14.15070	-17.16037	11.27051
14.15489	-17.13839	11.27051
14.15908	-17.13839	11.27051
14.16326	-17.16037	11.27051
14.16745	-17.13839	11.27051
14.17174	-17.13839	11.27051
14.17592	-17.13839	11.27051
14.18022	-17.13839	11.27051
14.18442	-17.13839	11.27051
14.18860	-17.13839	11.27051
14.19279	-17.13839	11.27051
14.19700	-17.13839	11.27051
14.20120	-17.13839	11.27051
14.20540	-17.11642	11.27051
14.20966	-17.11642	11.27051
14.21398	-17.11642	11.27051
14.21819	-17.11642	11.27051
14.22239	-17.11642	11.27051
14.22658	-17.09445	11.27051
14.23075	-17.09445	11.27051
14.23496	-17.09445	11.27051
14.23915	-17.09445	11.27051
14.24346	-17.07248	11.27051
14.24766	-17.09445	11.27051
14.25185	-17.07248	11.27051
14.25603	-17.07248	11.27051
14.26022	-17.07248	11.27051
14.26440	-17.05050	11.27051
14.26859	-17.05050	11.27051
14.27295	-17.05050	11.27051
14.27721	-17.05050	11.27051
14.28141	-17.05050	11.27051
14.28559	-17.02853	11.27051
14.28978	-17.02853	11.27051
14.29396	-17.02853	11.27051
14.29814	-17.02853	11.27051
14.30233	-17.02853	11.27051
14.30664	-17.00656	11.27051
14.31086	-17.00656	11.27051
14.31505	-17.00656	11.27051
14.31923	-16.98459	11.27051
14.32342	-16.98459	11.27051
14.32760	-16.98459	11.27051
14.33181	-16.98459	11.27051
14.33607	-16.96261	11.27051
14.34034	-16.96261	11.27051
14.34453	-16.94064	11.27051
14.34872	-16.94064	11.27051
14.35290	-16.94064	11.27051
14.35708	-16.94064	11.27051
14.36127	-16.91867	11.27051
14.36545	-16.91867	11.27051
14.36974	-16.91867	11.27051
14.37405	-16.91867	11.27051
14.37823	-16.91867	11.27051
14.38241	-16.89670	11.27051
14.38660	-16.89670	11.27051
14.39074	-16.87472	11.27051
14.39493	-16.87472	11.27051
14.39932	-16.87472	11.27051
14.40353	-16.87472	11.27051
14.40771	-16.85275	11.27051
14.41190	-16.85275	11.27051
14.41608	-16.83078	11.27051
14.42026	-16.83078	11.27051
14.42445	-16.83078	11.27051
14.42868	-16.83078	11.27051
14.43296	-16.80881	11.27051
14.43716	-16.80881	11.27051
14.44134	-16.80881	11.27051
14.44552	-16.78683	11.27051
14.44970	-16.78683	11.27051
14.45389	-16.78683	11.27051
14.45809	-16.76486	11.27051
14.46249	-16.78683	11.27051
14.46671	-16.76486	11.27051
14.47090	-16.76486	11.27051
14.47518	-16.74289	11.27051
14.47937	-16.74289	11.27051
14.48356	-16.74289	11.27051
14.48775	-16.74289	11.27051
14.49200	-16.72091	11.27051
14.49629	-16.72091	11.27051
14.50049	-16.69894	11.27051
14.50468	-16.69894	11.27051
14.50888	-16.69894	11.27051
14.51307	-16.69894	11.27051
14.51727	-16.67697	11.27051
14.52146	-16.67697	11.27051
14.52577	-16.65500	11.27051
14.53004	-16.65500	11.27051
14.53423	-16.65500	11.27051
14.53842	-16.63302	11.27051
14.54260	-16.65500	11.27051
14.54675	-16.63302	11.27051
14.55094	-16.61105	11.27051
14.55519	-16.63302	11.27051
14.55946	-16.63302	11.27051
14.56365	-16.58908	11.27051
14.56784	-16.61105	11.27051
14.57203	-16.58908	11.27051
14.57632	-16.56711	11.27051
14.58050	-16.56711	11.27051
14.58468	-16.56711	11.27051
14.58898	-16.56711	11.27051
14.59319	-16.54513	11.27051
14.59737	-16.54513	11.27051
14.60156	-16.54513	11.27051
14.60575	-16.52316	11.27051
14.60994	-16.52316	11.27051
14.61412	-16.52316	11.27051
14.61838	-16.50119	11.27051
14.62266	-16.50119	11.27051
14.62702	-16.50119	11.27051
14.63122	-16.47922	11.27051
14.63541	-16.47922	11.27051
14.63960	-16.47922	11.27051
14.64378	-16.45724	11.27051
14.64803	-16.45724	11.27051
14.65231	-16.45724	11.27051
14.65651	-16.43527	11.27051
14.66069	-16.43527	11.27051
14.66488	-16.43527	11.27051
14.66906	-16.41330	11.27051
14.67324	-16.41330	11.27051
14.67753	-16.41330	11.27051
14.68182	-16.39132	11.27051
14.68603	-16.39132	11.27051
14.69021	-16.39132	11.27051
14.69440	-16.36935	11.27051
14.69859	-16.36935	11.27051
14.70275	-16.34738	11.27051
14.70694	-16.34738	11.27051
14.71120	-16.34738	11.27051
14.71546	-16.32541	11.27051
14.71965	-16.32541	11.27051
14.72383	-16.30343	11.27051
14.72802	-16.30343	11.27051
14.73221	-16.30343	11.27051
14.73639	-16.30343	11.27051
14.74057	-16.30343	11.27051
14.74486	-16.28146	11.27051
14.74907	-16.28146	11.27051
14.75325	-16.25949	11.27051
14.75744	-16.25949	11.27051
14.76162	-16.23752	11.27051
14.76580	-16.23752	11.27051
14.76999	-16.23752	11.27051
14.77424	-16.23752	11.27051
14.77860	-16.21554	11.27051
14.78275	-16.21554	11.27051
14.78694	-16.21554	11.27051
14.79112	-16.21554	11.27051
14.79531	-16.19357	11.27051
14.79949	-16.17160	11.27051
14.80367	-16.17160	11.27051
14.80797	-16.17160	11.27051
14.81217	-16.14963	11.27051
14.81636	-16.14963	11.27051
14.82054	-16.14963	11.27051
14.82472	-16.14963	11.27051
14.82890	-16.12765	11.27051
14.83309	-16.12765	11.27051
14.83734	-16.12765	11.27051
14.84161	-16.10568	11.27051
14.84581	-16.10568	11.27051
14.84999	-16.10568	11.27051
14.85418	-16.12765	11.27051
14.85836	-16.08371	11.27051
14.86254	-16.08371	11.27051
14.86674	-16.08371	11.27051
14.87104	-16.06173	11.27051
14.87526	-16.06173	11.27051
14.87957	-16.06173	11.27051
14.88375	-16.06173	11.27051
14.88794	-16.06173	11.27051
14.89212	-16.03976	11.27051
14.89631	-16.03976	11.27051
14.90074	-16.03976	11.27051
14.90495	-16.03976	11.27051
14.90914	-16.01779	11.27051
14.91332	-16.01779	11.27051
14.91751	-16.01779	11.27051
14.92169	-16.01779	11.27051
14.92588	-16.01779	11.27051
14.93014	-15.99582	11.27051
14.93442	-15.99582	11.27051
14.93863	-15.99582	11.27051
14.94281	-15.97384	11.27051
14.94700	-15.97384	11.27051
14.95118	-15.97384	11.27051
14.95536	-15.97384	11.27051
14.95955	-15.97384	11.27051
14.96384	-15.97384	11.27051
14.96805	-15.95187	11.27051
14.97223	-15.95187	11.27051
14.97642	-15.95187	11.27051
14.98071	-15.95187	11.27051
14.98489	-15.95187	11.27051
14.98908	-15.92990	11.27051
14.99333	-15.92990	11.27051
14.99759	-15.92990	11.27051
15.00218	-15.92990	2.84042
15.00636	-15.92990	2.84042
15.01054	-15.92990	2.84042
15.01473	-15.90793	2.84042
15.01893	-15.90793	2.84042
15.02314	-15.90793	2.84042
15.02743	-15.90793	2.84042
15.03163	-15.90793	2.84042
15.03581	-15.90793	2.84042
15.03999	-15.90793	2.84042
15.04418	-15.88595	2.84042
15.04837	-15.88595	2.84042
15.05255	-15.88595	2.84042
15.05698	-15.88595	2.84042
15.06119	-15.88595	2.84042
15.06538	-15.88595	2.84042
15.06956	-15.86398	2.84042
15.07420	-15.86398	2.84042
15.07839	-15.86398	2.84042
15.08257	-15.84201	2.84042
15.08682	-15.84201	2.84042
15.09108	-15.84201	2.84042
15.09527	-15.84201	2.84042
15.09946	-15.82004	2.84042
15.10375	-15.82004	2.84042
15.10793	-15.79806	2.84042
15.11212	-15.79806	2.84042
15.11631	-15.79806	2.84042
15.12060	-15.79806	2.84042
15.12480	-15.77609	2.84042
15.12899	-15.77609	2.84042
15.13318	-15.75412	2.84042
15.13736	-15.75412	2.84042
15.14154	-15.75412	2.84042
15.14573	-15.73214	2.84042
15.14998	-15.71017	2.84042
15.15425	-15.68820	2.84042
15.15844	-15.66623	2.84042
15.16264	-15.66623	2.84042
15.16683	-15.66623	2.84042
15.17102	-15.64425	2.84042
15.17520	-15.62228	2.84042
15.17938	-15.60031	2.84042
15.18368	-15.57834	2.84042
15.18789	-15.57834	2.84042
15.19207	-15.57834	2.84042
15.19626	-15.53439	2.84042
15.20045	-15.53439	2.84042
15.20473	-15.49045	2.84042
15.20893	-15.46847	2.84042
15.21337	-15.44650	2.84042
15.21758	-15.44650	2.84042
15.22177	-15.40256	2.84042
15.22595	-15.38058	2.84042
15.23014	-15.35861	2.84042
15.23432	-15.33664	2.84042
15.23854	-15.31466	2.84042
15.24283	-15.27072	2.84042
15.24712	-15.27072	2.84042
15.25132	-15.24875	2.84042
15.25551	-15.20480	2.84042
15.25969	-15.18283	2.84042
15.26388	-15.13888	2.84042
15.26807	-15.13888	2.84042
15.27225	-15.09494	2.84042
15.27655	-15.07297	2.84042
15.28076	-15.05099	2.84042
15.28494	-15.00705	2.84042
15.28913	-14.96310	2.84042
15.29331	-14.91916	2.84042
15.29750	-14.91916	2.84042
15.30168	-14.87521	2.84042
15.30604	-14.83127	2.84042
15.31029	-14.78732	2.84042
15.31450	-14.76535	2.84042
15.31870	-14.72140	2.84042
15.32288	-14.65548	2.84042
15.32707	-14.65548	2.84042
15.33128	-14.61154	2.84042
15.33547	-14.56759	2.84042
15.33977	-14.52365	2.84042
15.34397	-14.47970	2.84042
15.34817	-14.47970	2.84042
15.35235	-14.41379	2.84042
15.35653	-14.36984	2.84042
15.36072	-14.32589	2.84042
15.36490	-14.28195	2.84042
15.36915	-14.21603	2.84042
15.37342	-14.17209	2.84042
15.37761	-14.17209	2.84042
15.38180	-14.10617	2.84042
15.38598	-14.06222	2.84042
15.39017	-13.99631	2.84042
15.39435	-13.93039	2.84042
15.39854	-13.86447	2.84042
15.40284	-13.86447	2.84042
15.40715	-13.82052	2.84042
15.41134	-13.75461	2.84042
15.41552	-13.68869	2.84042
15.41970	-13.62277	2.84042
15.42389	-13.62277	2.84042
15.42807	-13.55685	2.84042
15.43250	-13.51291	2.84042
15.43670	-13.44699	2.84042
15.44089	-13.38107	2.84042
15.44507	-13.31515	2.84042
15.44926	-13.24923	2.84042
15.45344	-13.24923	2.84042
15.45764	-13.18332	2.84042
15.46191	-13.11740	2.84042
15.46619	-13.05148	2.84042
15.47039	-12.98556	2.84042
15.47458	-12.89767	2.84042
15.47875	-12.89767	2.84042
15.48293	-12.83175	2.84042
15.48712	-12.78781	2.84042
15.49130	-12.72189	2.84042
15.49560	-12.63400	2.84042
15.49980	-12.56808	2.84042
15.50398	-12.50216	2.84042
15.50827	-12.50216	2.84042
15.51245	-12.41427	2.84042
15.51666	-12.34836	2.84042
15.52086	-12.26047	2.84042
15.52513	-12.17257	2.84042
15.52940	-12.12863	2.84042
15.53360	-12.12863	2.84042
15.53778	-12.04074	2.84042
15.54197	-11.97482	2.84042
15.54616	-11.88693	2.84042
15.55034	-11.82101	2.84042
15.55453	-11.73312	2.84042
15.55885	-11.73312	2.84042
15.56306	-11.66720	2.84042
15.56725	-11.57931	2.84042
15.57143	-11.51339	2.84042
15.57562	-11.42550	2.84042
15.57980	-11.33761	2.84042
15.58398	-11.24972	2.84042
15.58824	-11.24972	2.84042
15.59253	-11.18381	2.84042
15.59673	-11.09591	2.84042
15.60093	-11.00802	2.84042
15.60511	-10.92013	2.84042
15.60940	-10.83224	2.84042
15.61358	-10.78830	2.84042
15.61777	-10.78830	2.84042
15.62207	-10.70041	2.84042
15.62628	-10.61252	2.84042
15.63047	-10.52463	2.84042
15.63466	-10.43673	2.84042
15.63885	-10.43673	2.84042
15.64303	-10.34884	2.84042
15.64722	-10.26095	2.84042
15.65147	-10.17306	2.84042
15.65574	-10.08517	2.84042
15.65994	-9.99728	2.84042
15.66412	-9.99728	2.84042
15.66831	-9.90939	2.84042
15.67250	-9.82150	2.84042
15.67668	-9.73361	2.84042
15.68087	-9.64572	2.84042
15.68517	-9.55783	2.84042
15.68940	-9.55783	2.84042
15.69360	-9.46994	2.84042
15.69778	-9.38205	2.84042
15.70197	-9.29416	2.84042
15.70616	-9.20627	2.84042
15.71044	-9.11838	2.84042
15.71488	-9.03048	2.84042
15.71910	-9.03048	2.84042
15.72328	-8.94259	2.84042
15.72747	-8.85470	2.84042
15.73166	-8.76681	2.84042
15.73584	-8.67892	2.84042
15.74002	-8.61300	2.84042
15.74431	-8.61300	2.84042
15.74860	-8.50314	2.84042
15.75279	-8.43722	2.84042
15.75698	-8.34933	2.84042
15.76116	-8.23947	2.84042
15.76535	-8.15158	2.84042
15.76953	-8.15158	2.84042
15.77372	-8.06369	2.84042
15.77801	-7.97580	2.84042
15.78221	-7.88791	2.84042
15.78640	-7.82199	2.84042
15.79061	-7.73410	2.84042
15.79476	-7.64621	2.84042
15.79895	-7.64621	2.84042
15.80313	-7.53634	2.84042
15.80739	-7.44845	2.84042
15.81175	-7.36056	2.84042
15.81595	-7.29464	2.84042
15.82014	-7.29464	2.84042
15.82432	-7.18478	2.84042
15.82851	-7.11886	2.84042
15.83269	-7.03097	2.84042
15.83687	-6.96506	2.84042
15.84116	-6.85519	2.84042
15.84536	-6.78927	2.84042
15.84955	-6.78927	2.84042
15.85373	-6.67941	2.84042
15.85791	-6.61349	2.84042
15.86210	-6.52560	2.84042
15.86629	-6.43771	2.84042
15.87055	-6.37179	2.84042
15.87483	-6.26193	2.84042
15.87903	-6.26193	2.84042
15.88322	-6.19601	2.84042
15.88740	-6.10812	2.84042
15.89161	-6.02023	2.84042
15.89580	-5.93234	2.84042
15.89998	-5.93234	2.84042
15.90429	-5.84445	2.84042
15.90849	-5.75656	2.84042
15.91279	-5.69064	2.84042
15.91698	-5.60275	2.84042
15.92116	-5.51486	2.84042
15.92535	-5.51486	2.84042
15.92954	-5.42697	2.84042
15.93398	-5.33908	2.84042
15.93819	-5.27316	2.84042
15.94238	-5.18527	2.84042
15.94656	-5.11935	2.84042
15.95075	-5.11935	2.84042
15.95493	-5.03146	2.84042
15.95911	-4.96554	2.84042
15.96337	-4.87765	2.84042
15.96764	-4.81173	2.84042
15.97184	-4.72384	2.84042
15.97602	-4.63595	2.84042
15.98021	-4.63595	2.84042
15.98442	-4.57004	2.84042
15.98861	-4.48214	2.84042
15.99281	-4.41623	2.84042
15.99712	-4.35031	2.84042
16.00133	-4.26242	2.84042
16.00552	-4.26242	2.84042
16.00970	-4.19650	2.84042
16.01398	-4.13058	2.84042
16.01820	-4.04269	2.84042
16.02238	-3.95480	2.84042
16.02684	-3.88888	2.84042
16.03104	-3.88888	2.84042
16.03523	-3.82297	2.84042
16.03942	-3.75705	2.84042
16.04374	-3.69113	2.84042
16.04795	-3.62521	2.84042
16.05215	-3.55929	2.84042
16.05642	-3.47140	2.84042
16.06069	-3.47140	2.84042
16.06489	-3.40548	2.84042
16.06908	-3.33957	2.84042
16.07327	-3.25168	2.84042
16.07745	-3.20773	2.84042
16.08165	-3.14181	2.84042
16.08583	-3.07589	2.84042
16.09015	-3.07589	2.84042
16.09437	-3.00998	2.84042
16.09857	-2.94406	2.84042
16.10275	-2.87814	2.84042
16.10694	-2.79025	2.84042
16.11112	-2.79025	2.84042
16.11540	-2.74631	2.84042
16.11984	-2.68039	2.84042
16.12404	-2.61447	2.84042
16.12823	-2.57052	2.84042
16.13242	-2.50461	2.84042
16.13660	-2.43869	2.84042
16.14079	-2.43869	2.84042
16.14497	-2.37277	2.84042
16.14923	-2.30685	2.84042
16.15350	-2.26291	2.84042
16.15770	-2.19699	2.84042
16.16189	-2.15304	2.84042
16.16607	-2.15304	2.84042
16.17025	-2.08713	2.84042
16.17444	-2.02121	2.84042
16.17863	-1.97726	2.84042
16.18293	-1.91134	2.84042
16.18713	-1.86740	2.84042
16.19134	-1.86740	2.84042
16.19553	-1.80148	2.84042
16.19972	-1.73556	2.84042
16.20390	-1.69162	2.84042
16.20809	-1.64767	2.84042
16.21236	-1.60373	2.84042
16.21673	-1.55978	2.84042
16.22101	-1.55978	2.84042
16.22521	-1.49386	2.84042
16.22940	-1.44992	2.84042
16.23359	-1.40597	2.84042
16.23780	-1.34006	2.84042
16.24209	-1.34006	2.84042
16.24636	-1.29611	2.84042
16.25057	-1.25216	2.84042
16.25475	-1.23019	2.84042
16.25894	-1.16427	2.84042
16.26313	-1.14230	2.84042
16.26731	-1.09836	2.84042
16.27150	-1.09836	2.84042
16.27578	-1.05441	2.84042
16.28000	-0.98849	2.84042
16.28419	-0.96652	2.84042
16.28838	-0.92257	2.84042
16.29258	-0.87863	2.84042
16.29677	-0.85666	2.84042
16.30096	-0.85666	2.84042
16.30521	-0.81271	2.84042
16.30946	-0.79074	2.84042
16.31366	-0.74679	2.84042
16.31795	-0.70285	2.84042
16.32214	-0.68088	2.84042
16.32633	-0.68088	2.84042
16.33054	-0.63693	2.84042
16.33474	-0.59298	2.84042
16.33903	-0.57101	2.84042
16.34324	-0.54904	2.84042
16.34743	-0.50509	2.84042
16.35162	-0.50509	2.84042
16.35581	-0.48312	2.84042
16.35999	-0.46115	2.84042
16.36417	-0.41720	2.84042
16.36859	-0.39523	2.84042
16.37280	-0.35129	2.84042
16.37699	-0.35129	2.84042
16.38118	-0.32931	2.84042
16.38536	-0.32931	2.84042
16.38960	-0.28537	2.84042
16.39380	-0.26339	2.84042
16.39810	-0.24142	2.84042
16.40238	-0.21945	2.84042
16.40658	-0.21945	2.84042
16.41076	-0.19748	2.84042
16.41495	-0.17550	2.84042
16.41923	-0.15353	2.84042
16.42342	-0.13156	2.84042
16.42761	-0.13156	2.84042
16.43190	-0.10959	2.84042
16.43611	-0.08761	2.84042
16.44030	-0.06564	2.84042
16.44448	-0.06564	2.84042
16.44867	-0.04367	2.84042
16.45286	-0.04367	2.84042
16.45708	-0.02170	2.84042
16.46134	0.00028	2.84042
16.46560	0.00028	2.84042
16.46980	0.00028	2.84042
16.47399	0.02225	2.84042
16.47818	0.04422	2.84042
16.48236	0.04422	2.84042
16.48657	0.06619	2.84042
16.49076	0.06619	2.84042
16.49506	0.06619	2.84042
16.49927	0.08817	2.84042
16.50346	0.08817	2.84042
16.50765	0.08817	2.84042
16.51183	0.08817	2.84042
16.51602	0.11014	2.84042
16.52034	0.11014	2.84042
16.52478	0.11014	2.84042
16.52899	0.11014	2.84042
16.53319	0.11014	2.84042
16.53737	0.11014	2.84042
16.54156	0.13211	2.84042
16.54574	0.13211	2.84042
16.54992	0.13211	2.84042
16.55418	0.13211	2.84042
16.55845	0.13211	2.84042
16.56267	0.13211	2.84042
16.56686	0.13211	2.84042
16.57105	0.13211	2.84042
16.57523	0.13211	2.84042
16.57942	0.13211	2.84042
16.58360	0.11014	2.84042
16.58789	0.11014	2.84042
16.59213	0.11014	2.84042
16.59633	0.11014	2.84042
16.60052	0.11014	2.84042
16.60471	0.11014	2.84042
16.60890	0.08817	2.84042
16.61308	0.08817	2.84042
16.61734	0.08817	2.84042
16.62170	0.08817	2.84042
16.62591	0.06619	2.84042
16.63010	0.06619	2.84042
16.63428	0.06619	2.84042
16.63847	0.04422	2.84042
16.64266	0.02225	2.84042
16.64685	0.02225	2.84042
16.65114	0.02225	2.84042
16.65534	0.00028	2.84042
16.65953	-0.02170	2.84042
16.66372	-0.02170	2.84042
16.66790	-0.02170	2.84042
16.67209	-0.04367	2.84042
16.67627	-0.06564	2.84042
16.68052	-0.06564	2.84042
16.68477	-0.08761	2.84042
16.68897	-0.10959	2.84042
16.69318	-0.10959	2.84042
16.69738	-0.13156	2.84042
16.70157	-0.15353	2.84042
16.70576	-0.17550	2.84042
16.70994	-0.19748	2.84042
16.71424	-0.19748	2.84042
16.71845	-0.19748	2.84042
16.72276	-0.21945	2.84042
16.72694	-0.24142	2.84042
16.73113	-0.26339	2.84042
16.73531	-0.28537	2.84042
16.73950	-0.30734	2.84042
16.74391	-0.30734	2.84042
16.74813	-0.32931	2.84042
16.75231	-0.35129	2.84042
16.75650	-0.39523	2.84042
16.76068	-0.41720	2.84042
16.76486	-0.43918	2.84042
16.76905	-0.46115	2.84042
16.77331	-0.46115	2.84042
16.77757	-0.48312	2.84042
16.78178	-0.50509	2.84042
16.78596	-0.52707	2.84042
16.79017	-0.57101	2.84042
16.79436	-0.59298	2.84042
16.79855	-0.59298	2.84042
16.80274	-0.61496	2.84042
16.80703	-0.65890	2.84042
16.81124	-0.68088	2.84042
16.81543	-0.70285	2.84042
16.81962	-0.72482	2.84042
16.82392	-0.72482	2.84042
16.82810	-0.76877	2.84042
16.83229	-0.79074	2.84042
16.83653	-0.83468	2.84042
16.84078	-0.85666	2.84042
16.84498	-0.87863	2.84042
16.84916	-0.90060	2.84042
16.85335	-0.90060	2.84042
16.85753	-0.96652	2.84042
16.86171	-0.96652	2.84042
16.86590	-1.01047	2.84042
16.87018	-1.05441	2.84042
16.87439	-1.07638	2.84042
16.87858	-1.07638	2.84042
16.88275	-1.12033	2.84042
16.88693	-1.14230	2.84042
16.89114	-1.18625	2.84042
16.89533	-1.20822	2.84042
16.89958	-1.23019	2.84042
16.90383	-1.27414	2.84042
16.90803	-1.27414	2.84042
16.91223	-1.31808	2.84042
16.91641	-1.36203	2.84042
16.92060	-1.38400	2.84042
16.92489	-1.42795	2.84042
16.92907	-1.42795	2.84042
16.93335	-1.44992	2.84042
16.93756	-1.49386	2.84042
16.94175	-1.51584	2.84042
16.94594	-1.55978	2.84042
16.95012	-1.60373	2.84042
16.95430	-1.60373	2.84042
16.95849	-1.64767	2.84042
16.96275	-1.69162	2.84042
16.96700	-1.71359	2.84042
16.97119	-1.75754	2.84042
16.97538	-1.75754	2.84042
16.97956	-1.80148	2.84042
16.98375	-1.82345	2.84042
16.98794	-1.86740	2.84042
16.99214	-1.91134	2.84042
16.99644	-1.95529	2.84042
17.00065	-1.99923	2.84042
17.00484	-1.99923	2.84042
17.00903	-2.02121	2.84042
17.01321	-2.06515	2.84042
17.01740	-2.10910	2.84042
17.02160	-2.15304	2.84042
17.02613	-2.19699	2.84042
17.03034	-2.21896	2.84042
17.03453	-2.21896	2.84042
17.03873	-2.26291	2.84042
17.04291	-2.30685	2.84042
17.04710	-2.35080	2.84042
17.05128	-2.39474	2.84042
17.05554	-2.43869	2.84042
17.05980	-2.43869	2.84042
17.06401	-2.48263	2.84042
17.06819	-2.50461	2.84042
17.07238	-2.54855	2.84042
17.07656	-2.59250	2.84042
17.08075	-2.63644	2.84042
17.08493	-2.63644	2.84042
17.08922	-2.68039	2.84042
17.09345	-2.72433	2.84042
17.09765	-2.74631	2.84042
17.10184	-2.81222	2.84042
17.10603	-2.83420	2.84042
17.11021	-2.87814	2.84042
17.11440	-2.87814	2.84042
17.11883	-2.92209	2.84042
17.12304	-2.96603	2.84042
17.12734	-3.00998	2.84042
17.13153	-3.05392	2.84042
17.13571	-3.09787	2.84042
17.13990	-3.09787	2.84042
17.14408	-3.11984	2.84042
17.14834	-3.16379	2.84042
17.15258	-3.20773	2.84042
17.15678	-3.25168	2.84042
17.16097	-3.27365	2.84042
17.16516	-3.33957	2.84042
17.16934	-3.33957	2.84042
17.17353	-3.36154	2.84042
17.17771	-3.40548	2.84042
17.18199	-3.44943	2.84042
17.18620	-3.49338	2.84042
17.19039	-3.49338	2.84042
17.19460	-3.53732	2.84042
17.19876	-3.58127	2.84042
17.20297	-3.62521	2.84042
17.20716	-3.64718	2.84042
17.21145	-3.71310	2.84042
17.21573	-3.71310	2.84042
17.21993	-3.73507	2.84042
17.22412	-3.77902	2.84042
17.22842	-3.82297	2.84042
17.23261	-3.86691	2.84042
17.23680	-3.91086	2.84042
17.24113	-3.93283	2.84042
17.24543	-3.93283	2.84042
17.24964	-3.97677	2.84042
17.25383	-4.02072	2.84042
17.25802	-4.06466	2.84042
17.26221	-4.08664	2.84042
17.26640	-4.13058	2.84042
17.27060	-4.13058	2.84042
17.27488	-4.17453	2.84042
17.27917	-4.21847	2.84042
17.28338	-4.24045	2.84042
17.28757	-4.28439	2.84042
17.29178	-4.32834	2.84042
17.29598	-4.32834	2.84042
17.30018	-4.35031	2.84042
17.30448	-4.41623	2.84042
17.30875	-4.43820	2.84042
17.31295	-4.48214	2.84042
17.31714	-4.50412	2.84042
17.32133	-4.54806	2.84042
17.32551	-4.54806	2.84042
17.32983	-4.59201	2.84042
17.33410	-4.61398	2.84042
17.33839	-4.65793	2.84042
17.34259	-4.70187	2.84042
17.34676	-4.72384	2.84042
17.35094	-4.72384	2.84042
17.35513	-4.76779	2.84042
17.35932	-4.81173	2.84042
17.36350	-4.83371	2.84042
17.36780	-4.87765	2.84042
17.37200	-4.92160	2.84042
17.37619	-4.94357	2.84042
17.38037	-4.94357	2.84042
17.38456	-4.98752	2.84042
17.38874	-5.00949	2.84042
17.39294	-5.07541	2.84042
17.39722	-5.09738	2.84042
17.40151	-5.11935	2.84042
17.40570	-5.16330	2.84042
17.40989	-5.16330	2.84042
17.41408	-5.18527	2.84042
17.41826	-5.22922	2.84042
17.42245	-5.25119	2.84042
17.42664	-5.29513	2.84042
17.43104	-5.29513	2.84042
17.43524	-5.31711	2.84042
17.43943	-5.36105	2.84042
17.44361	-5.40500	2.84042
17.44780	-5.42697	2.84042
17.45199	-5.47091	2.84042
17.45617	-5.47091	2.84042
17.46063	-5.49289	2.84042
17.46485	-5.53683	2.84042
17.46905	-5.55881	2.84042
17.47323	-5.60275	2.84042
17.47742	-5.62472	2.84042
17.48161	-5.62472	2.84042
17.48579	-5.66867	2.84042
17.49006	-5.69064	2.84042
17.49436	-5.71261	2.84042
17.49856	-5.73459	2.84042
17.50275	-5.77853	2.84042
17.50694	-5.77853	2.84042
17.51112	-5.80050	2.84042
17.51531	-5.84445	2.84042
17.51951	-5.86642	2.84042
17.52383	-5.91037	2.84042
17.52804	-5.93234	2.84042
17.53234	-5.95431	2.84042
17.53652	-5.95431	2.84042
17.54071	-5.97629	2.84042
17.54489	-5.99826	2.84042
17.54908	-6.04220	2.84042
17.55333	-6.06418	2.84042
17.55759	-6.08615	2.84042
17.56182	-6.08615	2.84042
17.56601	-6.13009	2.84042
17.57020	-6.15207	2.84042
17.57438	-6.17404	2.84042
17.57857	-6.19601	2.84042
17.58275	-6.21798	2.84042
17.58705	-6.26193	2.84042
17.59128	-6.26193	2.84042
17.59548	-6.28390	2.84042
17.59967	-6.30588	2.84042
17.60386	-6.32785	2.84042
17.60804	-6.34982	2.84042
17.61222	-6.34982	2.84042
17.61666	-6.39377	2.84042
17.62087	-6.39377	2.84042
17.62506	-6.41574	2.84042
17.62924	-6.43771	2.84042
17.63353	-6.45968	2.84042
17.63773	-6.48166	2.84042
17.64192	-6.48166	2.84042
17.64617	-6.50363	2.84042
17.65044	-6.54757	2.84042
17.65464	-6.54757	2.84042
17.65883	-6.59152	2.84042
17.66301	-6.59152	2.84042
17.66720	-6.61349	2.84042
17.67138	-6.61349	2.84042
17.67557	-6.65744	2.84042
17.67986	-6.65744	2.84042
17.68407	-6.67941	2.84042
17.68825	-6.70138	2.84042
17.69246	-6.72336	2.84042
17.69667	-6.72336	2.84042
17.70087	-6.74533	2.84042
17.70505	-6.76730	2.84042
17.70951	-6.78927	2.84042
17.71374	-6.81125	2.84042
17.71793	-6.81125	2.84042
17.72212	-6.81125	2.84042
17.72631	-6.83322	2.84042
17.73049	-6.85519	2.84042
17.73480	-6.87716	2.84042
17.73905	-6.87716	2.84042
17.74332	-6.87716	2.84042
17.74752	-6.89914	2.84042
17.75170	-6.92111	2.84042
17.75589	-6.92111	2.84042
17.76008	-6.94308	2.84042
17.76426	-6.96506	2.84042
17.76844	-6.98703	2.84042
17.77274	-6.98703	2.84042
17.77695	-6.98703	2.84042
17.78114	-7.00900	2.84042
17.78532	-7.03097	2.84042
17.78951	-7.03097	2.84042
17.79371	-7.05295	2.84042
17.79790	-7.05295	2.84042
17.80234	-7.05295	2.84042
17.80656	-7.07492	2.84042
17.81075	-7.07492	2.84042
17.81494	-7.09689	2.84042
17.81912	-7.11886	2.84042
17.82331	-7.11886	2.84042
17.82749	-7.11886	2.84042
17.83176	-7.14084	2.84042
17.83615	-7.14084	2.84042
17.84034	-7.14084	2.84042
17.84453	-7.16281	2.84042
17.84871	-7.16281	2.84042
17.85290	-7.16281	2.84042
17.85708	-7.16281	2.84042
17.86126	-7.18478	2.84042
17.86556	-7.18478	2.84042
17.86977	-7.20675	2.84042
17.87395	-7.20675	2.84042
17.87814	-7.22873	2.84042
17.88233	-7.22873	2.84042
17.88651	-7.22873	2.84042
17.89071	-7.22873	2.84042
17.89502	-7.22873	2.84042
17.89930	-7.22873	2.84042
17.90350	-7.25070	2.84042
17.90769	-7.25070	2.84042
17.91187	-7.25070	2.84042
17.91606	-7.25070	2.84042
17.92024	-7.25070	2.84042
17.92443	-7.25070	2.84042
17.92872	-7.27267	2.84042
17.93293	-7.27267	2.84042
17.93722	-7.27267	2.84042
17.94141	-7.27267	2.84042
17.94559	-7.27267	2.84042
17.94978	-7.27267	2.84042
17.95396	-7.27267	2.84042
17.95840	-7.27267	2.84042
17.96263	-7.27267	2.84042
17.96682	-7.27267	2.84042
17.97101	-7.27267	2.84042
17.97519	-7.27267	2.84042
17.97938	-7.27267	2.84042
17.98356	-7.27267	2.84042
17.98782	-7.27267	2.84042
17.99212	-7.27267	2.84042
17.99633	-7.27267	2.84042
18.00053	-7.25070	2.84042
18.00471	-7.27267	2.84042
18.00890	-7.27267	2.84042
18.01308	-7.27267	2.84042
18.01727	-7.25070	2.84042
18.02159	-7.25070	2.84042
18.02581	-7.25070	2.84042
18.03001	-7.25070	2.84042
18.03420	-7.25070	2.84042
18.03850	-7.25070	2.84042
18.04270	-7.22873	2.84042
18.04688	-7.22873	2.84042
18.05131	-7.22873	2.84042
18.05552	-7.20675	2.84042
18.05971	-7.20675	2.84042
18.06389	-7.20675	2.84042
18.06808	-7.20675	2.84042
18.07226	-7.18478	2.84042
18.07644	-7.18478	2.84042
18.08071	-7.18478	2.84042
18.08499	-7.16281	2.84042
18.08918	-7.16281	2.84042
18.09340	-7.16281	2.84042
18.09760	-7.16281	2.84042
18.10179	-7.14084	2.84042
18.10598	-7.11886	2.84042
18.11017	-7.11886	2.84042
18.11447	-7.11886	2.84042
18.11869	-7.11886	2.84042
18.12288	-7.09689	2.84042
18.12706	-7.09689	2.84042
18.13125	-7.07492	2.84042
18.13543	-7.07492	2.84042
18.13972	-7.05295	2.84042
18.14397	-7.05295	2.84042
18.14824	-7.05295	2.84042
18.15244	-7.03097	2.84042
18.15662	-7.00900	2.84042
18.16081	-7.00900	2.84042
18.16499	-6.98703	2.84042
18.16918	-6.98703	2.84042
18.17336	-6.98703	2.84042
18.17766	-6.98703	2.84042
18.18186	-6.94308	2.84042
18.18604	-6.94308	2.84042
18.19023	-6.94308	2.84042
18.19443	-6.92111	2.84042
18.19864	-6.92111	2.84042
18.20283	-6.89914	2.84042
18.20726	-6.89914	2.84042
18.21148	-6.87716	2.84042
18.21567	-6.85519	2.84042
18.21986	-6.83322	2.84042
18.22404	-6.83322	2.84042
18.22823	-6.83322	2.84042
18.23241	-6.81125	2.84042
18.23667	-6.78927	2.84042
18.24112	-6.76730	2.84042
18.24532	-6.76730	2.84042
18.24950	-6.76730	2.84042
18.25369	-6.74533	2.84042
18.25788	-6.72336	2.84042
18.26206	-6.72336	2.84042
18.26625	-6.70138	2.84042
18.27057	-6.67941	2.84042
18.27478	-6.67941	2.84042
18.27897	-6.65744	2.84042
18.28316	-6.65744	2.84042
18.28734	-6.63547	2.84042
18.29153	-6.61349	2.84042
18.29573	-6.59152	2.84042
18.30017	-6.56955	2.84042
18.30439	-6.56955	2.84042
18.30858	-6.54757	2.84042
18.31277	-6.54757	2.84042
18.31696	-6.52560	2.84042
18.32115	-6.50363	2.84042
18.32533	-6.48166	2.84042
18.32961	-6.48166	2.84042
18.33396	-6.48166	2.84042
18.33818	-6.43771	2.84042
18.34251	-6.41574	2.84042
18.34671	-6.41574	2.84042
18.35090	-6.39377	2.84042
18.35510	-6.37179	2.84042
18.35930	-6.37179	2.84042
18.36361	-6.34982	2.84042
18.36782	-6.32785	2.84042
18.37201	-6.30588	2.84042
18.37621	-6.30588	2.84042
18.38040	-6.30588	2.84042
18.38459	-6.26193	2.84042
18.38878	-6.26193	2.84042
18.39325	-6.23996	2.84042
18.39747	-6.21798	2.84042
18.40166	-6.19601	2.84042
18.40586	-6.17404	2.84042
18.41005	-6.17404	2.84042
18.41425	-6.17404	2.84042
18.41844	-6.15207	2.84042
18.42273	-6.13009	2.84042
18.42701	-6.10812	2.84042
18.43121	-6.08615	2.84042
18.43541	-6.08615	2.84042
18.43960	-6.08615	2.84042
18.44390	-6.04220	2.84042
18.44810	-6.02023	2.84042
18.45237	-6.02023	2.84042
18.45665	-5.99826	2.84042
18.46087	-5.97629	2.84042
18.46506	-5.97629	2.84042
18.46925	-5.95431	2.84042
18.47343	-5.93234	2.84042
18.47762	-5.91037	2.84042
18.48180	-5.88839	2.84042
18.48610	-5.88839	2.84042
18.49031	-5.88839	2.84042
18.49452	-5.86642	2.84042
18.49872	-5.84445	2.84042
18.50291	-5.82248	2.84042
18.50710	-5.80050	2.84042
18.51129	-5.80050	2.84042
18.51554	-5.77853	2.84042
18.51983	-5.77853	2.84042
18.52404	-5.75656	2.84042
18.52823	-5.73459	2.84042
18.53244	-5.71261	2.84042
18.53663	-5.71261	2.84042
18.54082	-5.71261	2.84042
18.54511	-5.69064	2.84042
18.54940	-5.66867	2.84042
18.55360	-5.64670	2.84042
18.55779	-5.62472	2.84042
18.56198	-5.62472	2.84042
18.56616	-5.60275	2.84042
18.57035	-5.60275	2.84042
18.57453	-5.58078	2.84042
18.57897	-5.55881	2.84042
18.58318	-5.55881	2.84042
18.58736	-5.53683	2.84042
18.59155	-5.51486	2.84042
18.59575	-5.51486	2.84042
18.59994	-5.49289	2.84042
18.60413	-5.49289	2.84042
18.60838	-5.47091	2.84042
18.61266	-5.44894	2.84042
18.61686	-5.44894	2.84042
18.62104	-5.44894	2.84042
18.62523	-5.42697	2.84042
18.62941	-5.42697	2.84042
18.63360	-5.40500	2.84042
18.63778	-5.38302	2.84042
18.64208	-5.38302	2.84042
18.64639	-5.36105	2.84042
18.65058	-5.36105	2.84042
18.65475	-5.33908	2.84042
18.65894	-5.33908	2.84042
18.66312	-5.29513	2.84042
18.66731	-5.29513	2.84042
18.67156	-5.27316	2.84042
18.67583	-5.27316	2.84042
18.68002	-5.27316	2.84042
18.68423	-5.25119	2.84042
18.68842	-5.25119	2.84042
18.69266	-5.22922	2.84042
18.69685	-5.22922	2.84042
18.70104	-5.20724	2.84042
18.70535	-5.20724	2.84042
18.70956	-5.18527	2.84042
18.71375	-5.16330	2.84042
18.71794	-5.16330	2.84042
18.72213	-5.14132	2.84042
18.72632	-5.14132	2.84042
18.73050	-5.14132	2.84042
18.73495	-5.11935	2.84042
18.73915	-5.09738	2.84042
18.74334	-5.09738	2.84042
18.74763	-5.07541	2.84042
18.75182	-5.07541	2.84042
18.75600	-5.07541	2.84042
18.76019	-5.05343	2.84042
18.76444	-5.03146	2.84042
18.76870	-5.03146	2.84042
18.77289	-5.00949	2.84042
18.77709	-5.00949	2.84042
18.78128	-5.00949	2.84042
18.78547	-4.98752	2.84042
18.78965	-4.98752	2.84042
18.79385	-4.96554	2.84042
18.79817	-4.96554	2.84042
18.80238	-4.96554	2.84042
18.80657	-4.94357	2.84042
18.81075	-4.94357	2.84042
18.81494	-4.92160	2.84042
18.81912	-4.92160	2.84042
18.82331	-4.92160	2.84042
18.82773	-4.89963	2.84042
18.83194	-4.89963	2.84042
18.83613	-4.87765	2.84042
18.84031	-4.87765	2.84042
18.84450	-4.85568	2.84042
18.84880	-4.85568	2.84042
18.85298	-4.83371	2.84042
18.85724	-4.83371	2.84042
18.86150	-4.83371	2.84042
18.86569	-4.83371	2.84042
18.86988	-4.83371	2.84042
18.87406	-4.81173	2.84042
18.87825	-4.81173	2.84042
18.88243	-4.78976	2.84042
18.88662	-4.78976	2.84042
18.89093	-4.78976	2.84042
18.89516	-4.78976	2.84042
18.89935	-4.76779	2.84042
18.90354	-4.76779	2.84042
18.90773	-4.76779	2.84042
18.91191	-4.76779	2.84042
18.91610	-4.74582	2.84042
18.92052	-4.74582	2.84042
18.92473	-4.74582	2.84042
18.92892	-4.72384	2.84042
18.93311	-4.72384	2.84042
18.93729	-4.72384	2.84042
18.94147	-4.70187	2.84042
18.94567	-4.72384	2.84042
18.95008	-4.70187	2.84042
18.95436	-4.70187	2.84042
18.95855	-4.70187	2.84042
18.96275	-4.70187	2.84042
18.96694	-4.70187	2.84042
18.97112	-4.67990	2.84042
18.97532	-4.67990	2.84042
18.97951	-4.67990	2.84042
18.98380	-4.67990	2.84042
18.98801	-4.67990	2.84042
18.99219	-4.67990	2.84042
18.99639	-4.67990	2.84042
19.00058	-4.65793	2.84042
19.00477	-4.65793	2.84042
19.00896	-4.65793	2.84042
19.01321	-4.65793	2.84042
19.01748	-4.65793	2.84042
19.02170	-4.65793	2.84042
19.02589	-4.65793	2.84042
19.03009	-4.65793	2.84042
19.03428	-4.65793	2.84042
19.03846	-4.65793	2.84042
19.04266	-4.65793	2.84042
19.04696	-4.65793	2.84042
19.05127	-4.65793	2.84042
19.05545	-4.65793	2.84042
19.05964	-4.65793	2.84042
19.06383	-4.65793	2.84042
19.06801	-4.67990	2.84042
19.07220	-4.67990	2.84042
19.07697	-4.65793	2.84042
19.08124	-4.65793	2.84042
19.08547	-4.65793	2.84042
19.08968	-4.67990	2.84042
19.09389	-4.67990	2.84042
19.09809	-4.67990	2.84042
19.10228	-4.67990	2.84042
19.10655	-4.67990	2.84042
19.11085	-4.67990	2.84042
19.11505	-4.67990	2.84042
19.11924	-4.70187	2.84042
19.12343	-4.70187	2.84042
19.12762	-4.70187	2.84042
19.13180	-4.70187	2.84042
19.13599	-4.70187	2.84042
19.14029	-4.70187	2.84042
19.14451	-4.70187	2.84042
19.14871	-4.72384	2.84042
19.15300	-4.72384	2.84042
19.15719	-4.72384	2.84042
19.16137	-4.72384	2.84042
19.16556	-4.72384	2.84042
19.17001	-4.74582	2.84042
19.17422	-4.74582	2.84042
19.17841	-4.74582	2.84042
19.18259	-4.74582	2.84042
19.18675	-4.76779	2.84042
19.19093	-4.76779	2.84042
19.19511	-4.76779	2.84042
19.19937	-4.78976	2.84042
19.20366	-4.78976	2.84042
19.20786	-4.78976	2.84042
19.21205	-4.78976	2.84042
19.21624	-4.78976	2.84042
19.22042	-4.81173	2.84042
19.22461	-4.81173	2.84042
19.22879	-4.83371	2.84042
19.23309	-4.83371	2.84042
19.23729	-4.83371	2.84042
19.24148	-4.83371	2.84042
19.24568	-4.83371	2.84042
19.24987	-4.85568	2.84042
19.25416	-4.85568	2.84042
19.25835	-4.85568	2.84042
19.26262	-4.87765	2.84042
19.26689	-4.87765	2.84042
19.27108	-4.89963	2.84042
19.27527	-4.89963	2.84042
19.27946	-4.89963	2.84042
19.28364	-4.89963	2.84042
19.28783	-4.92160	2.84042
19.29201	-4.92160	2.84042
19.29631	-4.94357	2.84042
19.30051	-4.94357	2.84042
19.30470	-4.94357	2.84042
19.30889	-4.94357	2.84042
19.31307	-4.96554	2.84042
19.31726	-4.96554	2.84042
19.32144	-4.98752	2.84042
19.32569	-4.98752	2.84042
19.32996	-4.98752	2.84042
19.33417	-5.00949	2.84042
19.33837	-5.00949	2.84042
19.34255	-5.00949	2.84042
19.34675	-5.03146	2.84042
19.35094	-5.03146	2.84042
19.35523	-5.05343	2.84042
19.35953	-5.05343	2.84042
19.36374	-5.05343	2.84042
19.36793	-5.07541	2.84042
19.37212	-5.07541	2.84042
19.37630	-5.09738	2.84042
19.38049	-5.09738	2.84042
19.38467	-5.09738	2.84042
19.38911	-5.11935	2.84042
19.39333	-5.11935	2.84042
19.39752	-5.11935	2.84042
19.40170	-5.14132	2.84042
19.40589	-5.14132	2.84042
19.41007	-5.16330	2.84042
19.41426	-5.16330	2.84042
19.41852	-5.16330	2.84042
19.42282	-5.18527	2.84042
19.42702	-5.18527	2.84042
19.43121	-5.20724	2.84042
19.43539	-5.20724	2.84042
19.43957	-5.22922	2.84042
19.44376	-5.22922	2.84042
19.44794	-5.22922	2.84042
19.45224	-5.25119	2.84042
19.45655	-5.25119	2.84042
19.46074	-5.27316	2.84042
19.46493	-5.27316	2.84042
19.46911	-5.27316	2.84042
19.47329	-5.27316	2.84042
19.47748	-5.29513	2.84042
19.48173	-5.29513	2.84042
19.48600	-5.31711	2.84042
19.49019	-5.31711	2.84042
19.49438	-5.31711	2.84042
19.49857	-5.33908	2.84042
19.50275	-5.33908	2.84042
19.50693	-5.36105	2.84042
19.51111	-5.36105	2.84042
19.51541	-5.38302	2.84042
19.51961	-5.38302	2.84042
19.52380	-5.38302	2.84042
19.52799	-5.40500	2.84042
19.53218	-5.40500	2.84042
19.53636	-5.40500	2.84042
19.54054	-5.42697	2.84042
19.54480	-5.42697	2.84042
19.54907	-5.42697	2.84042
19.55327	-5.44894	2.84042
19.55756	-5.44894	2.84042
19.56175	-5.47091	2.84042
19.56593	-5.47091	2.84042
19.57012	-5.47091	2.84042
19.57430	-5.47091	2.84042
19.57860	-5.49289	2.84042
19.58276	-5.49289	2.84042
19.58695	-5.49289	2.84042
19.59114	-5.51486	2.84042
19.59532	-5.51486	2.84042
19.59951	-5.51486	2.84042
19.60369	-5.51486	2.84042
19.60794	-5.53683	2.84042
19.61222	-5.53683	2.84042
19.61641	-5.55881	2.84042
19.62060	-5.55881	2.84042
19.62478	-5.53683	2.84042
19.62897	-5.53683	2.84042
19.63315	-5.55881	2.84042
19.63733	-5.55881	2.84042
19.64163	-5.58078	2.84042
19.64584	-5.58078	2.84042
19.65003	-5.58078	2.84042
19.65422	-5.58078	2.84042
19.65851	-5.58078	2.84042
19.66270	-5.60275	2.84042
19.66688	-5.60275	2.84042
19.67131	-5.60275	2.84042
19.67552	-5.60275	2.84042
19.67971	-5.60275	2.84042
19.68390	-5.60275	2.84042
19.68808	-5.60275	2.84042
19.69227	-5.60275	2.84042
19.69645	-5.62472	2.84042
19.70071	-5.62472	2.84042
19.70499	-5.62472	2.84042
19.70919	-5.62472	2.84042
19.71337	-5.62472	2.84042
19.71756	-5.62472	2.84042
19.72174	-5.62472	2.84042
19.72593	-5.62472	2.84042
19.73011	-5.62472	2.84042
19.73441	-5.62472	2.84042
19.73863	-5.62472	2.84042
19.74282	-5.62472	2.84042
19.74700	-5.62472	2.84042
19.75119	-5.62472	2.84042
19.75538	-5.62472	2.84042
19.75967	-5.62472	2.84042
19.76392	-5.62472	2.84042
19.76819	-5.62472	2.84042
19.77238	-5.62472	2.84042
19.77657	-5.62472	2.84042
19.78075	-5.62472	2.84042
19.78493	-5.62472	2.84042
19.78912	-5.62472	2.84042
19.79331	-5.60275	2.84042
19.79761	-5.62472	2.84042
19.80182	-5.60275	2.84042
19.80601	-5.60275	2.84042
19.81020	-5.60275	2.84042
19.81438	-5.60275	2.84042
19.81857	-5.60275	2.84042
19.82275	-5.58078	2.84042
19.82700	-5.58078	2.84042
19.83127	-5.58078	2.84042
19.83546	-5.58078	2.84042
19.83964	-5.55881	2.84042
19.84383	-5.58078	2.84042
19.84801	-5.55881	2.84042
19.85220	-5.55881	2.84042
19.85639	-5.55881	2.84042
19.86079	-5.55881	2.84042
19.86498	-5.55881	2.84042
19.86917	-5.53683	2.84042
19.87335	-5.53683	2.84042
19.87754	-5.51486	2.84042
19.88172	-5.51486	2.84042
19.88590	-5.51486	2.84042
19.89032	-5.51486	2.84042
19.89453	-5.49289	2.84042
19.89873	-5.49289	2.84042
19.90292	-5.47091	2.84042
19.90710	-5.47091	2.84042
19.91128	-5.47091	2.84042
19.91547	-5.44894	2.84042
19.91971	-5.44894	2.84042
19.92399	-5.44894	2.84042
19.92819	-5.42697	2.84042
19.93238	-5.42697	2.84042
19.93656	-5.40500	2.84042
19.94075	-5.40500	2.84042
19.94493	-5.40500	2.84042
19.94911	-5.38302	2.84042
19.95342	-5.38302	2.84042
19.95763	-5.36105	2.84042
19.96193	-5.36105	2.84042
19.96611	-5.33908	2.84042
19.97030	-5.33908	2.84042
19.97448	-5.31711	2.84042
19.97867	-5.31711	2.84042
19.98292	-5.29513	2.84042
19.98719	-5.29513	2.84042
19.99139	-5.27316	2.84042
19.99557	-5.27316	2.84042
19.99976	-5.25119	2.84042
20.00394	-5.25119	2.84042
20.00812	-5.22922	2.84042
20.01231	-5.22922	2.84042
20.01660	-5.22922	2.84042
20.02080	-5.20724	2.84042
20.02499	-5.18527	2.84042
20.02917	-5.16330	2.84042
20.03336	-5.16330	2.84042
20.03754	-5.14132	2.84042
20.04173	-5.14132	2.84042
20.04598	-5.11935	2.84042
20.05025	-5.09738	2.84042
20.05444	-5.09738	2.84042
20.05864	-5.07541	2.84042
20.06293	-5.05343	2.84042
20.06712	-5.03146	2.84042
20.07130	-5.03146	2.84042
20.07548	-5.03146	2.84042
20.07978	-5.00949	2.84042
20.08398	-4.98752	2.84042
20.08817	-4.96554	2.84042
20.09235	-4.96554	2.84042
20.09653	-4.96554	2.84042
20.10072	-4.94357	2.84042
20.10490	-4.92160	2.84042
20.10915	-4.89963	2.84042
20.11342	-4.87765	2.84042
20.11761	-4.87765	2.84042
20.12180	-4.87765	2.84042
20.12598	-4.85568	2.84042
20.13017	-4.83371	2.84042
20.13435	-4.81173	2.84042
20.13854	-4.78976	2.84042
20.14286	-4.76779	2.84042
20.14706	-4.74582	2.84042
20.15124	-4.74582	2.84042
20.15543	-4.72384	2.84042
20.15961	-4.70187	2.84042
20.16390	-4.70187	2.84042
20.16809	-4.67990	2.84042
20.17253	-4.65793	2.84042
20.17675	-4.63595	2.84042
20.18094	-4.63595	2.84042
20.18512	-4.61398	2.84042
20.18931	-4.59201	2.84042
20.19349	-4.57004	2.84042
20.19768	-4.54806	2.84042
20.20192	-4.54806	2.84042
20.20621	-4.52609	2.84042
20.21043	-4.50412	2.84042
20.21463	-4.48214	2.84042
20.21881	-4.46017	2.84042
20.22300	-4.46017	2.84042
20.22718	-4.43820	2.84042
20.23138	-4.43820	2.84042
20.23570	-4.39425	2.84042
20.23995	-4.37228	2.84042
20.24416	-4.37228	2.84042
20.24835	-4.35031	2.84042
20.25254	-4.32834	2.84042
20.25672	-4.32834	2.84042
20.26092	-4.30636	2.84042
20.26551	-4.28439	2.84042
20.26972	-4.24045	2.84042
20.27390	-4.24045	2.84042
20.27809	-4.19650	2.84042
20.28228	-4.19650	2.84042
20.28647	-4.19650	2.84042
20.29066	-4.17453	2.84042
20.29493	-4.15256	2.84042
20.29920	-4.13058	2.84042
20.30339	-4.13058	2.84042
20.30758	-4.10861	2.84042
20.31177	-4.08664	2.84042
20.31596	-4.06466	2.84042
20.32014	-4.06466	2.84042
20.32433	-4.02072	2.84042
20.32863	-4.02072	2.84042
20.33285	-4.02072	2.84042
20.33704	-3.99875	2.84042
20.34123	-3.97677	2.84042
20.34542	-3.95480	2.84042
20.34961	-3.93283	2.84042
20.35379	-3.91086	2.84042
20.35827	-3.88888	2.84042
20.36250	-3.88888	2.84042
20.36680	-3.88888	2.84042
20.37099	-3.86691	2.84042
20.37517	-3.84494	2.84042
20.37936	-3.82297	2.84042
20.38354	-3.80099	2.84042
20.38780	-3.80099	2.84042
20.39207	-3.77902	2.84042
20.39627	-3.77902	2.84042
20.40046	-3.75705	2.84042
20.40464	-3.73507	2.84042
20.40882	-3.71310	2.84042
20.41301	-3.71310	2.84042
20.41719	-3.69113	2.84042
20.42149	-3.69113	2.84042
20.42570	-3.66916	2.84042
20.42989	-3.66916	2.84042
20.43407	-3.64718	2.84042
20.43826	-3.62521	2.84042
20.44244	-3.62521	2.84042
20.44663	-3.60324	2.84042
20.45089	-3.60324	2.84042
20.45517	-3.58127	2.84042
20.45937	-3.58127	2.84042
20.46355	-3.53732	2.84042
20.46784	-3.53732	2.84042
20.47203	-3.53732	2.84042
20.47621	-3.51535	2.84042
20.48039	-3.49338	2.84042
20.48469	-3.49338	2.84042
20.48889	-3.47140	2.84042
20.49308	-3.47140	2.84042
20.49727	-3.47140	2.84042
20.50145	-3.47140	2.84042
20.50564	-3.44943	2.84042
20.50982	-3.42746	2.84042
20.51407	-3.42746	2.84042
20.51834	-3.42746	2.84042
20.52253	-3.40548	2.84042
20.52673	-3.40548	2.84042
20.53091	-3.38351	2.84042
20.53510	-3.38351	2.84042
20.53928	-3.38351	2.84042
20.54347	-3.38351	2.84042
20.54778	-3.36154	2.84042
20.55198	-3.33957	2.84042
20.55616	-3.33957	2.84042
20.56035	-3.31759	2.84042
20.56454	-3.31759	2.84042
20.56882	-3.31759	2.84042
20.57301	-3.31759	2.84042
20.57744	-3.29562	2.84042
20.58165	-3.29562	2.84042
20.58583	-3.29562	2.84042
20.59002	-3.29562	2.84042
20.59420	-3.29562	2.84042
20.59839	-3.27365	2.84042
20.60257	-3.27365	2.84042
20.60683	-3.27365	2.84042
20.61111	-3.27365	2.84042
20.61531	-3.25168	2.84042
20.61950	-3.25168	2.84042
20.62368	-3.25168	2.84042
20.62786	-3.25168	2.84042
20.63205	-3.25168	2.84042
20.63623	-3.25168	2.84042
20.64054	-3.22970	2.84042
20.64477	-3.22970	2.84042
20.64897	-3.22970	2.84042
20.65316	-3.22970	2.84042
20.65735	-3.22970	2.84042
20.66154	-3.22970	2.84042
20.66573	-3.22970	2.84042
20.67010	-3.22970	2.84042
20.67437	-3.22970	2.84042
20.67857	-3.22970	2.84042
20.68275	-3.22970	2.84042
20.68694	-3.22970	2.84042
20.69113	-3.22970	2.84042
20.69531	-3.22970	2.84042
20.69950	-3.20773	2.84042
20.70380	-3.20773	2.84042
20.70800	-3.22970	2.84042
20.71219	-3.22970	2.84042
20.71637	-3.22970	2.84042
20.72056	-3.22970	2.84042
20.72474	-3.22970	2.84042
20.72892	-3.22970	2.84042
20.73317	-3.22970	2.84042
20.73744	-3.20773	2.84042
20.74163	-3.22970	2.84042
20.74584	-3.22970	2.84042
20.75004	-3.22970	2.84042
20.75423	-3.22970	2.84042
20.75841	-3.22970	2.84042
20.76260	-3.22970	2.84042
20.76694	-3.22970	2.84042
20.77127	-3.22970	2.84042
20.77546	-3.22970	2.84042
20.77966	-3.22970	2.84042
20.78385	-3.25168	2.84042
20.78805	-3.22970	2.84042
20.79223	-3.25168	2.84042
20.79671	-3.25168	2.84042
20.80095	-3.25168	2.84042
20.80514	-3.25168	2.84042
20.80933	-3.27365	2.84042
20.81351	-3.27365	2.84042
20.81770	-3.27365	2.84042
20.82188	-3.27365	2.84042
20.82613	-3.27365	2.84042
20.83041	-3.29562	2.84042
20.83462	-3.29562	2.84042
20.83880	-3.29562	2.84042
20.84299	-3.31759	2.84042
20.84717	-3.29562	2.84042
20.85136	-3.31759	2.84042
20.85554	-3.31759	2.84042
20.85984	-3.31759	2.84042
20.86404	-3.31759	2.84042
20.86824	-3.33957	2.84042
20.87252	-3.33957	2.84042
20.87671	-3.36154	2.84042
20.88089	-3.36154	2.84042
20.88507	-3.36154	2.84042
20.88950	-3.36154	2.84042
20.89371	-3.38351	2.84042
20.89789	-3.38351	2.84042
20.90208	-3.38351	2.84042
20.90626	-3.40548	2.84042
20.91045	-3.40548	2.84042
20.91464	-3.40548	2.84042
20.91888	-3.42746	2.84042
20.92317	-3.42746	2.84042
20.92737	-3.44943	2.84042
20.93155	-3.44943	2.84042
20.93574	-3.47140	2.84042
20.93992	-3.47140	2.84042
20.94410	-3.47140	2.84042
20.94829	-3.47140	2.84042
20.95271	-3.49338	2.84042
20.95692	-3.49338	2.84042
20.96111	-3.51535	2.84042
20.96529	-3.51535	2.84042
20.96948	-3.51535	2.84042
20.97376	-3.53732	2.84042
20.97795	-3.53732	2.84042
20.98219	-3.55929	2.84042
20.98648	-3.55929	2.84042
20.99069	-3.58127	2.84042
20.99488	-3.58127	2.84042
20.99906	-3.58127	2.84042
21.00324	-3.60324	2.84042
21.00743	-3.60324	2.84042
21.01161	-3.62521	2.84042
21.01591	-3.62521	2.84042
21.02011	-3.62521	2.84042
21.02429	-3.64718	2.84042
21.02847	-3.66916	2.84042
21.03266	-3.66916	2.84042
21.03684	-3.69113	2.84042
21.04102	-3.69113	2.84042
21.04527	-3.69113	2.84042
21.04955	-3.71310	2.84042
21.05374	-3.73507	2.84042
21.05792	-3.73507	2.84042
21.06211	-3.75705	2.84042
21.06629	-3.75705	2.84042
21.07048	-3.75705	2.84042
21.07478	-3.77902	2.84042
21.07908	-3.80099	2.84042
21.08328	-3.80099	2.84042
21.08747	-3.82297	2.84042
21.09165	-3.82297	2.84042
21.09584	-3.82297	2.84042
21.10002	-3.84494	2.84042
21.10420	-3.84494	2.84042
21.10862	-3.86691	2.84042
21.11284	-3.88888	2.84042
21.11702	-3.91086	2.84042
21.12121	-3.91086	2.84042
21.12539	-3.91086	2.84042
21.12958	-3.93283	2.84042
21.13376	-3.95480	2.84042
21.13801	-3.95480	2.84042
21.14229	-3.97677	2.84042
21.14649	-3.97677	2.84042
21.15069	-3.97677	2.84042
21.15488	-3.99875	2.84042
21.15906	-4.02072	2.84042
21.16324	-4.02072	2.84042
21.16743	-4.04269	2.84042
21.17173	-4.04269	2.84042
21.17603	-4.04269	2.84042
21.18022	-4.06466	2.84042
21.18440	-4.08664	2.84042
21.18858	-4.08664	2.84042
21.19277	-4.10861	2.84042
21.19695	-4.13058	2.84042
21.20120	-4.13058	2.84042
21.20547	-4.13058	2.84042
21.20967	-4.15256	2.84042
21.21386	-4.15256	2.84042
21.21804	-4.17453	2.84042
21.22222	-4.19650	2.84042
21.22641	-4.19650	2.84042
21.23059	-4.19650	2.84042
21.23487	-4.21847	2.84042
21.23907	-4.24045	2.84042
21.24327	-4.24045	2.84042
21.24745	-4.24045	2.84042
21.25164	-4.26242	2.84042
21.25583	-4.26242	2.84042
21.26001	-4.28439	2.84042
21.26427	-4.28439	2.84042
21.26855	-4.30636	2.84042
21.27276	-4.30636	2.84042
21.27706	-4.32834	2.84042
21.28125	-4.32834	2.84042
21.28543	-4.35031	2.84042
21.28962	-4.35031	2.84042
21.29380	-4.37228	2.84042
21.29811	-4.37228	2.84042
21.30231	-4.39425	2.84042
21.30650	-4.39425	2.84042
21.31070	-4.41623	2.84042
21.31490	-4.41623	2.84042
21.31909	-4.43820	2.84042
21.32327	-4.46017	2.84042
21.32753	-4.46017	2.84042
21.33181	-4.46017	2.84042
21.33601	-4.46017	2.84042
21.34021	-4.48214	2.84042
21.34439	-4.50412	2.84042
21.34858	-4.50412	2.84042
21.35277	-4.52609	2.84042
21.35695	-4.52609	2.84042
21.36126	-4.52609	2.84042
21.36546	-4.54806	2.84042
21.36965	-4.54806	2.84042
21.37384	-4.57004	2.84042
21.37813	-4.57004	2.84042
21.38231	-4.59201	2.84042
21.38650	-4.59201	2.84042
21.39093	-4.59201	2.84042
21.39515	-4.61398	2.84042
21.39934	-4.61398	2.84042
21.40352	-4.63595	2.84042
21.40771	-4.63595	2.84042
21.41189	-4.63595	2.84042
21.41607	-4.65793	2.84042
21.42033	-4.65793	2.84042
21.42462	-4.65793	2.84042
21.42882	-4.67990	2.84042
21.43300	-4.67990	2.84042
21.43719	-4.67990	2.84042
21.44137	-4.70187	2.84042
21.44556	-4.70187	2.84042
21.44974	-4.70187	2.84042
21.45404	-4.72384	2.84042
21.45824	-4.72384	2.84042
21.46243	-4.74582	2.84042
21.46662	-4.74582	2.84042
21.47080	-4.74582	2.84042
21.47499	-4.74582	2.84042
21.47927	-4.76779	2.84042
21.48353	-4.76779	2.84042
21.48780	-4.76779	2.84042
21.49199	-4.76779	2.84042
21.49618	-4.78976	2.84042
21.50037	-4.78976	2.84042
21.50455	-4.81173	2.84042
21.50873	-4.81173	2.84042
21.51291	-4.81173	2.84042
21.51721	-4.81173	2.84042
21.52142	-4.81173	2.84042
21.52560	-4.81173	2.84042
21.52979	-4.83371	2.84042
21.53397	-4.83371	2.84042
21.53816	-4.83371	2.84042
21.54234	-4.83371	2.84042
21.54659	-4.85568	2.84042
21.55084	-4.85568	2.84042
21.55503	-4.85568	2.84042
21.55921	-4.85568	2.84042
21.56340	-4.85568	2.84042
21.56758	-4.85568	2.84042
21.57177	-4.85568	2.84042
21.57595	-4.85568	2.84042
21.58035	-4.87765	2.84042
21.58455	-4.87765	2.84042
21.58873	-4.87765	2.84042
21.59292	-4.87765	2.84042
21.59710	-4.87765	2.84042
21.60128	-4.87765	2.84042
21.60546	-4.89963	2.84042
21.60989	-4.89963	2.84042
21.61410	-4.89963	2.84042
21.61829	-4.89963	2.84042
21.62247	-4.92160	2.84042
21.62667	-4.89963	2.84042
21.63085	-4.89963	2.84042
21.63504	-4.89963	2.84042
21.63928	-4.89963	2.84042
21.64356	-4.92160	2.84042
21.64776	-4.92160	2.84042
21.65194	-4.89963	2.84042
21.65613	-4.92160	2.84042
21.66031	-4.92160	2.84042
21.66450	-4.89963	2.84042
21.66868	-4.89963	2.84042
21.67310	-4.89963	2.84042
21.67733	-4.89963	2.84042
21.68162	-4.89963	2.84042
21.68581	-4.92160	2.84042
21.68999	-4.92160	2.84042
21.69417	-4.92160	2.84042
21.69836	-4.92160	2.84042
21.70263	-4.92160	2.84042
21.70693	-4.92160	2.84042
21.71112	-4.92160	2.84042
21.71531	-4.92160	2.84042
21.71949	-4.92160	2.84042
21.72367	-4.92160	2.84042
21.72786	-4.92160	2.84042
21.73204	-4.92160	2.84042
21.73634	-4.92160	2.84042
21.74055	-4.92160	2.84042
21.74474	-4.92160	2.84042
21.74892	-4.92160	2.84042
21.75310	-4.92160	2.84042
21.75729	-4.92160	2.84042
21.76147	-4.89963	2.84042
21.76572	-4.92160	2.84042
21.76999	-4.92160	2.84042
21.77419	-4.89963	2.84042
21.77838	-4.92160	2.84042
21.78268	-4.92160	2.84042
21.78686	-4.89963	2.84042
21.79105	-4.89963	2.84042
21.79523	-4.89963	2.84042
21.79953	-4.89963	2.84042
21.80372	-4.89963	2.84042
21.80791	-4.89963	2.84042
21.81209	-4.89963	2.84042
21.81628	-4.89963	2.84042
21.82046	-4.89963	2.84042
21.82464	-4.89963	2.84042
21.82889	-4.89963	2.84042
21.83316	-4.87765	2.84042
21.83736	-4.87765	2.84042
21.84154	-4.87765	2.84042
21.84573	-4.87765	2.84042
21.84991	-4.87765	2.84042
21.85410	-4.87765	2.84042
21.85828	-4.87765	2.84042
21.86258	-4.87765	2.84042
21.86676	-4.87765	2.84042
21.87095	-4.87765	2.84042
21.87514	-4.85568	2.84042
21.87932	-4.85568	2.84042
21.88361	-4.85568	2.84042
21.88779	-4.85568	2.84042
21.89222	-4.85568	2.84042
21.89643	-4.85568	2.84042
21.90062	-4.85568	2.84042
21.90480	-4.85568	2.84042
21.90898	-4.85568	2.84042
21.91317	-4.85568	2.84042
21.91735	-4.85568	2.84042
21.92159	-4.85568	2.84042
21.92587	-4.83371	2.84042
21.93007	-4.83371	2.84042
21.93426	-4.83371	2.84042
21.93844	-4.83371	2.84042
21.94263	-4.83371	2.84042
21.94682	-4.83371	2.84042
21.95100	-4.83371	2.84042
21.95542	-4.81173	2.84042
21.95963	-4.83371	2.84042
21.96381	-4.83371	2.84042
21.96800	-4.81173	2.84042
21.97218	-4.81173	2.84042
21.97636	-4.81173	2.84042
21.98055	-4.81173	2.84042
21.98490	-4.81173	2.84042
21.98918	-4.81173	2.84042
21.99338	-4.81173	2.84042
21.99757	-4.81173	2.84042
22.00175	-4.81173	2.84042
22.00593	-4.81173	2.84042
22.01011	-4.78976	2.84042
22.01430	-4.78976	2.84042
22.01859	-4.78976	2.84042
22.02276	-4.78976	2.84042
22.02695	-4.78976	2.84042
22.03113	-4.78976	2.84042
22.03532	-4.78976	2.84042
22.03950	-4.78976	2.84042
22.04368	-4.78976	2.84042
22.04793	-4.78976	2.84042
22.05220	-4.78976	2.84042
22.05639	-4.76779	2.84042
22.06058	-4.76779	2.84042
22.06476	-4.76779	2.84042
22.06894	-4.76779	2.84042
22.07313	-4.76779	2.84042
22.07732	-4.76779	2.84042
22.08162	-4.76779	2.84042
22.08592	-4.74582	2.84042
22.09010	-4.74582	2.84042
22.09428	-4.76779	2.84042
22.09847	-4.74582	2.84042
22.10266	-4.74582	2.84042
22.10684	-4.74582	2.84042
22.11127	-4.74582	2.84042
22.11548	-4.74582	2.84042
22.11967	-4.74582	2.84042
22.12385	-4.72384	2.84042
22.12804	-4.72384	2.84042
22.13222	-4.72384	2.84042
22.13640	-4.72384	2.84042
22.14064	-4.72384	2.84042
22.14493	-4.72384	2.84042
22.14912	-4.72384	2.84042
22.15331	-4.72384	2.84042
22.15749	-4.70187	2.84042
22.16168	-4.70187	2.84042
22.16586	-4.70187	2.84042
22.17007	-4.70187	2.84042
22.17438	-4.70187	2.84042
22.17859	-4.70187	2.84042
22.18275	-4.70187	2.84042
22.18704	-4.70187	2.84042
22.19122	-4.67990	2.84042
22.19541	-4.67990	2.84042
22.19959	-4.67990	2.84042
22.20384	-4.67990	2.84042
22.20811	-4.67990	2.84042
22.21232	-4.67990	2.84042
22.21651	-4.65793	2.84042
22.22069	-4.65793	2.84042
22.22488	-4.67990	2.84042
22.22906	-4.67990	2.84042
22.23324	-4.65793	2.84042
22.23755	-4.65793	2.84042
22.24175	-4.65793	2.84042
22.24595	-4.65793	2.84042
22.25013	-4.65793	2.84042
22.25432	-4.65793	2.84042
22.25850	-4.63595	2.84042
22.26269	-4.63595	2.84042
22.26696	-4.63595	2.84042
22.27123	-4.63595	2.84042
22.27543	-4.63595	2.84042
22.27962	-4.63595	2.84042
22.28380	-4.63595	2.84042
22.28808	-4.61398	2.84042
22.29227	-4.61398	2.84042
22.29645	-4.61398	2.84042
22.30079	-4.61398	2.84042
22.30500	-4.61398	2.84042
22.30919	-4.61398	2.84042
22.31337	-4.61398	2.84042
22.31756	-4.61398	2.84042
22.32174	-4.61398	2.84042
22.32593	-4.61398	2.84042
22.33018	-4.59201	2.84042
22.33446	-4.59201	2.84042
22.33867	-4.59201	2.84042
22.34286	-4.59201	2.84042
22.34705	-4.59201	2.84042
22.35123	-4.59201	2.84042
22.35542	-4.59201	2.84042
22.35960	-4.59201	2.84042
22.36390	-4.59201	2.84042
22.36810	-4.57004	2.84042
22.37229	-4.59201	2.84042
22.37647	-4.57004	2.84042
22.38067	-4.57004	2.84042
22.38485	-4.59201	2.84042
22.38913	-4.57004	2.84042
22.39357	-4.57004	2.84042
22.39778	-4.57004	2.84042
22.40197	-4.57004	2.84042
22.40615	-4.57004	2.84042
22.41034	-4.57004	2.84042
22.41452	-4.57004	2.84042
22.41871	-4.54806	2.84042
22.42296	-4.54806	2.84042
22.42726	-4.54806	2.84042
22.43145	-4.54806	2.84042
22.43564	-4.54806	2.84042
22.43982	-4.54806	2.84042
22.44400	-4.54806	2.84042
22.44819	-4.54806	2.84042
22.45237	-4.54806	2.84042
22.45678	-4.54806	2.84042
22.46100	-4.54806	2.84042
22.46519	-4.54806	2.84042
22.46937	-4.54806	2.84042
22.47356	-4.54806	2.84042
22.47774	-4.54806	2.84042
22.48193	-4.54806	2.84042
22.48618	-4.54806	2.84042
22.49058	-4.54806	2.84042
22.49477	-4.54806	2.84042
22.49895	-4.54806	2.84042
22.50314	-4.54806	2.84042
22.50732	-4.54806	2.84042
22.51151	-4.54806	2.84042
22.51569	-4.54806	2.84042
22.51999	-4.54806	2.84042
22.52419	-4.52609	2.84042
22.52837	-4.54806	2.84042
22.53256	-4.54806	2.84042
22.53675	-4.54806	2.84042
22.54094	-4.54806	2.84042
22.54512	-4.54806	2.84042
22.54938	-4.52609	2.84042
22.55366	-4.54806	2.84042
22.55786	-4.54806	2.84042
22.56205	-4.54806	2.84042
22.56624	-4.54806	2.84042
22.57042	-4.54806	2.84042
22.57461	-4.54806	2.84042
22.57880	-4.54806	2.84042
22.58310	-4.54806	2.84042
22.58730	-4.54806	2.84042
22.59159	-4.54806	2.84042
22.59577	-4.54806	2.84042
22.59996	-4.54806	2.84042
22.60414	-4.52609	2.84042
22.60833	-4.54806	2.84042
22.61273	-4.54806	2.84042
22.61695	-4.54806	2.84042
22.62114	-4.54806	2.84042
22.62533	-4.54806	2.84042
22.62951	-4.54806	2.84042
22.63369	-4.54806	2.84042
22.63787	-4.54806	2.84042
22.64211	-4.54806	2.84042
22.64640	-4.52609	2.84042
22.65060	-4.54806	2.84042
22.65475	-4.54806	2.84042
22.65893	-4.54806	2.84042
22.66312	-4.54806	2.84042
22.66730	-4.54806	2.84042
22.67148	-4.54806	2.84042
22.67589	-4.54806	2.84042
22.68011	-4.54806	2.84042
22.68431	-4.54806	2.84042
22.68849	-4.54806	2.84042
22.69278	-4.54806	2.84042
22.69696	-4.54806	2.84042
22.70114	-4.54806	2.84042
22.70539	-4.54806	2.84042
22.70967	-4.54806	2.84042
22.71387	-4.57004	2.84042
22.71806	-4.54806	2.84042
22.72224	-4.54806	2.84042
22.72643	-4.54806	2.84042
22.73062	-4.57004	2.84042
22.73480	-4.54806	2.84042
22.73910	-4.54806	2.84042
22.74331	-4.54806	2.84042
22.74749	-4.57004	2.84042
22.75168	-4.57004	2.84042
22.75586	-4.57004	2.84042
22.76004	-4.57004	2.84042
22.76423	-4.57004	2.84042
22.76847	-4.57004	2.84042
22.77275	-4.57004	2.84042
22.77694	-4.57004	2.84042
22.78113	-4.57004	2.84042
22.78532	-4.57004	2.84042
22.78951	-4.57004	2.84042
22.79379	-4.57004	2.84042
22.79798	-4.57004	2.84042
22.80228	-4.57004	2.84042
22.80648	-4.57004	2.84042
22.81067	-4.57004	2.84042
22.81485	-4.57004	2.84042
22.81904	-4.57004	2.84042
22.82322	-4.59201	2.84042
22.82741	-4.59201	2.84042
22.83165	-4.59201	2.84042
22.83592	-4.59201	2.84042
22.84011	-4.59201	2.84042
22.84430	-4.59201	2.84042
22.84848	-4.59201	2.84042
22.85266	-4.59201	2.84042
22.85685	-4.59201	2.84042
22.86103	-4.59201	2.84042
22.86532	-4.59201	2.84042
22.86952	-4.59201	2.84042
22.87371	-4.61398	2.84042
22.87789	-4.61398	2.84042
22.88208	-4.61398	2.84042
22.88627	-4.61398	2.84042
22.89045	-4.61398	2.84042
22.89483	-4.61398	2.84042
22.89909	-4.61398	2.84042
22.90328	-4.61398	2.84042
22.90747	-4.61398	2.84042
22.91165	-4.61398	2.84042
22.91584	-4.61398	2.84042
22.92002	-4.61398	2.84042
22.92422	-4.63595	2.84042
22.92853	-4.61398	2.84042
22.93273	-4.61398	2.84042
22.93692	-4.63595	2.84042
22.94110	-4.63595	2.84042
22.94529	-4.63595	2.84042
22.94947	-4.63595	2.84042
22.95366	-4.63595	2.84042
22.95790	-4.63595	2.84042
22.96217	-4.63595	2.84042
22.96636	-4.63595	2.84042
22.97055	-4.63595	2.84042
22.97474	-4.65793	2.84042
22.97892	-4.65793	2.84042
22.98311	-4.65793	2.84042
22.98729	-4.65793	2.84042
22.99159	-4.65793	2.84042
22.99589	-4.65793	2.84042
23.00008	-4.65793	2.84042
23.00426	-4.65793	2.84042
23.00845	-4.65793	2.84042
23.01263	-4.65793	2.84042
23.01682	-4.67990	2.84042
23.02123	-4.67990	2.84042
23.02545	-4.67990	2.84042
23.02963	-4.67990	2.84042
23.03382	-4.67990	2.84042
23.03800	-4.67990	2.84042
23.04219	-4.67990	2.84042
23.04637	-4.70187	2.84042
23.05063	-4.70187	2.84042
23.05492	-4.70187	2.84042
23.05912	-4.70187	2.84042
23.06331	-4.70187	2.84042
23.06749	-4.70187	2.84042
23.07168	-4.72384	2.84042
23.07586	-4.72384	2.84042
23.08007	-4.72384	2.84042
23.08437	-4.72384	2.84042
23.08858	-4.72384	2.84042
23.09276	-4.72384	2.84042
23.09705	-4.72384	2.84042
23.10124	-4.72384	2.84042
23.10542	-4.72384	2.84042
23.10961	-4.74582	2.84042
23.11386	-4.74582	2.84042
23.11813	-4.74582	2.84042
23.12232	-4.74582	2.84042
23.12650	-4.76779	2.84042
23.13070	-4.76779	2.84042
23.13488	-4.76779	2.84042
23.13906	-4.76779	2.84042
23.14325	-4.76779	2.84042
23.14754	-4.76779	2.84042
23.15174	-4.78976	2.84042
23.15593	-4.78976	2.84042
23.16011	-4.78976	2.84042
23.16430	-4.78976	2.84042
23.16848	-4.78976	2.84042
23.17266	-4.78976	2.84042
23.17691	-4.78976	2.84042
23.18118	-4.78976	2.84042
23.18537	-4.81173	2.84042
23.18957	-4.81173	2.84042
23.19375	-4.81173	2.84042
23.19804	-4.81173	2.84042
23.20222	-4.81173	2.84042
23.20640	-4.83371	2.84042
23.21072	-4.83371	2.84042
23.21492	-4.83371	2.84042
23.21911	-4.83371	2.84042
23.22329	-4.83371	2.84042
23.22748	-4.83371	2.84042
23.23166	-4.85568	2.84042
23.23585	-4.85568	2.84042
23.24010	-4.87765	2.84042
23.24438	-4.87765	2.84042
23.24858	-4.87765	2.84042
23.25276	-4.87765	2.84042
23.25695	-4.87765	2.84042
23.26113	-4.87765	2.84042
23.26532	-4.89963	2.84042
23.26950	-4.89963	2.84042
23.27381	-4.89963	2.84042
23.27802	-4.89963	2.84042
23.28221	-4.89963	2.84042
23.28640	-4.92160	2.84042
23.29058	-4.92160	2.84042
23.29476	-4.92160	2.84042
23.29906	-4.92160	2.84042
23.30333	-4.92160	2.84042
23.30761	-4.92160	2.84042
23.31181	-4.94357	2.84042
23.31600	-4.94357	2.84042
23.32018	-4.94357	2.84042
23.32437	-4.94357	2.84042
23.32855	-4.94357	2.84042
23.33274	-4.94357	2.84042
23.33705	-4.96554	2.84042
23.34125	-4.96554	2.84042
23.34544	-4.96554	2.84042
23.34963	-4.96554	2.84042
23.35381	-4.98752	2.84042
23.35799	-4.96554	2.84042
23.36218	-4.98752	2.84042
23.36644	-4.98752	2.84042
23.37072	-4.98752	2.84042
23.37491	-4.98752	2.84042
23.37911	-4.98752	2.84042
23.38329	-5.00949	2.84042
23.38747	-5.00949	2.84042
23.39166	-5.00949	2.84042
23.39584	-5.00949	2.84042
23.40024	-5.00949	2.84042
23.40444	-5.00949	2.84042
23.40863	-5.00949	2.84042
23.41281	-5.03146	2.84042
23.41700	-5.03146	2.84042
23.42118	-5.03146	2.84042
23.42536	-5.03146	2.84042
23.42980	-5.03146	2.84042
23.43400	-5.03146	2.84042
23.43819	-5.05343	2.84042
23.44237	-5.05343	2.84042
23.44656	-5.05343	2.84042
23.45075	-5.05343	2.84042
23.45493	-5.05343	2.84042
23.45918	-5.05343	2.84042
23.46346	-5.05343	2.84042
23.46766	-5.07541	2.84042
23.47184	-5.05343	2.84042
23.47603	-5.07541	2.84042
23.48021	-5.07541	2.84042
23.48440	-5.07541	2.84042
23.48858	-5.07541	2.84042
23.49303	-5.07541	2.84042
23.49724	-5.07541	2.84042
23.50153	-5.07541	2.84042
23.50571	-5.07541	2.84042
23.50990	-5.07541	2.84042
23.51408	-5.07541	2.84042
23.51827	-5.07541	2.84042
23.52252	-5.09738	2.84042
23.52680	-5.07541	2.84042
23.53100	-5.09738	2.84042
23.53518	-5.09738	2.84042
23.53937	-5.09738	2.84042
23.54355	-5.09738	2.84042
23.54774	-5.09738	2.84042
23.55192	-5.09738	2.84042
23.55622	-5.09738	2.84042
23.56042	-5.09738	2.84042
23.56460	-5.09738	2.84042
23.56879	-5.09738	2.84042
23.57298	-5.09738	2.84042
23.57716	-5.09738	2.84042
23.58134	-5.09738	2.84042
23.58559	-5.09738	2.84042
23.58986	-5.09738	2.84042
23.59406	-5.09738	2.84042
23.59825	-5.09738	2.84042
23.60253	-5.09738	2.84042
23.60673	-5.09738	2.84042
23.61092	-5.09738	2.84042
23.61510	-5.09738	2.84042
23.61940	-5.09738	2.84042
23.62360	-5.09738	2.84042
23.62779	-5.09738	2.84042
23.63197	-5.09738	2.84042
23.63616	-5.09738	2.84042
23.64034	-5.09738	2.84042
23.64453	-5.07541	2.84042
23.64878	-5.09738	2.84042
23.65305	-5.09738	2.84042
23.65724	-5.07541	2.84042
23.66143	-5.07541	2.84042
23.66561	-5.07541	2.84042
23.66980	-5.07541	2.84042
23.67399	-5.07541	2.84042
23.67817	-5.07541	2.84042
23.68247	-5.07541	2.84042
23.68668	-5.07541	2.84042
23.69087	-5.07541	2.84042
23.69506	-5.07541	2.84042
23.69924	-5.07541	2.84042
23.70353	-5.05343	2.84042
23.70771	-5.05343	2.84042
23.71216	-5.05343	2.84042
23.71645	-5.05343	2.84042
23.72066	-5.05343	2.84042
23.72485	-5.05343	2.84042
23.72905	-5.05343	2.84042
23.73324	-5.05343	2.84042
23.73742	-5.05343	2.84042
23.74169	-5.05343	2.84042
23.74596	-5.05343	2.84042
23.75016	-5.03146	2.84042
23.75435	-5.03146	2.84042
23.75854	-5.03146	2.84042
23.76274	-5.03146	2.84042
23.76692	-5.03146	2.84042
23.77110	-5.03146	2.84042
23.77540	-5.03146	2.84042
23.77961	-5.00949	2.84042
23.78379	-5.00949	2.84042
23.78798	-5.00949	2.84042
23.79216	-5.00949	2.84042
23.79635	-5.00949	2.84042
23.80053	-5.00949	2.84042
23.80489	-5.00949	2.84042
23.80917	-5.00949	2.84042
23.81337	-4.98752	2.84042
23.81755	-4.98752	2.84042
23.82174	-4.98752	2.84042
23.82592	-4.98752	2.84042
23.83011	-4.98752	2.84042
23.83429	-4.98752	2.84042
23.83859	-4.98752	2.84042
23.84278	-4.96554	2.84042
23.84697	-4.96554	2.84042
23.85115	-4.96554	2.84042
23.85534	-4.96554	2.84042
23.85952	-4.96554	2.84042
23.86371	-4.96554	2.84042
23.86796	-4.96554	2.84042
23.87223	-4.96554	2.84042
23.87643	-4.94357	2.84042
23.88062	-4.94357	2.84042
23.88481	-4.92160	2.84042
23.88899	-4.92160	2.84042
23.89319	-4.92160	2.84042
23.89737	-4.92160	2.84042
23.90167	-4.92160	2.84042
23.90598	-4.92160	2.84042
23.91017	-4.89963	2.84042
23.91436	-4.89963	2.84042
23.91854	-4.89963	2.84042
23.92273	-4.89963	2.84042
23.92692	-4.89963	2.84042
23.93136	-4.89963	2.84042
23.93557	-4.87765	2.84042
23.93975	-4.89963	2.84042
23.94394	-4.87765	2.84042
23.94813	-4.85568	2.84042
23.95231	-4.85568	2.84042
23.95650	-4.85568	2.84042
23.96078	-4.85568	2.84042
23.96506	-4.85568	2.84042
23.96926	-4.85568	2.84042
23.97345	-4.83371	2.84042
23.97764	-4.83371	2.84042
23.98182	-4.83371	2.84042
23.98601	-4.83371	2.84042
23.99019	-4.83371	2.84042
23.99450	-4.83371	2.84042
23.99872	-4.81173	2.84042
24.00290	-4.81173	2.84042
24.00720	-4.81173	2.84042
24.01139	-4.81173	2.84042
24.01557	-4.81173	2.84042
24.01976	-4.81173	2.84042
24.02401	-4.78976	2.84042
24.02829	-4.78976	2.84042
24.03248	-4.78976	2.84042
24.03667	-4.78976	2.84042
24.04086	-4.78976	2.84042
24.04505	-4.78976	2.84042
24.04923	-4.76779	2.84042
24.05342	-4.76779	2.84042
24.05772	-4.76779	2.84042
24.06192	-4.76779	2.84042
24.06611	-4.74582	2.84042
24.07030	-4.74582	2.84042
24.07448	-4.74582	2.84042
24.07867	-4.74582	2.84042
24.08286	-4.74582	2.84042
24.08711	-4.74582	2.84042
24.09139	-4.74582	2.84042
24.09559	-4.72384	2.84042
24.09977	-4.72384	2.84042
24.10396	-4.72384	2.84042
24.10824	-4.72384	2.84042
24.11243	-4.72384	2.84042
24.11661	-4.72384	2.84042
24.12091	-4.72384	2.84042
24.12512	-4.72384	2.84042
24.12931	-4.70187	2.84042
24.13350	-4.70187	2.84042
24.13768	-4.70187	2.84042
24.14186	-4.70187	2.84042
24.14605	-4.70187	2.84042
24.15031	-4.70187	2.84042
24.15458	-4.70187	2.84042
24.15876	-4.67990	2.84042
24.16295	-4.67990	2.84042
24.16714	-4.67990	2.84042
24.17132	-4.67990	2.84042
24.17551	-4.67990	2.84042
24.17969	-4.67990	2.84042
24.18399	-4.67990	2.84042
24.18819	-4.65793	2.84042
24.19238	-4.65793	2.84042
24.19657	-4.67990	2.84042
24.20075	-4.65793	2.84042
24.20494	-4.65793	2.84042
24.20924	-4.65793	2.84042
24.21371	-4.65793	2.84042
24.21792	-4.65793	2.84042
24.22211	-4.65793	2.84042
24.22630	-4.63595	2.84042
24.23049	-4.63595	2.84042
24.23468	-4.63595	2.84042
24.23887	-4.63595	2.84042
24.24313	-4.63595	2.84042
24.24743	-4.63595	2.84042
24.25163	-4.63595	2.84042
24.25582	-4.63595	2.84042
24.26001	-4.63595	2.84042
24.26422	-4.61398	2.84042
24.26841	-4.61398	2.84042
24.27260	-4.61398	2.84042
24.27690	-4.61398	2.84042
24.28111	-4.61398	2.84042
24.28530	-4.61398	2.84042
24.28948	-4.59201	2.84042
24.29367	-4.61398	2.84042
24.29786	-4.61398	2.84042
24.30204	-4.61398	2.84042
24.30630	-4.59201	2.84042
24.31070	-4.59201	2.84042
24.31489	-4.59201	2.84042
24.31908	-4.59201	2.84042
24.32327	-4.59201	2.84042
24.32745	-4.59201	2.84042
24.33164	-4.57004	2.84042
24.33583	-4.59201	2.84042
24.34013	-4.59201	2.84042
24.34434	-4.57004	2.84042
24.34853	-4.57004	2.84042
24.35272	-4.57004	2.84042
24.35691	-4.57004	2.84042
24.36109	-4.57004	2.84042
24.36528	-4.57004	2.84042
24.36953	-4.54806	2.84042
24.37381	-4.54806	2.84042
24.37801	-4.57004	2.84042
24.38219	-4.54806	2.84042
24.38638	-4.54806	2.84042
24.39057	-4.54806	2.84042
24.39475	-4.54806	2.84042
24.39893	-4.54806	2.84042
24.40323	-4.54806	2.84042
24.40744	-4.54806	2.84042
24.41173	-4.54806	2.84042
24.41592	-4.52609	2.84042
24.42010	-4.52609	2.84042
24.42428	-4.52609	2.84042
24.42847	-4.52609	2.84042
24.43291	-4.52609	2.84042
24.43712	-4.52609	2.84042
24.44131	-4.52609	2.84042
24.44549	-4.52609	2.84042
24.44968	-4.52609	2.84042
24.45386	-4.52609	2.84042
24.45805	-4.52609	2.84042
24.46231	-4.50412	2.84042
24.46660	-4.52609	2.84042
24.47076	-4.50412	2.84042
24.47494	-4.50412	2.84042
24.47913	-4.50412	2.84042
24.48331	-4.50412	2.84042
24.48750	-4.50412	2.84042
24.49168	-4.50412	2.84042
24.49614	-4.50412	2.84042
24.50035	-4.48214	2.84042
24.50454	-4.48214	2.84042
24.50872	-4.48214	2.84042
24.51302	-4.50412	2.84042
24.51720	-4.48214	2.84042
24.52138	-4.48214	2.84042
24.52564	-4.48214	2.84042
24.52993	-4.48214	2.84042
24.53414	-4.48214	2.84042
24.53833	-4.48214	2.84042
24.54252	-4.48214	2.84042
24.54673	-4.48214	2.84042
24.55092	-4.48214	2.84042
24.55510	-4.48214	2.84042
24.55940	-4.48214	2.84042
24.56361	-4.48214	2.84042
24.56780	-4.48214	2.84042
24.57199	-4.48214	2.84042
24.57617	-4.48214	2.84042
24.58036	-4.48214	2.84042
24.58455	-4.48214	2.84042
24.58880	-4.48214	2.84042
24.59308	-4.48214	2.84042
24.59727	-4.46017	2.84042
24.60147	-4.48214	2.84042
24.60566	-4.48214	2.84042
24.60984	-4.48214	2.84042
24.61413	-4.48214	2.84042
24.61831	-4.48214	2.84042
24.62263	-4.46017	2.84042
24.62684	-4.48214	2.84042
24.63103	-4.48214	2.84042
24.63522	-4.48214	2.84042
24.63940	-4.48214	2.84042
24.64359	-4.48214	2.84042
24.64777	-4.48214	2.84042
24.65202	-4.48214	2.84042
24.65629	-4.48214	2.84042
24.66049	-4.48214	2.84042
24.66468	-4.48214	2.84042
24.66887	-4.48214	2.84042
24.67305	-4.48214	2.84042
24.67724	-4.48214	2.84042
24.68142	-4.48214	2.84042
24.68572	-4.48214	2.84042
24.68994	-4.48214	2.84042
24.69414	-4.48214	2.84042
24.69833	-4.48214	2.84042
24.70252	-4.48214	2.84042
24.70671	-4.48214	2.84042
24.71090	-4.48214	2.84042
24.71550	-4.48214	2.84042
24.71971	-4.48214	2.84042
24.72390	-4.48214	2.84042
24.72810	-4.48214	2.84042
24.73228	-4.48214	2.84042
24.73647	-4.50412	2.84042
24.74066	-4.50412	2.84042
24.74492	-4.50412	2.84042
24.74920	-4.48214	2.84042
24.75340	-4.50412	2.84042
24.75758	-4.50412	2.84042
24.76178	-4.50412	2.84042
24.76598	-4.50412	2.84042
24.77016	-4.50412	2.84042
24.77435	-4.50412	2.84042
24.77867	-4.50412	2.84042
24.78287	-4.50412	2.84042
24.78706	-4.50412	2.84042
24.79125	-4.50412	2.84042
24.79544	-4.50412	2.84042
24.79962	-4.50412	2.84042
24.80381	-4.50412	2.84042
24.80827	-4.50412	2.84042
24.81248	-4.50412	2.84042
24.81677	-4.50412	2.84042
24.82096	-4.50412	2.84042
24.82514	-4.50412	2.84042
24.82933	-4.52609	2.84042
24.83352	-4.50412	2.84042
24.83778	-4.50412	2.84042
24.84205	-4.52609	2.84042
24.84624	-4.52609	2.84042
24.85043	-4.52609	2.84042
24.85462	-4.52609	2.84042
24.85880	-4.52609	2.84042
24.86299	-4.52609	2.84042
24.86717	-4.52609	2.84042
24.87147	-4.52609	2.84042
24.87567	-4.52609	2.84042
24.87986	-4.52609	2.84042
24.88404	-4.52609	2.84042
24.88823	-4.52609	2.84042
24.89241	-4.52609	2.84042
24.89660	-4.52609	2.84042
24.90085	-4.52609	2.84042
24.90512	-4.52609	2.84042
24.90931	-4.52609	2.84042
24.91350	-4.52609	2.84042
24.91779	-4.52609	2.84042
24.92197	-4.52609	2.84042
24.92616	-4.52609	2.84042
24.93034	-4.52609	2.84042
24.93465	-4.52609	2.84042
24.93886	-4.52609	2.84042
24.94305	-4.52609	2.84042
24.94723	-4.52609	2.84042
24.95142	-4.52609	2.84042
24.95560	-4.52609	2.84042
24.95978	-4.52609	2.84042
24.96404	-4.52609	2.84042
24.96829	-4.52609	2.84042
24.97249	-4.52609	2.84042
24.97667	-4.52609	2.84042
24.98086	-4.52609	2.84042
24.98504	-4.52609	2.84042
24.98923	-4.54806	2.84042
24.99341	-4.52609	2.84042
24.99772	-4.54806	2.84042
25.00193	-4.54806	2.84042
25.00612	-4.54806	2.84042
25.01030	-4.54806	2.84042
25.01449	-4.54806	2.84042
25.01879	-4.54806	2.84042
25.02298	-4.54806	2.84042
25.02744	-4.54806	2.84042
25.03166	-4.54806	2.84042
25.03585	-4.54806	2.84042
25.04003	-4.54806	2.84042
25.04422	-4.54806	2.84042
25.04840	-4.54806	2.84042
25.05259	-4.54806	2.84042
25.05684	-4.54806	2.84042
25.06112	-4.54806	2.84042
25.06532	-4.54806	2.84042
25.06951	-4.57004	2.84042
25.07369	-4.57004	2.84042
25.07787	-4.57004	2.84042
25.08206	-4.57004	2.84042
25.08624	-4.57004	2.84042
25.09054	-4.57004	2.84042
25.09476	-4.57004	2.84042
25.09895	-4.57004	2.84042
25.10313	-4.57004	2.84042
25.10732	-4.57004	2.84042
25.11150	-4.57004	2.84042
25.11568	-4.59201	2.84042
25.12005	-4.59201	2.84042
25.12431	-4.59201	2.84042
25.12851	-4.59201	2.84042
25.13269	-4.59201	2.84042
25.13688	-4.59201	2.84042
25.14106	-4.59201	2.84042
25.14524	-4.61398	2.84042
25.14943	-4.61398	2.84042
25.15373	-4.61398	2.84042
25.15793	-4.61398	2.84042
25.16212	-4.61398	2.84042
25.16631	-4.61398	2.84042
25.17049	-4.61398	2.84042
25.17469	-4.61398	2.84042
25.17887	-4.61398	2.84042
25.18312	-4.63595	2.84042
25.18739	-4.63595	2.84042
25.19159	-4.63595	2.84042
25.19577	-4.63595	2.84042
25.19996	-4.65793	2.84042
25.20414	-4.65793	2.84042
25.20833	-4.65793	2.84042
25.21252	-4.65793	2.84042
25.21683	-4.65793	2.84042
25.22114	-4.65793	2.84042
25.22533	-4.67990	2.84042
25.22951	-4.65793	2.84042
25.23370	-4.65793	2.84042
25.23788	-4.67990	2.84042
25.24206	-4.67990	2.84042
25.24654	-4.67990	2.84042
25.25076	-4.67990	2.84042
25.25495	-4.67990	2.84042
25.25913	-4.67990	2.84042
25.26332	-4.70187	2.84042
25.26751	-4.70187	2.84042
25.27172	-4.70187	2.84042
25.27599	-4.70187	2.84042
25.28027	-4.70187	2.84042
25.28447	-4.70187	2.84042
25.28866	-4.72384	2.84042
25.29284	-4.72384	2.84042
25.29703	-4.72384	2.84042
25.30121	-4.72384	2.84042
25.30540	-4.72384	2.84042
25.30970	-4.72384	2.84042
25.31390	-4.72384	2.84042
25.31809	-4.72384	2.84042
25.32238	-4.72384	2.84042
25.32656	-4.72384	2.84042
25.33075	-4.74582	2.84042
25.33494	-4.74582	2.84042
25.33940	-4.74582	2.84042
25.34361	-4.74582	2.84042
25.34780	-4.74582	2.84042
25.35199	-4.74582	2.84042
25.35617	-4.74582	2.84042
25.36036	-4.76779	2.84042
25.36454	-4.76779	2.84042
25.36880	-4.74582	2.84042
25.37309	-4.76779	2.84042
25.37729	-4.76779	2.84042
25.38148	-4.76779	2.84042
25.38566	-4.76779	2.84042
25.38985	-4.76779	2.84042
25.39403	-4.76779	2.84042
25.39822	-4.76779	2.84042
25.40252	-4.76779	2.84042
25.40674	-4.76779	2.84042
25.41093	-4.76779	2.84042
25.41511	-4.76779	2.84042
25.41930	-4.78976	2.84042
25.42359	-4.78976	2.84042
25.42777	-4.78976	2.84042
25.43202	-4.78976	2.84042
25.43630	-4.76779	2.84042
25.44050	-4.78976	2.84042
25.44469	-4.78976	2.84042
25.44887	-4.78976	2.84042
25.45306	-4.78976	2.84042
25.45724	-4.78976	2.84042
25.46143	-4.78976	2.84042
25.46573	-4.78976	2.84042
25.46993	-4.78976	2.84042
25.47412	-4.78976	2.84042
25.47831	-4.78976	2.84042
25.48249	-4.78976	2.84042
25.48669	-4.78976	2.84042
25.49087	-4.78976	2.84042
25.49513	-4.78976	2.84042
25.49941	-4.78976	2.84042
25.50361	-4.78976	2.84042
25.50780	-4.78976	2.84042
25.51198	-4.78976	2.84042
25.51617	-4.78976	2.84042
25.52035	-4.78976	2.84042
25.52464	-4.78976	2.84042
25.52897	-4.76779	2.84042
25.53318	-4.76779	2.84042
25.53737	-4.76779	2.84042
25.54155	-4.78976	2.84042
25.54574	-4.78976	2.84042
25.54992	-4.76779	2.84042
25.55411	-4.76779	2.84042
25.55854	-4.76779	2.84042
25.56276	-4.76779	2.84042
25.56695	-4.76779	2.84042
25.57114	-4.76779	2.84042
25.57532	-4.76779	2.84042
25.57950	-4.76779	2.84042
25.58369	-4.76779	2.84042
25.58793	-4.76779	2.84042
25.59222	-4.76779	2.84042
25.59642	-4.76779	2.84042
25.60060	-4.74582	2.84042
25.60479	-4.74582	2.84042
25.60897	-4.74582	2.84042
25.61315	-4.74582	2.84042
25.61734	-4.72384	2.84042
25.62165	-4.74582	2.84042
25.62596	-4.74582	2.84042
25.63014	-4.72384	2.84042
25.63433	-4.72384	2.84042
25.63851	-4.72384	2.84042
25.64270	-4.72384	2.84042
25.64689	-4.72384	2.84042
25.65115	-4.72384	2.84042
25.65542	-4.70187	2.84042
25.65962	-4.72384	2.84042
25.66381	-4.72384	2.84042
25.66799	-4.70187	2.84042
25.67218	-4.70187	2.84042
25.67636	-4.70187	2.84042
25.68055	-4.70187	2.84042
25.68485	-4.67990	2.84042
25.68905	-4.67990	2.84042
25.69324	-4.70187	2.84042
25.69742	-4.67990	2.84042
25.70160	-4.67990	2.84042
25.70579	-4.67990	2.84042
25.70997	-4.67990	2.84042
25.71422	-4.67990	2.84042
25.71851	-4.65793	2.84042
25.72272	-4.65793	2.84042
25.72702	-4.65793	2.84042
25.73120	-4.65793	2.84042
25.73539	-4.65793	2.84042
25.73957	-4.63595	2.84042
25.74376	-4.63595	2.84042
25.74806	-4.63595	2.84042
25.75226	-4.63595	2.84042
25.75645	-4.61398	2.84042
25.76064	-4.61398	2.84042
25.76484	-4.61398	2.84042
25.76904	-4.61398	2.84042
25.77323	-4.61398	2.84042
25.77749	-4.61398	2.84042
25.78176	-4.61398	2.84042
25.78596	-4.61398	2.84042
25.79015	-4.59201	2.84042
25.79434	-4.59201	2.84042
25.79853	-4.59201	2.84042
25.80273	-4.57004	2.84042
25.80691	-4.57004	2.84042
25.81122	-4.57004	2.84042
25.81542	-4.57004	2.84042
25.81961	-4.57004	2.84042
25.82379	-4.57004	2.84042
25.82808	-4.57004	2.84042
25.83226	-4.54806	2.84042
25.83645	-4.54806	2.84042
25.84087	-4.54806	2.84042
25.84509	-4.54806	2.84042
25.84927	-4.54806	2.84042
25.85346	-4.52609	2.84042
25.85764	-4.52609	2.84042
25.86183	-4.52609	2.84042
25.86601	-4.50412	2.84042
25.87026	-4.50412	2.84042
25.87455	-4.50412	2.84042
25.87876	-4.50412	2.84042
25.88294	-4.50412	2.84042
25.88713	-4.50412	2.84042
25.89132	-4.48214	2.84042
25.89550	-4.48214	2.84042
25.89969	-4.48214	2.84042
25.90399	-4.48214	2.84042
25.90820	-4.46017	2.84042
25.91239	-4.46017	2.84042
25.91657	-4.46017	2.84042
25.92075	-4.46017	2.84042
25.92494	-4.46017	2.84042
25.92922	-4.46017	2.84042
25.93348	-4.43820	2.84042
25.93775	-4.43820	2.84042
25.94195	-4.43820	2.84042
25.94613	-4.43820	2.84042
25.95031	-4.43820	2.84042
25.95450	-4.43820	2.84042
25.95869	-4.41623	2.84042
25.96287	-4.41623	2.84042
25.96717	-4.41623	2.84042
25.97137	-4.39425	2.84042
25.97556	-4.39425	2.84042
25.97975	-4.39425	2.84042
25.98393	-4.39425	2.84042
25.98811	-4.39425	2.84042
25.99230	-4.39425	2.84042
25.99654	-4.39425	2.84042
26.00081	-4.37228	2.84042
26.00501	-4.37228	2.84042
26.00920	-4.37228	2.84042
26.01338	-4.37228	2.84042
26.01756	-4.37228	2.84042
26.02175	-4.35031	2.84042
26.02593	-4.37228	2.84042
26.03036	-4.35031	2.84042
26.03457	-4.35031	2.84042
26.03875	-4.35031	2.84042
26.04293	-4.35031	2.84042
26.04712	-4.35031	2.84042
26.05131	-4.32834	2.84042
26.05549	-4.32834	2.84042
26.05988	-4.32834	2.84042
26.06410	-4.32834	2.84042
26.06829	-4.32834	2.84042
26.07248	-4.32834	2.84042
26.07666	-4.30636	2.84042
26.08085	-4.30636	2.84042
26.08503	-4.30636	2.84042
26.08927	-4.30636	2.84042
26.09356	-4.30636	2.84042
26.09776	-4.30636	2.84042
26.10195	-4.30636	2.84042
26.10614	-4.30636	2.84042
26.11032	-4.30636	2.84042
26.11450	-4.30636	2.84042
26.11870	-4.28439	2.84042
26.12300	-4.28439	2.84042
26.12720	-4.28439	2.84042
26.13149	-4.28439	2.84042
26.13568	-4.28439	2.84042
26.13986	-4.28439	2.84042
26.14405	-4.28439	2.84042
26.14823	-4.28439	2.84042
26.15248	-4.28439	2.84042
26.15675	-4.28439	2.84042
26.16095	-4.28439	2.84042
26.16513	-4.28439	2.84042
26.16931	-4.26242	2.84042
26.17350	-4.26242	2.84042
26.17768	-4.26242	2.84042
26.18186	-4.26242	2.84042
26.18616	-4.26242	2.84042
26.19036	-4.26242	2.84042
26.19455	-4.26242	2.84042
26.19874	-4.26242	2.84042
26.20292	-4.26242	2.84042
26.20711	-4.24045	2.84042
26.21129	-4.24045	2.84042
26.21555	-4.24045	2.84042
26.21982	-4.24045	2.84042
26.22402	-4.24045	2.84042
26.22820	-4.24045	2.84042
26.23249	-4.24045	2.84042
26.23668	-4.21847	2.84042
26.24086	-4.21847	2.84042
26.24504	-4.21847	2.84042
26.24935	-4.21847	2.84042
26.25355	-4.21847	2.84042
26.25774	-4.21847	2.84042
26.26193	-4.21847	2.84042
26.26611	-4.21847	2.84042
26.27030	-4.21847	2.84042
26.27449	-4.21847	2.84042
26.27879	-4.19650	2.84042
26.28306	-4.21847	2.84042
26.28726	-4.19650	2.84042
26.29145	-4.19650	2.84042
26.29563	-4.19650	2.84042
26.29985	-4.19650	2.84042
26.30404	-4.17453	2.84042
26.30823	-4.17453	2.84042
26.31253	-4.17453	2.84042
26.31673	-4.17453	2.84042
26.32092	-4.17453	2.84042
26.32510	-4.17453	2.84042
26.32929	-4.17453	2.84042
26.33358	-4.17453	2.84042
26.33776	-4.17453	2.84042
26.34219	-4.15256	2.84042
26.34640	-4.15256	2.84042
26.35058	-4.15256	2.84042
26.35474	-4.15256	2.84042
26.35893	-4.15256	2.84042
26.36311	-4.15256	2.84042
26.36730	-4.15256	2.84042
26.37155	-4.15256	2.84042
26.37583	-4.15256	2.84042
26.38003	-4.15256	2.84042
26.38422	-4.15256	2.84042
26.38840	-4.13058	2.84042
26.39258	-4.13058	2.84042
26.39677	-4.13058	2.84042
26.40095	-4.13058	2.84042
26.40537	-4.13058	2.84042
26.40958	-4.13058	2.84042
26.41377	-4.13058	2.84042
26.41795	-4.10861	2.84042
26.42214	-4.10861	2.84042
26.42632	-4.10861	2.84042
26.43051	-4.10861	2.84042
26.43489	-4.10861	2.84042
26.43917	-4.10861	2.84042
26.44337	-4.10861	2.84042
26.44756	-4.10861	2.84042
26.45175	-4.10861	2.84042
26.45593	-4.10861	2.84042
26.46012	-4.10861	2.84042
26.46430	-4.08664	2.84042
26.46860	-4.10861	2.84042
26.47280	-4.08664	2.84042
26.47699	-4.08664	2.84042
26.48117	-4.08664	2.84042
26.48535	-4.08664	2.84042
26.48954	-4.08664	2.84042
26.49372	-4.08664	2.84042
26.49797	-4.08664	2.84042
26.50224	-4.08664	2.84042
26.50645	-4.08664	2.84042
26.51064	-4.08664	2.84042
26.51482	-4.06466	2.84042
26.51901	-4.08664	2.84042
26.52319	-4.08664	2.84042
26.52743	-4.08664	2.84042
26.53177	-4.08664	2.84042
26.53608	-4.08664	2.84042
26.54026	-4.08664	2.84042
26.54445	-4.08664	2.84042
26.54863	-4.06466	2.84042
26.55282	-4.06466	2.84042
26.55700	-4.06466	2.84042
26.56145	-4.08664	2.84042
26.56565	-4.08664	2.84042
26.56983	-4.08664	2.84042
26.57402	-4.08664	2.84042
26.57820	-4.06466	2.84042
26.58239	-4.08664	2.84042
26.58657	-4.08664	2.84042
26.59080	-4.08664	2.84042
26.59509	-4.06466	2.84042
26.59929	-4.08664	2.84042
26.60347	-4.08664	2.84042
26.60765	-4.08664	2.84042
26.61184	-4.08664	2.84042
26.61602	-4.08664	2.84042
26.62021	-4.08664	2.84042
26.62457	-4.08664	2.84042
26.62879	-4.08664	2.84042
26.63298	-4.08664	2.84042
26.63729	-4.08664	2.84042
26.64148	-4.08664	2.84042
26.64567	-4.08664	2.84042
26.64986	-4.08664	2.84042
26.65412	-4.08664	2.84042
26.65839	-4.08664	2.84042
26.66259	-4.08664	2.84042
26.66675	-4.08664	2.84042
26.67094	-4.08664	2.84042
26.67513	-4.08664	2.84042
26.67932	-4.10861	2.84042
26.68351	-4.10861	2.84042
26.68782	-4.10861	2.84042
26.69203	-4.10861	2.84042
26.69622	-4.10861	2.84042
26.70040	-4.10861	2.84042
26.70459	-4.10861	2.84042
26.70879	-4.10861	2.84042
26.71298	-4.10861	2.84042
26.71742	-4.13058	2.84042
26.72163	-4.13058	2.84042
26.72582	-4.13058	2.84042
26.73002	-4.13058	2.84042
26.73421	-4.13058	2.84042
26.73851	-4.13058	2.84042
26.74271	-4.13058	2.84042
26.74698	-4.15256	2.84042
26.75131	-4.13058	2.84042
26.75553	-4.15256	2.84042
26.75973	-4.15256	2.84042
26.76393	-4.15256	2.84042
26.76812	-4.15256	2.84042
26.77231	-4.15256	2.84042
26.77658	-4.15256	2.84042
26.78088	-4.15256	2.84042
26.78508	-4.17453	2.84042
26.78927	-4.17453	2.84042
26.79345	-4.17453	2.84042
26.79764	-4.17453	2.84042
26.80184	-4.17453	2.84042
26.80603	-4.17453	2.84042
26.81034	-4.17453	2.84042
26.81454	-4.19650	2.84042
26.81875	-4.19650	2.84042
26.82294	-4.19650	2.84042
26.82712	-4.19650	2.84042
26.83131	-4.19650	2.84042
26.83550	-4.19650	2.84042
26.83987	-4.21847	2.84042
26.84413	-4.19650	2.84042
26.84833	-4.19650	2.84042
26.85252	-4.21847	2.84042
26.85670	-4.21847	2.84042
26.86089	-4.21847	2.84042
26.86507	-4.21847	2.84042
26.86926	-4.24045	2.84042
26.87355	-4.24045	2.84042
26.87776	-4.21847	2.84042
26.88195	-4.24045	2.84042
26.88614	-4.24045	2.84042
26.89033	-4.24045	2.84042
26.89451	-4.24045	2.84042
26.89871	-4.24045	2.84042
26.90296	-4.24045	2.84042
26.90724	-4.24045	2.84042
26.91144	-4.24045	2.84042
26.91563	-4.24045	2.84042
26.91982	-4.24045	2.84042
26.92400	-4.24045	2.84042
26.92819	-4.24045	2.84042
26.93237	-4.26242	2.84042
26.93667	-4.26242	2.84042
26.94098	-4.26242	2.84042
26.94517	-4.26242	2.84042
26.94936	-4.26242	2.84042
26.95354	-4.28439	2.84042
26.95773	-4.28439	2.84042
26.96191	-4.28439	2.84042
26.96634	-4.28439	2.84042
26.97055	-4.28439	2.84042
26.97475	-4.28439	2.84042
26.97895	-4.28439	2.84042
26.98314	-4.28439	2.84042
26.98733	-4.28439	2.84042
26.99152	-4.28439	2.84042
26.99579	-4.28439	2.84042
27.00008	-4.28439	2.84042
27.00428	-4.30636	2.84042
27.00848	-4.30636	2.84042
27.01267	-4.30636	2.84042
27.01686	-4.30636	2.84042
27.02105	-4.30636	2.84042
27.02524	-4.30636	2.84042
27.02956	-4.30636	2.84042
27.03377	-4.30636	2.84042
27.03796	-4.30636	2.84042
27.04226	-4.32834	2.84042
27.04645	-4.32834	2.84042
27.05066	-4.32834	2.84042
27.05485	-4.32834	2.84042
27.05927	-4.32834	2.84042
27.06348	-4.32834	2.84042
27.06767	-4.32834	2.84042
27.07186	-4.32834	2.84042
27.07605	-4.32834	2.84042
27.08023	-4.32834	2.84042
27.08444	-4.32834	2.84042
27.08870	-4.32834	2.84042
27.09298	-4.35031	2.84042
27.09718	-4.35031	2.84042
27.10137	-4.32834	2.84042
27.10555	-4.35031	2.84042
27.10974	-4.35031	2.84042
27.11394	-4.35031	2.84042
27.11812	-4.35031	2.84042
27.12242	-4.35031	2.84042
27.12665	-4.35031	2.84042
27.13084	-4.35031	2.84042
27.13502	-4.35031	2.84042
27.13921	-4.35031	2.84042
27.14350	-4.35031	2.84042
27.14768	-4.37228	2.84042
27.15213	-4.35031	2.84042
27.15634	-4.37228	2.84042
27.16053	-4.37228	2.84042
27.16472	-4.37228	2.84042
27.16890	-4.37228	2.84042
27.17309	-4.37228	2.84042
27.17727	-4.37228	2.84042
27.18153	-4.37228	2.84042
27.18581	-4.37228	2.84042
27.19002	-4.37228	2.84042
27.19420	-4.37228	2.84042
27.19839	-4.37228	2.84042
27.20257	-4.37228	2.84042
27.20675	-4.39425	2.84042
27.21094	-4.39425	2.84042
27.21526	-4.39425	2.84042
27.21946	-4.39425	2.84042
27.22365	-4.39425	2.84042
27.22785	-4.39425	2.84042
27.23204	-4.39425	2.84042
27.23622	-4.39425	2.84042
27.24041	-4.39425	2.84042
27.24478	-4.39425	2.84042
27.24906	-4.39425	2.84042
27.25326	-4.39425	2.84042
27.25745	-4.39425	2.84042
27.26163	-4.39425	2.84042
27.26582	-4.39425	2.84042
27.27000	-4.39425	2.84042
27.27419	-4.39425	2.84042
27.27850	-4.41623	2.84042
27.28271	-4.41623	2.84042
27.28690	-4.41623	2.84042
27.29109	-4.41623	2.84042
27.29528	-4.41623	2.84042
27.29946	-4.41623	2.84042
27.30365	-4.41623	2.84042
27.30791	-4.41623	2.84042
27.31218	-4.41623	2.84042
27.31638	-4.43820	2.84042
27.32057	-4.43820	2.84042
27.32475	-4.43820	2.84042
27.32894	-4.43820	2.84042
27.33313	-4.43820	2.84042
27.33732	-4.43820	2.84042
27.34162	-4.43820	2.84042
27.34597	-4.43820	2.84042
27.35016	-4.43820	2.84042
27.35434	-4.43820	2.84042
27.35853	-4.46017	2.84042
27.36273	-4.46017	2.84042
27.36692	-4.46017	2.84042
27.37138	-4.46017	2.84042
27.37560	-4.46017	2.84042
27.37980	-4.46017	2.84042
27.38399	-4.46017	2.84042
27.38818	-4.46017	2.84042
27.39237	-4.48214	2.84042
27.39656	-4.48214	2.84042
27.40084	-4.48214	2.84042
27.40513	-4.48214	2.84042
27.40934	-4.50412	2.84042
27.41353	-4.50412	2.84042
27.41773	-4.50412	2.84042
27.42192	-4.50412	2.84042
27.42611	-4.50412	2.84042
27.43031	-4.50412	2.84042
27.43463	-4.52609	2.84042
27.43884	-4.52609	2.84042
27.44304	-4.52609	2.84042
27.44734	-4.52609	2.84042
27.45153	-4.52609	2.84042
27.45572	-4.52609	2.84042
27.45991	-4.54806	2.84042
27.46433	-4.54806	2.84042
27.46855	-4.57004	2.84042
27.47274	-4.54806	2.84042
27.47697	-4.57004	2.84042
27.48117	-4.57004	2.84042
27.48536	-4.57004	2.84042
27.48955	-4.57004	2.84042
27.49384	-4.59201	2.84042
27.49813	-4.59201	2.84042
27.50233	-4.59201	2.84042
27.50651	-4.59201	2.84042
27.51071	-4.61398	2.84042
27.51489	-4.61398	2.84042
27.51909	-4.59201	2.84042
27.52334	-4.61398	2.84042
27.52764	-4.61398	2.84042
27.53183	-4.63595	2.84042
27.53602	-4.63595	2.84042
27.54020	-4.63595	2.84042
27.54439	-4.63595	2.84042
27.54867	-4.65793	2.84042
27.55286	-4.65793	2.84042
27.55716	-4.65793	2.84042
27.56136	-4.65793	2.84042
27.56555	-4.65793	2.84042
27.56974	-4.67990	2.84042
27.57392	-4.67990	2.84042
27.57810	-4.67990	2.84042
27.58229	-4.70187	2.84042
27.58655	-4.70187	2.84042
27.59084	-4.70187	2.84042
27.59503	-4.70187	2.84042
27.59921	-4.70187	2.84042
27.60340	-4.72384	2.84042
27.60758	-4.72384	2.84042
27.61177	-4.72384	2.84042
27.61595	-4.72384	2.84042
27.62025	-4.74582	2.84042
27.62446	-4.72384	2.84042
27.62864	-4.74582	2.84042
27.63283	-4.76779	2.84042
27.63701	-4.76779	2.84042
27.64119	-4.76779	2.84042
27.64538	-4.76779	2.84042
27.64973	-4.76779	2.84042
27.65400	-4.76779	2.84042
27.65819	-4.78976	2.84042
27.66238	-4.78976	2.84042
27.66656	-4.78976	2.84042
27.67075	-4.78976	2.84042
27.67493	-4.78976	2.84042
27.67911	-4.81173	2.84042
27.68342	-4.81173	2.84042
27.68762	-4.81173	2.84042
27.69181	-4.81173	2.84042
27.69600	-4.81173	2.84042
27.70018	-4.83371	2.84042
27.70437	-4.83371	2.84042
27.70855	-4.83371	2.84042
27.71281	-4.83371	2.84042
27.71708	-4.83371	2.84042
27.72128	-4.85568	2.84042
27.72547	-4.85568	2.84042
27.72966	-4.85568	2.84042
27.73385	-4.87765	2.84042
27.73803	-4.85568	2.84042
27.74221	-4.85568	2.84042
27.74652	-4.87765	2.84042
27.75084	-4.87765	2.84042
27.75503	-4.87765	2.84042
27.75922	-4.89963	2.84042
27.76341	-4.89963	2.84042
27.76759	-4.89963	2.84042
27.77178	-4.87765	2.84042
27.77624	-4.89963	2.84042
27.78046	-4.89963	2.84042
27.78465	-4.89963	2.84042
27.78884	-4.89963	2.84042
27.79303	-4.89963	2.84042
27.79723	-4.89963	2.84042
27.80142	-4.92160	2.84042
27.80570	-4.89963	2.84042
27.81000	-4.92160	2.84042
27.81420	-4.92160	2.84042
27.81840	-4.92160	2.84042
27.82260	-4.92160	2.84042
27.82675	-4.92160	2.84042
27.83095	-4.92160	2.84042
27.83514	-4.92160	2.84042
27.83945	-4.92160	2.84042
27.84366	-4.92160	2.84042
27.84785	-4.92160	2.84042
27.85215	-4.92160	2.84042
27.85634	-4.92160	2.84042
27.86053	-4.92160	2.84042
27.86472	-4.92160	2.84042
27.86915	-4.94357	2.84042
27.87337	-4.92160	2.84042
27.87757	-4.92160	2.84042
27.88176	-4.92160	2.84042
27.88595	-4.92160	2.84042
27.89015	-4.92160	2.84042
27.89434	-4.92160	2.84042
27.89863	-4.92160	2.84042
27.90293	-4.92160	2.84042
27.90713	-4.92160	2.84042
27.91132	-4.92160	2.84042
27.91551	-4.92160	2.84042
27.91969	-4.92160	2.84042
27.92388	-4.92160	2.84042
27.92806	-4.92160	2.84042
27.93236	-4.92160	2.84042
27.93656	-4.92160	2.84042
27.94075	-4.92160	2.84042
27.94494	-4.92160	2.84042
27.94912	-4.92160	2.84042
27.95341	-4.92160	2.84042
27.95760	-4.92160	2.84042
27.96202	-4.89963	2.84042
27.96623	-4.89963	2.84042
27.97043	-4.92160	2.84042
27.97463	-4.92160	2.84042
27.97882	-4.92160	2.84042
27.98301	-4.89963	2.84042
27.98720	-4.89963	2.84042
27.99148	-4.89963	2.84042
27.99577	-4.89963	2.84042
27.99997	-4.89963	2.84042
28.00416	-4.87765	2.84042
28.00836	-4.87765	2.84042
28.01255	-4.89963	2.84042
28.01674	-4.87765	2.84042
28.02092	-4.87765	2.84042
28.02524	-4.87765	2.84042
28.02945	-4.87765	2.84042
28.03365	-4.87765	2.84042
28.03784	-4.87765	2.84042
28.04203	-4.87765	2.84042
28.04622	-4.87765	2.84042
28.05041	-4.87765	2.84042
28.05483	-4.87765	2.84042
28.05908	-4.87765	2.84042
28.06328	-4.87765	2.84042
28.06755	-4.85568	2.84042
28.07176	-4.85568	2.84042
28.07595	-4.85568	2.84042
28.08014	-4.85568	2.84042
28.08442	-4.85568	2.84042
28.08872	-4.85568	2.84042
28.09294	-4.85568	2.84042
28.09718	-4.85568	2.84042
28.10143	-4.85568	2.84042
28.10565	-4.85568	2.84042
28.10986	-4.83371	2.84042
28.11465	-4.83371	2.84042
28.11903	-4.83371	2.84042
28.12325	-4.83371	2.84042
28.12746	-4.83371	2.84042
28.13166	-4.83371	2.84042
28.13585	-4.83371	2.84042
28.14004	-4.83371	2.84042
28.14423	-4.83371	2.84042
28.14884	-4.83371	2.84042
28.15307	-4.83371	2.84042
28.15738	-4.83371	2.84042
28.16158	-4.83371	2.84042
28.16577	-4.81173	2.84042
28.16996	-4.81173	2.84042
28.17415	-4.81173	2.84042
28.17841	-4.81173	2.84042
28.18270	-4.81173	2.84042
28.18690	-4.81173	2.84042
28.19109	-4.81173	2.84042
28.19528	-4.81173	2.84042
28.19946	-4.81173	2.84042
28.20365	-4.81173	2.84042
28.20783	-4.81173	2.84042
28.21217	-4.81173	2.84042
28.21639	-4.81173	2.84042
28.22058	-4.81173	2.84042
28.22479	-4.81173	2.84042
28.22898	-4.81173	2.84042
28.23317	-4.81173	2.84042
28.23735	-4.81173	2.84042
28.24181	-4.81173	2.84042
28.24602	-4.81173	2.84042
28.25022	-4.81173	2.84042
28.25441	-4.81173	2.84042
28.25872	-4.81173	2.84042
28.26291	-4.81173	2.84042
28.26710	-4.81173	2.84042
28.27137	-4.81173	2.84042
28.27568	-4.81173	2.84042
28.27988	-4.81173	2.84042
28.28408	-4.81173	2.84042
28.28826	-4.81173	2.84042
28.29245	-4.81173	2.84042
28.29663	-4.81173	2.84042
28.30082	-4.81173	2.84042
28.30512	-4.81173	2.84042
28.30933	-4.81173	2.84042
28.31352	-4.81173	2.84042
28.31771	-4.78976	2.84042
28.32190	-4.78976	2.84042
28.32609	-4.78976	2.84042
28.33027	-4.81173	2.84042
28.33474	-4.81173	2.84042
28.33896	-4.81173	2.84042
28.34316	-4.81173	2.84042
28.34735	-4.78976	2.84042
28.35153	-4.78976	2.84042
28.35572	-4.81173	2.84042
28.36002	-4.81173	2.84042
28.36428	-4.81173	2.84042
28.36856	-4.81173	2.84042
28.37276	-4.81173	2.84042
28.37695	-4.81173	2.84042
28.38114	-4.81173	2.84042
28.38533	-4.78976	2.84042
28.38951	-4.78976	2.84042
28.39370	-4.81173	2.84042
28.39801	-4.81173	2.84042
28.40222	-4.81173	2.84042
28.40640	-4.81173	2.84042
28.41059	-4.81173	2.84042
28.41475	-4.81173	2.84042
28.41894	-4.81173	2.84042
28.42312	-4.81173	2.84042
28.42738	-4.81173	2.84042
28.43166	-4.81173	2.84042
28.43586	-4.81173	2.84042
28.44006	-4.78976	2.84042
28.44424	-4.78976	2.84042
28.44843	-4.81173	2.84042
28.45262	-4.78976	2.84042
28.45680	-4.78976	2.84042
28.46121	-4.78976	2.84042
28.46541	-4.81173	2.84042
28.46960	-4.81173	2.84042
28.47379	-4.78976	2.84042
28.47797	-4.78976	2.84042
28.48216	-4.78976	2.84042
28.48635	-4.78976	2.84042
28.49080	-4.78976	2.84042
28.49501	-4.78976	2.84042
28.49920	-4.78976	2.84042
28.50339	-4.78976	2.84042
28.50757	-4.78976	2.84042
28.51176	-4.78976	2.84042
28.51594	-4.78976	2.84042
28.52021	-4.78976	2.84042
28.52450	-4.78976	2.84042
28.52871	-4.78976	2.84042
28.53292	-4.78976	2.84042
28.53712	-4.78976	2.84042
28.54131	-4.78976	2.84042
28.54549	-4.78976	2.84042
28.54968	-4.78976	2.84042
28.55400	-4.78976	2.84042
28.55821	-4.76779	2.84042
28.56250	-4.78976	2.84042
28.56670	-4.78976	2.84042
28.57089	-4.76779	2.84042
28.57508	-4.76779	2.84042
28.57926	-4.78976	2.84042
28.58351	-4.76779	2.84042
28.58779	-4.78976	2.84042
28.59198	-4.76779	2.84042
28.59617	-4.76779	2.84042
28.60037	-4.76779	2.84042
28.60456	-4.76779	2.84042
28.60875	-4.76779	2.84042
28.61293	-4.76779	2.84042
28.61723	-4.78976	2.84042
28.62143	-4.76779	2.84042
28.62562	-4.76779	2.84042
28.62981	-4.76779	2.84042
28.63400	-4.76779	2.84042
28.63818	-4.76779	2.84042
28.64237	-4.76779	2.84042
28.64664	-4.76779	2.84042
28.65091	-4.76779	2.84042
28.65510	-4.76779	2.84042
28.65929	-4.76779	2.84042
28.66358	-4.76779	2.84042
28.66777	-4.76779	2.84042
28.67196	-4.76779	2.84042
28.67614	-4.74582	2.84042
28.68044	-4.74582	2.84042
28.68464	-4.74582	2.84042
28.68884	-4.74582	2.84042
28.69304	-4.76779	2.84042
28.69723	-4.76779	2.84042
28.70142	-4.74582	2.84042
28.70560	-4.74582	2.84042
28.71009	-4.76779	2.84042
28.71430	-4.76779	2.84042
28.71850	-4.74582	2.84042
28.72270	-4.74582	2.84042
28.72689	-4.74582	2.84042
28.73109	-4.74582	2.84042
28.73527	-4.74582	2.84042
28.73954	-4.76779	2.84042
28.74382	-4.74582	2.84042
28.74802	-4.76779	2.84042
28.75221	-4.74582	2.84042
28.75639	-4.74582	2.84042
28.76058	-4.74582	2.84042
28.76487	-4.74582	2.84042
28.76906	-4.74582	2.84042
28.77337	-4.74582	2.84042
28.77757	-4.74582	2.84042
28.78176	-4.74582	2.84042
28.78594	-4.74582	2.84042
28.79013	-4.76779	2.84042
28.79432	-4.74582	2.84042
28.79850	-4.74582	2.84042
28.80277	-4.74582	2.84042
28.80706	-4.74582	2.84042
28.81127	-4.74582	2.84042
28.81547	-4.74582	2.84042
28.81966	-4.74582	2.84042
28.82384	-4.74582	2.84042
28.82803	-4.74582	2.84042
28.83222	-4.74582	2.84042
28.83653	-4.74582	2.84042
28.84075	-4.74582	2.84042
28.84494	-4.74582	2.84042
28.84913	-4.72384	2.84042
28.85332	-4.74582	2.84042
28.85751	-4.72384	2.84042
28.86169	-4.72384	2.84042
28.86626	-4.72384	2.84042
28.87046	-4.72384	2.84042
28.87466	-4.72384	2.84042
28.87885	-4.72384	2.84042
28.88304	-4.72384	2.84042
28.88722	-4.72384	2.84042
28.89141	-4.72384	2.84042
28.89567	-4.72384	2.84042
28.89994	-4.72384	2.84042
28.90414	-4.70187	2.84042
28.90833	-4.70187	2.84042
28.91252	-4.70187	2.84042
28.91671	-4.70187	2.84042
28.92089	-4.70187	2.84042
28.92508	-4.70187	2.84042
28.92938	-4.70187	2.84042
28.93360	-4.67990	2.84042
28.93779	-4.67990	2.84042
28.94198	-4.67990	2.84042
28.94617	-4.67990	2.84042
28.95036	-4.67990	2.84042
28.95454	-4.67990	2.84042
28.95899	-4.65793	2.84042
28.96319	-4.65793	2.84042
28.96748	-4.65793	2.84042
28.97166	-4.65793	2.84042
28.97585	-4.65793	2.84042
28.98003	-4.63595	2.84042
28.98422	-4.63595	2.84042
28.98847	-4.63595	2.84042
28.99274	-4.63595	2.84042
28.99693	-4.63595	2.84042
29.00112	-4.63595	2.84042
29.00530	-4.63595	2.84042
29.00949	-4.61398	2.84042
29.01367	-4.61398	2.84042
29.01787	-4.61398	2.84042
29.02219	-4.61398	2.84042
29.02641	-4.61398	2.84042
29.03063	-4.61398	2.84042
29.03483	-4.59201	2.84042
29.03902	-4.59201	2.84042
29.04320	-4.59201	2.84042
29.04739	-4.59201	2.84042
29.05184	-4.57004	2.84042
29.05605	-4.57004	2.84042
29.06024	-4.57004	2.84042
29.06443	-4.57004	2.84042
29.06872	-4.54806	2.84042
29.07290	-4.54806	2.84042
29.07709	-4.54806	2.84042
29.08135	-4.57004	2.84042
29.08563	-4.54806	2.84042
29.08984	-4.54806	2.84042
29.09403	-4.52609	2.84042
29.09821	-4.52609	2.84042
29.10240	-4.52609	2.84042
29.10658	-4.52609	2.84042
29.11075	-4.52609	2.84042
29.11506	-4.50412	2.84042
29.11926	-4.50412	2.84042
29.12345	-4.50412	2.84042
29.12764	-4.50412	2.84042
29.13182	-4.50412	2.84042
29.13601	-4.50412	2.84042
29.14019	-4.50412	2.84042
29.14463	-4.48214	2.84042
29.14884	-4.48214	2.84042
29.15303	-4.48214	2.84042
29.15721	-4.48214	2.84042
29.16140	-4.48214	2.84042
29.16559	-4.48214	2.84042
29.16987	-4.46017	2.84042
29.17413	-4.46017	2.84042
29.17841	-4.46017	2.84042
29.18262	-4.46017	2.84042
29.18680	-4.46017	2.84042
29.19099	-4.46017	2.84042
29.19518	-4.43820	2.84042
29.19936	-4.43820	2.84042
29.20355	-4.43820	2.84042
29.20785	-4.43820	2.84042
29.21207	-4.43820	2.84042
29.21626	-4.41623	2.84042
29.22045	-4.41623	2.84042
29.22464	-4.41623	2.84042
29.22883	-4.41623	2.84042
29.23302	-4.41623	2.84042
29.23750	-4.41623	2.84042
29.24172	-4.39425	2.84042
29.24591	-4.39425	2.84042
29.25010	-4.39425	2.84042
29.25429	-4.37228	2.84042
29.25848	-4.37228	2.84042
29.26267	-4.37228	2.84042
29.26694	-4.37228	2.84042
29.27136	-4.37228	2.84042
29.27558	-4.37228	2.84042
29.27983	-4.37228	2.84042
29.28404	-4.37228	2.84042
29.28823	-4.37228	2.84042
29.29242	-4.35031	2.84042
29.29671	-4.35031	2.84042
29.30100	-4.35031	2.84042
29.30521	-4.35031	2.84042
29.30940	-4.35031	2.84042
29.31359	-4.32834	2.84042
29.31778	-4.32834	2.84042
29.32196	-4.32834	2.84042
29.32615	-4.32834	2.84042
29.33046	-4.32834	2.84042
29.33470	-4.32834	2.84042
29.33890	-4.30636	2.84042
29.34309	-4.30636	2.84042
29.34728	-4.30636	2.84042
29.35146	-4.30636	2.84042
29.35565	-4.30636	2.84042
29.35991	-4.30636	2.84042
29.36418	-4.30636	2.84042
29.36838	-4.30636	2.84042
29.37267	-4.28439	2.84042
29.37686	-4.28439	2.84042
29.38105	-4.28439	2.84042
29.38523	-4.28439	2.84042
29.38942	-4.26242	2.84042
29.39372	-4.26242	2.84042
29.39793	-4.26242	2.84042
29.40211	-4.26242	2.84042
29.40630	-4.28439	2.84042
29.41049	-4.26242	2.84042
29.41469	-4.26242	2.84042
29.41887	-4.24045	2.84042
29.42312	-4.24045	2.84042
29.42740	-4.24045	2.84042
29.43159	-4.24045	2.84042
29.43578	-4.24045	2.84042
29.43997	-4.24045	2.84042
29.44416	-4.21847	2.84042
29.44834	-4.21847	2.84042
29.45253	-4.21847	2.84042
29.45682	-4.21847	2.84042
29.46103	-4.19650	2.84042
29.46522	-4.21847	2.84042
29.46941	-4.19650	2.84042
29.47370	-4.19650	2.84042
29.47788	-4.19650	2.84042
29.48206	-4.21847	2.84042
29.48651	-4.19650	2.84042
29.49074	-4.19650	2.84042
29.49493	-4.19650	2.84042
29.49911	-4.19650	2.84042
29.50330	-4.19650	2.84042
29.50748	-4.17453	2.84042
29.51167	-4.17453	2.84042
29.51592	-4.17453	2.84042
29.52021	-4.17453	2.84042
29.52441	-4.17453	2.84042
29.52859	-4.17453	2.84042
29.53280	-4.17453	2.84042
29.53699	-4.17453	2.84042
29.54118	-4.15256	2.84042
29.54539	-4.15256	2.84042
29.55071	-4.15256	2.84042
29.55518	-4.15256	2.84042
29.55939	-4.15256	2.84042
29.56359	-4.15256	2.84042
29.56779	-4.15256	2.84042
29.57199	-4.13058	2.84042
29.57630	-4.15256	2.84042
29.58061	-4.13058	2.84042
29.58481	-4.13058	2.84042
29.58901	-4.13058	2.84042
29.59321	-4.13058	2.84042
29.59740	-4.13058	2.84042
29.60159	-4.13058	2.84042
29.60578	-4.13058	2.84042
29.61021	-4.13058	2.84042
29.61443	-4.13058	2.84042
29.61863	-4.13058	2.84042
29.62283	-4.10861	2.84042
29.62702	-4.13058	2.84042
29.63121	-4.10861	2.84042
29.63541	-4.13058	2.84042
29.63966	-4.13058	2.84042
29.64394	-4.10861	2.84042
29.64812	-4.10861	2.84042
29.65229	-4.10861	2.84042
29.65646	-4.10861	2.84042
29.66063	-4.10861	2.84042
29.66480	-4.10861	2.84042
29.66896	-4.10861	2.84042
29.67327	-4.10861	2.84042
29.67756	-4.10861	2.84042
29.68173	-4.10861	2.84042
29.68590	-4.10861	2.84042
29.69007	-4.10861	2.84042
29.69424	-4.10861	2.84042
29.69841	-4.08664	2.84042
29.70267	-4.10861	2.84042
29.70694	-4.10861	2.84042
29.71112	-4.08664	2.84042
29.71529	-4.10861	2.84042
29.71946	-4.10861	2.84042
29.72363	-4.08664	2.84042
29.72780	-4.08664	2.84042
29.73197	-4.10861	2.84042
29.73630	-4.08664	2.84042
29.74051	-4.08664	2.84042
29.74471	-4.08664	2.84042
29.74890	-4.08664	2.84042
29.75309	-4.10861	2.84042
29.75728	-4.10861	2.84042
29.76147	-4.08664	2.84042
29.76573	-4.08664	2.84042
29.77003	-4.08664	2.84042
29.77424	-4.08664	2.84042
29.77855	-4.08664	2.84042
29.78275	-4.10861	2.84042
29.78694	-4.08664	2.84042
29.79114	-4.08664	2.84042
29.79533	-4.08664	2.84042
29.79965	-4.08664	2.84042
29.80386	-4.08664	2.84042
29.80805	-4.08664	2.84042
29.81225	-4.08664	2.84042
29.81644	-4.08664	2.84042
29.82063	-4.08664	2.84042
29.82482	-4.08664	2.84042
29.82926	-4.08664	2.84042
29.83348	-4.08664	2.84042
29.83769	-4.10861	2.84042
29.84189	-4.10861	2.84042
29.84609	-4.10861	2.84042
29.85028	-4.10861	2.84042
29.85447	-4.10861	2.84042
29.85877	-4.10861	2.84042
29.86305	-4.10861	2.84042
29.86725	-4.10861	2.84042
29.87144	-4.10861	2.84042
29.87564	-4.10861	2.84042
29.87994	-4.10861	2.84042
29.88413	-4.10861	2.84042
29.88842	-4.10861	2.84042
29.89272	-4.10861	2.84042
29.89692	-4.10861	2.84042
29.90111	-4.10861	2.84042
29.90530	-4.10861	2.84042
29.90950	-4.10861	2.84042
29.91369	-4.10861	2.84042
29.91788	-4.13058	2.84042
29.92219	-4.10861	2.84042
29.92641	-4.13058	2.84042
29.93060	-4.13058	2.84042
29.93475	-4.13058	2.84042
29.93894	-4.10861	2.84042
29.94313	-4.13058	2.84042
29.94732	-4.13058	2.84042
29.95159	-4.13058	2.84042
29.95586	-4.13058	2.84042
29.96006	-4.13058	2.84042
29.96425	-4.13058	2.84042
29.96844	-4.13058	2.84042
29.97264	-4.13058	2.84042
29.97683	-4.13058	2.84042
29.98114	-4.15256	2.84042
29.98544	-4.15256	2.84042
29.98966	-4.15256	2.84042
29.99385	-4.15256	2.84042
29.99805	-4.15256	2.84042
