Time (s)   roll (deg)   Delta
0.00039	6.06473	11.27051
0.00459	6.08670	11.27051
0.00878	6.08670	11.27051
0.01295	6.08670	11.27051
0.01711	6.10868	11.27051
0.02134	6.10868	11.27051
0.02560	6.13065	11.27051
0.02979	6.13065	11.27051
0.03396	6.15262	11.27051
0.03813	6.17459	11.27051
0.04230	6.17459	11.27051
0.04646	6.17459	11.27051
0.05063	6.19657	11.27051
0.05501	6.19657	11.27051
0.05921	6.19657	11.27051
0.06340	6.19657	11.27051
0.06757	6.21854	11.27051
0.07175	6.21854	11.27051
0.07592	6.21854	11.27051
0.08010	6.24051	11.27051
0.08437	6.24051	11.27051
0.08863	6.24051	11.27051
0.09284	6.24051	11.27051
0.09702	6.24051	11.27051
0.10133	6.24051	11.27051
0.10551	6.24051	11.27051
0.10970	6.24051	11.27051
0.11388	6.24051	11.27051
0.11818	6.24051	11.27051
0.12239	6.24051	11.27051
0.12657	6.24051	11.27051
0.13076	6.21854	11.27051
0.13494	6.21854	11.27051
0.13912	6.19657	11.27051
0.14331	6.19657	11.27051
0.14756	6.17459	11.27051
0.15181	6.17459	11.27051
0.15600	6.15262	11.27051
0.16019	6.13065	11.27051
0.16437	6.13065	11.27051
0.16856	6.10868	11.27051
0.17274	6.10868	11.27051
0.17692	6.08670	11.27051
0.18121	6.06473	11.27051
0.18543	6.02078	11.27051
0.18962	5.99881	11.27051
0.19380	5.97684	11.27051
0.19798	5.97684	11.27051
0.20227	5.93289	11.27051
0.20645	5.88895	11.27051
0.21088	5.86698	11.27051
0.21509	5.82303	11.27051
0.21928	5.77909	11.27051
0.22346	5.77909	11.27051
0.22765	5.73514	11.27051
0.23183	5.69119	11.27051
0.23601	5.62528	11.27051
0.24025	5.58133	11.27051
0.24452	5.58133	11.27051
0.24884	5.49344	11.27051
0.25309	5.49344	11.27051
0.25733	5.42752	11.27051
0.26154	5.38358	11.27051
0.26574	5.31766	11.27051
0.26993	5.25174	11.27051
0.27423	5.25174	11.27051
0.27844	5.18582	11.27051
0.28264	5.11991	11.27051
0.28683	5.05399	11.27051
0.29102	4.98807	11.27051
0.29521	4.92215	11.27051
0.29940	4.83426	11.27051
0.30396	4.83426	11.27051
0.30818	4.76834	11.27051
0.31237	4.68045	11.27051
0.31656	4.59256	11.27051
0.32076	4.52664	11.27051
0.32494	4.43875	11.27051
0.32913	4.43875	11.27051
0.33342	4.32889	11.27051
0.33767	4.26297	11.27051
0.34187	4.17508	11.27051
0.34607	4.08719	11.27051
0.35025	3.97733	11.27051
0.35443	3.86746	11.27051
0.35862	3.86746	11.27051
0.36280	3.75760	11.27051
0.36709	3.66971	11.27051
0.37129	3.55985	11.27051
0.37548	3.47196	11.27051
0.37966	3.36209	11.27051
0.38385	3.36209	11.27051
0.38803	3.25223	11.27051
0.39221	3.12039	11.27051
0.39646	3.01053	11.27051
0.40071	2.90067	11.27051
0.40502	2.76883	11.27051
0.40920	2.76883	11.27051
0.41340	2.65897	11.27051
0.41758	2.52713	11.27051
0.42176	2.41727	11.27051
0.42595	2.28543	11.27051
0.43023	2.15360	11.27051
0.43444	2.02176	11.27051
0.43862	2.02176	11.27051
0.44281	1.88993	11.27051
0.44699	1.75809	11.27051
0.45117	1.60428	11.27051
0.45535	1.47244	11.27051
0.45960	1.47244	11.27051
0.46385	1.31864	11.27051
0.46805	1.16483	11.27051
0.47223	1.03299	11.27051
0.47641	0.87918	11.27051
0.48060	0.72537	11.27051
0.48478	0.72537	11.27051
0.48896	0.57157	11.27051
0.49327	0.41776	11.27051
0.49748	0.26395	11.27051
0.50168	0.11014	11.27051
0.50597	-0.02170	11.27051
0.51015	-0.17550	11.27051
0.51434	-0.17550	11.27051
0.51852	-0.32931	11.27051
0.52294	-0.50509	11.27051
0.52716	-0.68088	11.27051
0.53136	-0.83468	11.27051
0.53555	-0.83468	11.27051
0.53975	-1.01047	11.27051
0.54394	-1.18625	11.27051
0.54813	-1.31808	11.27051
0.55238	-1.49386	11.27051
0.55665	-1.66964	11.27051
0.56086	-1.84543	11.27051
0.56506	-1.84543	11.27051
0.56925	-2.02121	11.27051
0.57344	-2.19699	11.27051
0.57763	-2.37277	11.27051
0.58182	-2.57052	11.27051
0.58612	-2.74631	11.27051
0.59034	-2.87814	11.27051
0.59453	-2.87814	11.27051
0.59872	-3.07589	11.27051
0.60292	-3.25168	11.27051
0.60722	-3.44943	11.27051
0.61140	-3.62521	11.27051
0.61581	-3.82297	11.27051
0.62003	-3.82297	11.27051
0.62422	-4.02072	11.27051
0.62841	-4.19650	11.27051
0.63260	-4.35031	11.27051
0.63679	-4.54806	11.27051
0.64097	-4.74582	11.27051
0.64523	-4.94357	11.27051
0.64953	-4.94357	11.27051
0.65374	-5.14132	11.27051
0.65793	-5.33908	11.27051
0.66212	-5.53683	11.27051
0.66630	-5.73459	11.27051
0.67049	-5.73459	11.27051
0.67467	-5.93234	11.27051
0.67895	-6.08615	11.27051
0.68316	-6.30588	11.27051
0.68735	-6.50363	11.27051
0.69153	-6.70138	11.27051
0.69571	-6.89914	11.27051
0.69990	-6.89914	11.27051
0.70408	-7.09689	11.27051
0.70844	-7.31662	11.27051
0.71269	-7.53634	11.27051
0.71688	-7.73410	11.27051
0.72107	-7.93185	11.27051
0.72525	-7.93185	11.27051
0.72944	-8.15158	11.27051
0.73362	-8.34933	11.27051
0.73780	-8.56906	11.27051
0.74209	-8.76681	11.27051
0.74630	-8.76681	11.27051
0.75049	-8.98654	11.27051
0.75467	-9.18429	11.27051
0.75885	-9.40402	11.27051
0.76304	-9.57980	11.27051
0.76722	-9.79953	11.27051
0.77147	-9.99728	11.27051
0.77572	-9.99728	11.27051
0.77992	-10.21701	11.27051
0.78410	-10.41476	11.27051
0.78828	-10.63449	11.27051
0.79247	-10.85422	11.27051
0.79665	-10.85422	11.27051
0.80083	-11.22775	11.27051
0.80511	-11.22775	11.27051
0.80944	-11.44748	11.27051
0.81362	-11.64523	11.27051
0.81781	-11.86496	11.27051
0.82199	-12.06271	11.27051
0.82617	-12.06271	11.27051
0.83036	-12.28244	11.27051
0.83475	-12.48019	11.27051
0.83897	-12.67795	11.27051
0.84316	-12.89767	11.27051
0.84735	-13.07345	11.27051
0.85154	-13.27121	11.27051
0.85573	-13.27121	11.27051
0.85992	-13.46896	11.27051
0.86418	-13.68869	11.27051
0.86845	-13.90841	11.27051
0.87266	-14.10617	11.27051
0.87685	-14.32589	11.27051
0.88103	-14.32589	11.27051
0.88522	-14.52365	11.27051
0.88942	-14.69943	11.27051
0.89361	-14.89718	11.27051
0.89791	-15.09494	11.27051
0.90212	-15.31466	11.27051
0.90631	-15.51242	11.27051
0.91062	-15.51242	11.27051
0.91482	-15.73214	11.27051
0.91901	-15.92990	11.27051
0.92320	-16.14963	11.27051
0.92761	-16.34738	11.27051
0.93184	-16.50119	11.27051
0.93603	-16.72091	11.27051
0.94022	-16.72091	11.27051
0.94441	-16.91867	11.27051
0.94860	-17.11642	11.27051
0.95279	-17.31418	11.27051
0.95704	-17.51193	11.27051
0.96133	-17.51193	11.27051
0.96554	-17.70968	11.27051
0.96973	-17.90744	11.27051
0.97391	-18.12716	11.27051
0.97809	-18.30295	11.27051
0.98228	-18.50070	11.27051
0.98646	-18.50070	11.27051
0.99075	-18.69845	11.27051
0.99495	-18.89621	11.27051
0.99914	-19.09396	11.27051
1.00332	-19.26974	11.27051
1.00750	-19.26974	11.27051
1.01179	-19.46750	11.27051
1.01597	-19.66525	11.27051
1.02022	-19.81906	11.27051
1.02447	-20.01681	11.27051
1.02867	-20.19259	11.27051
1.03285	-20.39035	11.27051
1.03703	-20.39035	11.27051
1.04122	-20.56613	11.27051
1.04541	-20.74191	11.27051
1.04959	-20.91769	11.27051
1.05387	-21.09347	11.27051
1.05808	-21.24728	11.27051
1.06226	-21.40109	11.27051
1.06645	-21.40109	11.27051
1.07063	-21.55490	11.27051
1.07485	-21.68673	11.27051
1.07904	-21.84054	11.27051
1.08347	-21.95041	11.27051
1.08770	-22.06027	11.27051
1.09189	-22.06027	11.27051
1.09608	-22.14816	11.27051
1.10027	-22.23605	11.27051
1.10446	-22.28000	11.27051
1.10865	-22.32394	11.27051
1.11301	-22.36789	11.27051
1.11726	-22.38986	11.27051
1.12145	-22.38986	11.27051
1.12564	-22.38986	11.27051
1.12982	-22.38986	11.27051
1.13401	-22.34591	11.27051
1.13819	-22.32394	11.27051
1.14237	-22.25802	11.27051
1.14666	-22.25802	11.27051
1.15086	-22.19211	11.27051
1.15505	-22.12619	11.27051
1.15923	-22.01632	11.27051
1.16342	-21.92843	11.27051
1.16760	-21.81857	11.27051
1.17179	-21.81857	11.27051
1.17604	-21.68673	11.27051
1.18030	-21.57687	11.27051
1.18450	-21.44504	11.27051
1.18868	-21.35714	11.27051
1.19287	-21.20334	11.27051
1.19705	-21.20334	11.27051
1.20123	-21.07150	11.27051
1.20542	-20.93966	11.27051
1.20971	-20.80783	11.27051
1.21402	-20.63205	11.27051
1.21821	-20.52218	11.27051
1.22239	-20.52218	11.27051
1.22658	-20.36838	11.27051
1.23076	-20.23654	11.27051
1.23494	-20.08273	11.27051
1.23936	-19.95089	11.27051
1.24358	-19.79709	11.27051
1.24777	-19.79709	11.27051
1.25196	-19.66525	11.27051
1.25615	-19.51144	11.27051
1.26034	-19.37961	11.27051
1.26453	-19.22580	11.27051
1.26880	-19.09396	11.27051
1.27307	-18.96213	11.27051
1.27729	-18.96213	11.27051
1.28145	-18.83029	11.27051
1.28564	-18.69845	11.27051
1.28983	-18.54464	11.27051
1.29402	-18.41281	11.27051
1.29820	-18.41281	11.27051
1.30250	-18.28097	11.27051
1.30671	-18.12716	11.27051
1.31090	-17.99533	11.27051
1.31520	-17.88547	11.27051
1.31939	-17.73166	11.27051
1.32359	-17.59982	11.27051
1.32778	-17.59982	11.27051
1.33204	-17.44601	11.27051
1.33631	-17.31418	11.27051
1.34052	-17.18234	11.27051
1.34472	-17.05050	11.27051
1.34891	-16.89670	11.27051
1.35311	-16.89670	11.27051
1.35730	-16.76486	11.27051
1.36144	-16.65500	11.27051
1.36575	-16.52316	11.27051
1.36997	-16.36935	11.27051
1.37416	-16.23752	11.27051
1.37835	-16.23752	11.27051
1.38254	-16.10568	11.27051
1.38673	-15.97384	11.27051
1.39091	-15.84201	11.27051
1.39529	-15.71017	11.27051
1.39952	-15.60031	11.27051
1.40370	-15.46847	11.27051
1.40789	-15.46847	11.27051
1.41207	-15.33664	11.27051
1.41636	-15.20480	11.27051
1.42054	-15.07297	11.27051
1.42479	-14.94113	11.27051
1.42905	-14.80929	11.27051
1.43324	-14.80929	11.27051
1.43744	-14.67746	11.27051
1.44162	-14.56759	11.27051
1.44581	-14.45773	11.27051
1.44999	-14.32589	11.27051
1.45418	-14.21603	11.27051
1.45846	-14.08420	11.27051
1.46268	-14.08420	11.27051
1.46686	-13.95236	11.27051
1.47105	-13.84250	11.27051
1.47523	-13.71066	11.27051
1.47942	-13.60080	11.27051
1.48360	-13.60080	11.27051
1.48785	-13.46896	11.27051
1.49212	-13.35910	11.27051
1.49633	-13.22726	11.27051
1.50052	-13.11740	11.27051
1.50471	-13.00754	11.27051
1.50889	-13.00754	11.27051
1.51308	-12.89767	11.27051
1.51738	-12.78781	11.27051
1.52167	-12.65597	11.27051
1.52588	-12.54611	11.27051
1.53007	-12.45822	11.27051
1.53425	-12.34836	11.27051
1.53844	-12.34836	11.27051
1.54262	-12.23849	11.27051
1.54681	-12.12863	11.27051
1.55120	-12.01877	11.27051
1.55542	-11.90890	11.27051
1.55962	-11.90890	11.27051
1.56381	-11.79904	11.27051
1.56800	-11.71115	11.27051
1.57219	-11.62326	11.27051
1.57638	-11.51339	11.27051
1.58065	-11.40353	11.27051
1.58492	-11.31564	11.27051
1.58913	-11.31564	11.27051
1.59334	-11.20578	11.27051
1.59753	-11.11789	11.27051
1.60172	-11.00802	11.27051
1.60590	-10.92013	11.27051
1.61009	-10.83224	11.27051
1.61439	-10.74435	11.27051
1.61871	-10.74435	11.27051
1.62290	-10.65646	11.27051
1.62709	-10.54660	11.27051
1.63128	-10.45871	11.27051
1.63547	-10.37082	11.27051
1.63966	-10.28293	11.27051
1.64392	-10.28293	11.27051
1.64818	-10.19504	11.27051
1.65237	-10.08517	11.27051
1.65656	-10.01925	11.27051
1.66075	-9.95334	11.27051
1.66494	-9.86545	11.27051
1.66913	-9.86545	11.27051
1.67333	-9.75558	11.27051
1.67762	-9.68966	11.27051
1.68184	-9.60177	11.27051
1.68602	-9.51388	11.27051
1.69021	-9.44797	11.27051
1.69439	-9.44797	11.27051
1.69858	-9.36007	11.27051
1.70276	-9.29416	11.27051
1.70718	-9.20627	11.27051
1.71141	-9.16232	11.27051
1.71563	-9.07443	11.27051
1.71994	-8.98654	11.27051
1.72413	-8.98654	11.27051
1.72832	-8.92062	11.27051
1.73252	-8.85470	11.27051
1.73680	-8.76681	11.27051
1.74107	-8.72287	11.27051
1.74528	-8.63498	11.27051
1.74945	-8.63498	11.27051
1.75365	-8.56906	11.27051
1.75784	-8.50314	11.27051
1.76203	-8.43722	11.27051
1.76622	-8.37131	11.27051
1.77051	-8.37131	11.27051
1.77473	-8.32736	11.27051
1.77892	-8.26144	11.27051
1.78312	-8.19552	11.27051
1.78731	-8.15158	11.27051
1.79150	-8.08566	11.27051
1.79569	-8.04172	11.27051
1.80009	-8.04172	11.27051
1.80430	-7.97580	11.27051
1.80853	-7.90988	11.27051
1.81274	-7.86593	11.27051
1.81695	-7.82199	11.27051
1.82125	-7.77804	11.27051
1.82544	-7.73410	11.27051
1.82973	-7.73410	11.27051
1.83399	-7.69015	11.27051
1.83819	-7.62423	11.27051
1.84238	-7.58029	11.27051
1.84656	-7.53634	11.27051
1.85075	-7.49240	11.27051
1.85493	-7.49240	11.27051
1.85919	-7.44845	11.27051
1.86346	-7.40451	11.27051
1.86767	-7.38254	11.27051
1.87186	-7.33859	11.27051
1.87604	-7.29464	11.27051
1.88023	-7.27267	11.27051
1.88441	-7.27267	11.27051
1.88859	-7.22873	11.27051
1.89289	-7.20675	11.27051
1.89711	-7.16281	11.27051
1.90130	-7.14084	11.27051
1.90544	-7.14084	11.27051
1.90963	-7.09689	11.27051
1.91382	-7.07492	11.27051
1.91801	-7.05295	11.27051
1.92238	-7.00900	11.27051
1.92664	-7.00900	11.27051
1.93085	-6.96506	11.27051
1.93504	-6.96506	11.27051
1.93922	-6.94308	11.27051
1.94341	-6.92111	11.27051
1.94759	-6.89914	11.27051
1.95178	-6.89914	11.27051
1.95607	-6.87716	11.27051
1.96028	-6.85519	11.27051
1.96447	-6.85519	11.27051
1.96866	-6.83322	11.27051
1.97284	-6.83322	11.27051
1.97703	-6.81125	11.27051
1.98121	-6.78927	11.27051
1.98548	-6.78927	11.27051
1.98973	-6.78927	11.27051
1.99393	-6.78927	11.27051
1.99812	-6.76730	11.27051
2.00231	-6.76730	11.27051
2.00649	-6.76730	11.27051
2.01068	-6.76730	11.27051
2.01486	-6.76730	11.27051
2.01915	-6.74533	11.27051
2.02346	-6.76730	11.27051
2.02765	-6.74533	11.27051
2.03184	-6.74533	11.27051
2.03602	-6.74533	11.27051
2.04023	-6.74533	11.27051
2.04442	-6.74533	11.27051
2.04884	-6.76730	11.27051
2.05307	-6.74533	11.27051
2.05726	-6.76730	11.27051
2.06144	-6.76730	11.27051
2.06566	-6.76730	11.27051
2.06986	-6.76730	11.27051
2.07405	-6.78927	11.27051
2.07832	-6.78927	11.27051
2.08262	-6.81125	11.27051
2.08682	-6.81125	11.27051
2.09101	-6.81125	11.27051
2.09522	-6.81125	11.27051
2.09944	-6.83322	11.27051
2.10364	-6.83322	11.27051
2.10782	-6.87716	11.27051
2.11212	-6.87716	11.27051
2.11638	-6.87716	11.27051
2.12059	-6.89914	11.27051
2.12489	-6.92111	11.27051
2.12912	-6.94308	11.27051
2.13334	-6.96506	11.27051
2.13754	-6.98703	11.27051
2.14183	-7.00900	11.27051
2.14619	-7.00900	11.27051
2.15040	-7.03097	11.27051
2.15460	-7.05295	11.27051
2.15880	-7.07492	11.27051
2.16301	-7.09689	11.27051
2.16720	-7.14084	11.27051
2.17148	-7.16281	11.27051
2.17572	-7.16281	11.27051
2.17995	-7.20675	11.27051
2.18414	-7.20675	11.27051
2.18833	-7.27267	11.27051
2.19252	-7.29464	11.27051
2.19671	-7.31662	11.27051
2.20090	-7.31662	11.27051
2.20518	-7.36056	11.27051
2.20942	-7.38254	11.27051
2.21364	-7.42648	11.27051
2.21784	-7.47043	11.27051
2.22203	-7.49240	11.27051
2.22632	-7.53634	11.27051
2.23051	-7.53634	11.27051
2.23479	-7.58029	11.27051
2.23900	-7.62423	11.27051
2.24320	-7.66818	11.27051
2.24740	-7.71213	11.27051
2.25158	-7.71213	11.27051
2.25577	-7.75607	11.27051
2.25996	-7.80002	11.27051
2.26430	-7.84396	11.27051
2.26859	-7.88791	11.27051
2.27282	-7.95382	11.27051
2.27701	-7.95382	11.27051
2.28120	-7.97580	11.27051
2.28540	-8.04172	11.27051
2.28959	-8.08566	11.27051
2.29377	-8.12961	11.27051
2.29806	-8.17355	11.27051
2.30228	-8.21750	11.27051
2.30647	-8.21750	11.27051
2.31066	-8.28341	11.27051
2.31485	-8.32736	11.27051
2.31905	-8.39328	11.27051
2.32324	-8.43722	11.27051
2.32762	-8.50314	11.27051
2.33186	-8.50314	11.27051
2.33607	-8.54709	11.27051
2.34025	-8.59103	11.27051
2.34444	-8.65695	11.27051
2.34862	-8.70089	11.27051
2.35281	-8.76681	11.27051
2.35710	-8.76681	11.27051
2.36137	-8.83273	11.27051
2.36560	-8.89865	11.27051
2.36980	-8.96457	11.27051
2.37398	-9.00851	11.27051
2.37817	-9.07443	11.27051
2.38236	-9.14035	11.27051
2.38655	-9.14035	11.27051
2.39083	-9.18429	11.27051
2.39504	-9.25021	11.27051
2.39925	-9.31613	11.27051
2.40345	-9.38205	11.27051
2.40763	-9.44797	11.27051
2.41181	-9.44797	11.27051
2.41601	-9.51388	11.27051
2.42028	-9.57980	11.27051
2.42451	-9.64572	11.27051
2.42881	-9.71164	11.27051
2.43305	-9.77756	11.27051
2.43724	-9.84347	11.27051
2.44144	-9.84347	11.27051
2.44568	-9.90939	11.27051
2.45020	-9.99728	11.27051
2.45449	-10.06320	11.27051
2.45871	-10.12912	11.27051
2.46294	-10.19504	11.27051
2.46718	-10.26095	11.27051
2.47138	-10.26095	11.27051
2.47557	-10.32687	11.27051
2.47978	-10.41476	11.27051
2.48412	-10.48068	11.27051
2.48835	-10.56857	11.27051
2.49255	-10.63449	11.27051
2.49681	-10.63449	11.27051
2.50101	-10.72238	11.27051
2.50521	-10.78830	11.27051
2.50941	-10.85422	11.27051
2.51376	-10.94211	11.27051
2.51799	-10.94211	11.27051
2.52219	-11.00802	11.27051
2.52639	-11.09591	11.27051
2.53077	-11.16183	11.27051
2.53497	-11.24972	11.27051
2.53916	-11.31564	11.27051
2.54342	-11.31564	11.27051
2.54776	-11.40353	11.27051
2.55197	-11.49142	11.27051
2.55616	-11.53537	11.27051
2.56035	-11.64523	11.27051
2.56455	-11.71115	11.27051
2.56874	-11.79904	11.27051
2.57301	-11.79904	11.27051
2.57732	-11.86496	11.27051
2.58156	-11.95285	11.27051
2.58575	-12.04074	11.27051
2.58993	-12.10666	11.27051
2.59412	-12.19455	11.27051
2.59832	-12.26047	11.27051
2.60251	-12.26047	11.27051
2.60679	-12.34836	11.27051
2.61101	-12.43625	11.27051
2.61524	-12.52414	11.27051
2.61943	-12.61203	11.27051
2.62361	-12.61203	11.27051
2.62780	-12.67795	11.27051
2.63211	-12.76584	11.27051
2.63640	-12.85373	11.27051
2.64063	-12.91964	11.27051
2.64482	-13.00754	11.27051
2.64903	-13.09543	11.27051
2.65322	-13.09543	11.27051
2.65742	-13.18332	11.27051
2.66160	-13.27121	11.27051
2.66597	-13.35910	11.27051
2.67022	-13.42502	11.27051
2.67444	-13.51291	11.27051
2.67863	-13.60080	11.27051
2.68284	-13.60080	11.27051
2.68702	-13.66672	11.27051
2.69121	-13.77658	11.27051
2.69542	-13.84250	11.27051
2.69972	-13.93039	11.27051
2.70395	-14.01828	11.27051
2.70814	-14.01828	11.27051
2.71235	-14.10617	11.27051
2.71655	-14.19406	11.27051
2.72074	-14.28195	11.27051
2.72493	-14.34787	11.27051
2.72940	-14.43576	11.27051
2.73373	-14.50168	11.27051
2.73793	-14.50168	11.27051
2.74212	-14.61154	11.27051
2.74632	-14.67746	11.27051
2.75051	-14.76535	11.27051
2.75471	-14.85324	11.27051
2.75899	-14.94113	11.27051
2.76327	-14.94113	11.27051
2.76747	-15.02902	11.27051
2.77167	-15.11691	11.27051
2.77586	-15.18283	11.27051
2.78006	-15.27072	11.27051
2.78425	-15.27072	11.27051
2.78845	-15.35861	11.27051
2.79273	-15.44650	11.27051
2.79700	-15.53439	11.27051
2.80121	-15.62228	11.27051
2.80541	-15.68820	11.27051
2.80960	-15.75412	11.27051
2.81380	-15.75412	11.27051
2.81800	-15.84201	11.27051
2.82229	-15.92990	11.27051
2.82651	-15.99582	11.27051
2.83073	-16.08371	11.27051
2.83504	-16.14963	11.27051
2.83924	-16.14963	11.27051
2.84343	-16.23752	11.27051
2.84762	-16.32541	11.27051
2.85190	-16.39132	11.27051
2.85615	-16.45724	11.27051
2.86035	-16.54513	11.27051
2.86458	-16.63302	11.27051
2.86877	-16.63302	11.27051
2.87296	-16.69894	11.27051
2.87714	-16.76486	11.27051
2.88136	-16.85275	11.27051
2.88564	-16.94064	11.27051
2.88985	-16.94064	11.27051
2.89404	-17.07248	11.27051
2.89825	-17.07248	11.27051
2.90244	-17.13839	11.27051
2.90662	-17.20431	11.27051
2.91083	-17.29220	11.27051
2.91513	-17.35812	11.27051
2.91935	-17.35812	11.27051
2.92354	-17.42404	11.27051
2.92773	-17.51193	11.27051
2.93193	-17.57785	11.27051
2.93622	-17.64377	11.27051
2.94041	-17.70968	11.27051
2.94467	-17.77560	11.27051
2.94894	-17.77560	11.27051
2.95314	-17.84152	11.27051
2.95734	-17.90744	11.27051
2.96152	-17.97336	11.27051
2.96572	-18.06125	11.27051
2.96991	-18.12716	11.27051
2.97409	-18.12716	11.27051
2.97837	-18.19308	11.27051
2.98263	-18.23703	11.27051
2.98682	-18.30295	11.27051
2.99100	-18.36886	11.27051
2.99520	-18.43478	11.27051
2.99940	-18.43478	11.27051
3.00358	-18.50070	11.27051
3.00788	-18.56662	11.27051
3.01221	-18.63254	11.27051
3.01641	-18.69845	11.27051
3.02060	-18.76437	11.27051
3.02479	-18.76437	11.27051
3.02900	-18.83029	11.27051
3.03320	-18.87423	11.27051
3.03760	-18.94015	11.27051
3.04187	-19.00607	11.27051
3.04607	-19.05002	11.27051
3.05026	-19.05002	11.27051
3.05445	-19.11593	11.27051
3.05863	-19.15988	11.27051
3.06281	-19.22580	11.27051
3.06700	-19.26974	11.27051
3.07130	-19.33566	11.27051
3.07552	-19.37961	11.27051
3.07971	-19.37961	11.27051
3.08390	-19.44552	11.27051
3.08809	-19.48947	11.27051
3.09227	-19.53341	11.27051
3.09646	-19.59933	11.27051
3.10092	-19.64328	11.27051
3.10513	-19.68722	11.27051
3.10934	-19.68722	11.27051
3.11353	-19.73117	11.27051
3.11772	-19.77511	11.27051
3.12192	-19.84103	11.27051
3.12611	-19.88498	11.27051
3.13039	-19.88498	11.27051
3.13468	-19.92892	11.27051
3.13900	-19.97287	11.27051
3.14319	-20.01681	11.27051
3.14738	-20.06076	11.27051
3.15157	-20.08273	11.27051
3.15576	-20.12668	11.27051
3.15995	-20.12668	11.27051
3.16425	-20.17062	11.27051
3.16846	-20.21457	11.27051
3.17265	-20.25851	11.27051
3.17684	-20.30246	11.27051
3.18103	-20.34640	11.27051
3.18522	-20.34640	11.27051
3.18942	-20.36838	11.27051
3.19384	-20.39035	11.27051
3.19806	-20.43429	11.27051
3.20225	-20.47824	11.27051
3.20644	-20.50021	11.27051
3.21063	-20.52218	11.27051
3.21482	-20.52218	11.27051
3.21901	-20.56613	11.27051
3.22327	-20.58810	11.27051
3.22756	-20.61007	11.27051
3.23178	-20.63205	11.27051
3.23599	-20.65402	11.27051
3.24030	-20.67599	11.27051
3.24449	-20.67599	11.27051
3.24869	-20.69797	11.27051
3.25289	-20.71994	11.27051
3.25717	-20.71994	11.27051
3.26141	-20.74191	11.27051
3.26564	-20.74191	11.27051
3.26984	-20.74191	11.27051
3.27402	-20.76388	11.27051
3.27821	-20.76388	11.27051
3.28240	-20.76388	11.27051
3.28669	-20.78586	11.27051
3.29091	-20.78586	11.27051
3.29510	-20.76388	11.27051
3.29931	-20.78586	11.27051
3.30349	-20.76388	11.27051
3.30768	-20.76388	11.27051
3.31190	-20.74191	11.27051
3.31621	-20.74191	11.27051
3.32048	-20.74191	11.27051
3.32468	-20.74191	11.27051
3.32892	-20.71994	11.27051
3.33311	-20.69797	11.27051
3.33730	-20.67599	11.27051
3.34154	-20.65402	11.27051
3.34573	-20.65402	11.27051
3.35003	-20.63205	11.27051
3.35423	-20.61007	11.27051
3.35841	-20.58810	11.27051
3.36260	-20.56613	11.27051
3.36678	-20.54416	11.27051
3.37097	-20.54416	11.27051
3.37515	-20.52218	11.27051
3.37962	-20.50021	11.27051
3.38384	-20.45627	11.27051
3.38804	-20.43429	11.27051
3.39223	-20.41232	11.27051
3.39643	-20.41232	11.27051
3.40063	-20.36838	11.27051
3.40482	-20.34640	11.27051
3.40913	-20.32443	11.27051
3.41344	-20.28048	11.27051
3.41765	-20.25851	11.27051
3.42184	-20.21457	11.27051
3.42604	-20.21457	11.27051
3.43023	-20.19259	11.27051
3.43442	-20.14865	11.27051
3.43861	-20.12668	11.27051
3.44303	-20.08273	11.27051
3.44723	-20.06076	11.27051
3.45142	-20.01681	11.27051
3.45561	-20.01681	11.27051
3.45980	-19.99484	11.27051
3.46399	-19.95089	11.27051
3.46818	-19.90695	11.27051
3.47260	-19.88498	11.27051
3.47681	-19.84103	11.27051
3.48100	-19.84103	11.27051
3.48520	-19.79709	11.27051
3.48940	-19.75314	11.27051
3.49359	-19.73117	11.27051
3.49779	-19.68722	11.27051
3.50208	-19.64328	11.27051
3.50638	-19.62131	11.27051
3.51058	-19.62131	11.27051
3.51477	-19.57736	11.27051
3.51895	-19.53341	11.27051
3.52314	-19.48947	11.27051
3.52733	-19.44552	11.27051
3.53152	-19.44552	11.27051
3.53581	-19.40158	11.27051
3.54002	-19.35763	11.27051
3.54431	-19.31369	11.27051
3.54849	-19.26974	11.27051
3.55267	-19.22580	11.27051
3.55686	-19.22580	11.27051
3.56104	-19.20382	11.27051
3.56549	-19.13791	11.27051
3.56972	-19.11593	11.27051
3.57392	-19.07199	11.27051
3.57811	-19.02804	11.27051
3.58229	-18.98410	11.27051
3.58648	-18.98410	11.27051
3.59066	-18.94015	11.27051
3.59491	-18.89621	11.27051
3.59920	-18.85226	11.27051
3.60341	-18.80832	11.27051
3.60759	-18.80832	11.27051
3.61178	-18.76437	11.27051
3.61596	-18.72043	11.27051
3.62015	-18.67648	11.27051
3.62433	-18.63254	11.27051
3.62863	-18.58859	11.27051
3.63283	-18.54464	11.27051
3.63702	-18.54464	11.27051
3.64120	-18.50070	11.27051
3.64550	-18.45675	11.27051
3.64969	-18.39084	11.27051
3.65387	-18.36886	11.27051
3.65812	-18.30295	11.27051
3.66240	-18.28097	11.27051
3.66660	-18.28097	11.27051
3.67079	-18.23703	11.27051
3.67497	-18.19308	11.27051
3.67916	-18.14914	11.27051
3.68334	-18.08322	11.27051
3.68752	-18.08322	11.27051
3.69182	-18.03927	11.27051
3.69604	-17.99533	11.27051
3.70024	-17.95138	11.27051
3.70442	-17.92941	11.27051
3.70861	-17.86349	11.27051
3.71279	-17.81955	11.27051
3.71698	-17.81955	11.27051
3.72122	-17.77560	11.27051
3.72550	-17.73166	11.27051
3.72970	-17.68771	11.27051
3.73389	-17.64377	11.27051
3.73807	-17.59982	11.27051
3.74225	-17.59982	11.27051
3.74655	-17.55588	11.27051
3.75074	-17.51193	11.27051
3.75504	-17.46798	11.27051
3.75925	-17.42404	11.27051
3.76344	-17.38009	11.27051
3.76762	-17.33615	11.27051
3.77181	-17.33615	11.27051
3.77599	-17.29220	11.27051
3.78017	-17.24826	11.27051
3.78443	-17.18234	11.27051
3.78871	-17.16037	11.27051
3.79290	-17.16037	11.27051
3.79709	-17.11642	11.27051
3.80128	-17.07248	11.27051
3.80544	-17.02853	11.27051
3.80963	-16.98459	11.27051
3.81381	-16.94064	11.27051
3.81811	-16.94064	11.27051
3.82231	-16.89670	11.27051
3.82650	-16.85275	11.27051
3.83069	-16.80881	11.27051
3.83487	-16.78683	11.27051
3.83906	-16.74289	11.27051
3.84324	-16.74289	11.27051
3.84760	-16.69894	11.27051
3.85187	-16.65500	11.27051
3.85606	-16.61105	11.27051
3.86025	-16.56711	11.27051
3.86443	-16.54513	11.27051
3.86862	-16.54513	11.27051
3.87280	-16.50119	11.27051
3.87699	-16.45724	11.27051
3.88129	-16.43527	11.27051
3.88547	-16.39132	11.27051
3.88966	-16.34738	11.27051
3.89384	-16.30343	11.27051
3.89803	-16.30343	11.27051
3.90221	-16.28146	11.27051
3.90640	-16.23752	11.27051
3.91066	-16.19357	11.27051
3.91495	-16.17160	11.27051
3.91915	-16.12765	11.27051
3.92333	-16.10568	11.27051
3.92752	-16.10568	11.27051
3.93171	-16.06173	11.27051
3.93589	-16.01779	11.27051
3.94008	-15.99582	11.27051
3.94437	-15.95187	11.27051
3.94869	-15.95187	11.27051
3.95288	-15.92990	11.27051
3.95706	-15.90793	11.27051
3.96124	-15.86398	11.27051
3.96544	-15.84201	11.27051
3.96965	-15.79806	11.27051
3.97394	-15.77609	11.27051
3.97825	-15.77609	11.27051
3.98246	-15.75412	11.27051
3.98666	-15.71017	11.27051
3.99085	-15.68820	11.27051
3.99504	-15.66623	11.27051
3.99923	-15.64425	11.27051
4.00342	-15.60031	11.27051
4.00773	-15.60031	11.27051
4.01195	-15.57834	11.27051
4.01614	-15.55636	11.27051
4.02033	-15.53439	11.27051
4.02452	-15.51242	11.27051
4.02872	-15.46847	11.27051
4.03291	-15.46847	11.27051
4.03734	-15.46847	11.27051
4.04155	-15.42453	11.27051
4.04575	-15.40256	11.27051
4.05005	-15.38058	11.27051
4.05424	-15.35861	11.27051
4.05843	-15.35861	11.27051
4.06262	-15.33664	11.27051
4.06688	-15.31466	11.27051
4.07116	-15.29269	11.27051
4.07537	-15.27072	11.27051
4.07956	-15.27072	11.27051
4.08375	-15.27072	11.27051
4.08793	-15.22677	11.27051
4.09212	-15.22677	11.27051
4.09631	-15.20480	11.27051
4.10061	-15.18283	11.27051
4.10481	-15.16086	11.27051
4.10900	-15.16086	11.27051
4.11318	-15.13888	11.27051
4.11737	-15.13888	11.27051
4.12156	-15.11691	11.27051
4.12574	-15.09494	11.27051
4.12999	-15.09494	11.27051
4.13425	-15.07297	11.27051
4.13845	-15.07297	11.27051
4.14263	-15.07297	11.27051
4.14682	-15.05099	11.27051
4.15110	-15.02902	11.27051
4.15529	-15.02902	11.27051
4.15947	-15.02902	11.27051
4.16377	-15.00705	11.27051
4.16798	-15.00705	11.27051
4.17216	-14.98507	11.27051
4.17635	-14.98507	11.27051
4.18053	-14.96310	11.27051
4.18472	-14.96310	11.27051
4.18890	-14.96310	11.27051
4.19315	-14.94113	11.27051
4.19743	-14.94113	11.27051
4.20163	-14.94113	11.27051
4.20581	-14.91916	11.27051
4.20999	-14.91916	11.27051
4.21418	-14.91916	11.27051
4.21836	-14.91916	11.27051
4.22254	-14.89718	11.27051
4.22684	-14.89718	11.27051
4.23105	-14.89718	11.27051
4.23523	-14.89718	11.27051
4.23942	-14.89718	11.27051
4.24360	-14.89718	11.27051
4.24779	-14.87521	11.27051
4.25207	-14.87521	11.27051
4.25653	-14.87521	11.27051
4.26076	-14.87521	11.27051
4.26496	-14.87521	11.27051
4.26915	-14.87521	11.27051
4.27335	-14.87521	11.27051
4.27754	-14.87521	11.27051
4.28173	-14.85324	11.27051
4.28603	-14.87521	11.27051
4.29033	-14.85324	11.27051
4.29454	-14.85324	11.27051
4.29874	-14.87521	11.27051
4.30293	-14.87521	11.27051
4.30712	-14.85324	11.27051
4.31131	-14.87521	11.27051
4.31550	-14.87521	11.27051
4.31981	-14.87521	11.27051
4.32402	-14.87521	11.27051
4.32822	-14.87521	11.27051
4.33241	-14.87521	11.27051
4.33660	-14.87521	11.27051
4.34079	-14.87521	11.27051
4.34498	-14.89718	11.27051
4.34924	-14.89718	11.27051
4.35364	-14.89718	11.27051
4.35784	-14.91916	11.27051
4.36203	-14.89718	11.27051
4.36622	-14.91916	11.27051
4.37041	-14.91916	11.27051
4.37460	-14.91916	11.27051
4.37879	-14.91916	11.27051
4.38310	-14.94113	11.27051
4.38731	-14.94113	11.27051
4.39150	-14.94113	11.27051
4.39569	-14.96310	11.27051
4.39987	-14.96310	11.27051
4.40406	-14.96310	11.27051
4.40825	-14.98507	11.27051
4.41269	-14.98507	11.27051
4.41691	-15.00705	11.27051
4.42110	-15.00705	11.27051
4.42529	-15.00705	11.27051
4.42944	-15.02902	11.27051
4.43363	-15.02902	11.27051
4.43782	-15.02902	11.27051
4.44208	-15.05099	11.27051
4.44637	-15.05099	11.27051
4.45056	-15.07297	11.27051
4.45485	-15.07297	11.27051
4.45904	-15.09494	11.27051
4.46322	-15.09494	11.27051
4.46741	-15.11691	11.27051
4.47159	-15.11691	11.27051
4.47589	-15.13888	11.27051
4.48010	-15.13888	11.27051
4.48429	-15.16086	11.27051
4.48848	-15.18283	11.27051
4.49266	-15.18283	11.27051
4.49686	-15.20480	11.27051
4.50106	-15.22677	11.27051
4.50534	-15.22677	11.27051
4.50962	-15.22677	11.27051
4.51382	-15.24875	11.27051
4.51801	-15.24875	11.27051
4.52219	-15.27072	11.27051
4.52638	-15.29269	11.27051
4.53057	-15.29269	11.27051
4.53476	-15.29269	11.27051
4.53905	-15.33664	11.27051
4.54327	-15.33664	11.27051
4.54746	-15.35861	11.27051
4.55164	-15.35861	11.27051
4.55593	-15.35861	11.27051
4.56011	-15.38058	11.27051
4.56430	-15.40256	11.27051
4.56875	-15.42453	11.27051
4.57296	-15.44650	11.27051
4.57718	-15.44650	11.27051
4.58139	-15.44650	11.27051
4.58559	-15.46847	11.27051
4.58978	-15.49045	11.27051
4.59397	-15.51242	11.27051
4.59825	-15.53439	11.27051
4.60254	-15.53439	11.27051
4.60674	-15.55636	11.27051
4.61093	-15.55636	11.27051
4.61512	-15.57834	11.27051
4.61931	-15.57834	11.27051
4.62350	-15.62228	11.27051
4.62769	-15.62228	11.27051
4.63201	-15.64425	11.27051
4.63622	-15.64425	11.27051
4.64041	-15.66623	11.27051
4.64460	-15.68820	11.27051
4.64880	-15.71017	11.27051
4.65299	-15.73214	11.27051
4.65729	-15.73214	11.27051
4.66152	-15.75412	11.27051
4.66581	-15.75412	11.27051
4.67001	-15.77609	11.27051
4.67420	-15.79806	11.27051
4.67840	-15.82004	11.27051
4.68259	-15.84201	11.27051
4.68678	-15.84201	11.27051
4.69097	-15.84201	11.27051
4.69528	-15.88595	11.27051
4.69948	-15.88595	11.27051
4.70367	-15.90793	11.27051
4.70786	-15.92990	11.27051
4.71205	-15.95187	11.27051
4.71624	-15.95187	11.27051
4.72042	-15.97384	11.27051
4.72486	-15.99582	11.27051
4.72909	-16.01779	11.27051
4.73329	-16.03976	11.27051
4.73745	-16.06173	11.27051
4.74164	-16.08371	11.27051
4.74583	-16.08371	11.27051
4.75002	-16.10568	11.27051
4.75429	-16.12765	11.27051
4.75869	-16.12765	11.27051
4.76290	-16.17160	11.27051
4.76709	-16.19357	11.27051
4.77128	-16.19357	11.27051
4.77547	-16.19357	11.27051
4.77966	-16.23752	11.27051
4.78384	-16.23752	11.27051
4.78815	-16.25949	11.27051
4.79236	-16.28146	11.27051
4.79658	-16.28146	11.27051
4.80078	-16.30343	11.27051
4.80497	-16.32541	11.27051
4.80916	-16.34738	11.27051
4.81336	-16.36935	11.27051
4.81781	-16.39132	11.27051
4.82202	-16.39132	11.27051
4.82621	-16.41330	11.27051
4.83040	-16.43527	11.27051
4.83460	-16.45724	11.27051
4.83879	-16.47922	11.27051
4.84298	-16.50119	11.27051
4.84725	-16.50119	11.27051
4.85154	-16.52316	11.27051
4.85575	-16.54513	11.27051
4.86003	-16.56711	11.27051
4.86422	-16.58908	11.27051
4.86840	-16.61105	11.27051
4.87259	-16.63302	11.27051
4.87677	-16.63302	11.27051
4.88107	-16.65500	11.27051
4.88528	-16.67697	11.27051
4.88945	-16.67697	11.27051
4.89364	-16.72091	11.27051
4.89782	-16.72091	11.27051
4.90201	-16.72091	11.27051
4.90619	-16.74289	11.27051
4.91045	-16.76486	11.27051
4.91472	-16.78683	11.27051
4.91892	-16.80881	11.27051
4.92310	-16.83078	11.27051
4.92729	-16.83078	11.27051
4.93147	-16.85275	11.27051
4.93567	-16.87472	11.27051
4.93986	-16.87472	11.27051
4.94415	-16.89670	11.27051
4.94836	-16.91867	11.27051
4.95255	-16.94064	11.27051
4.95674	-16.94064	11.27051
4.96103	-16.96261	11.27051
4.96521	-16.96261	11.27051
4.96941	-17.00656	11.27051
4.97384	-17.00656	11.27051
4.97810	-17.02853	11.27051
4.98229	-17.05050	11.27051
4.98648	-17.05050	11.27051
4.99066	-17.05050	11.27051
4.99485	-17.07248	11.27051
4.99903	-17.09445	11.27051
5.00331	-17.11642	11.27051
5.00760	-17.11642	11.27051
5.01181	-17.11642	11.27051
5.01600	-17.13839	11.27051
5.02018	-17.16037	11.27051
5.02437	-17.16037	11.27051
5.02855	-17.18234	11.27051
5.03274	-17.18234	11.27051
5.03704	-17.18234	11.27051
5.04125	-17.20431	11.27051
5.04544	-17.22629	11.27051
5.04963	-17.22629	11.27051
5.05382	-17.24826	11.27051
5.05800	-17.24826	11.27051
5.06228	-17.24826	11.27051
5.06654	-17.27023	11.27051
5.07082	-17.27023	11.27051
5.07501	-17.29220	11.27051
5.07920	-17.29220	11.27051
5.08339	-17.29220	11.27051
5.08757	-17.29220	11.27051
5.09175	-17.31418	11.27051
5.09594	-17.31418	11.27051
5.10024	-17.33615	11.27051
5.10444	-17.33615	11.27051
5.10863	-17.33615	11.27051
5.11282	-17.33615	11.27051
5.11701	-17.35812	11.27051
5.12119	-17.35812	11.27051
5.12539	-17.35812	11.27051
5.12964	-17.35812	11.27051
5.13391	-17.38009	11.27051
5.13810	-17.38009	11.27051
5.14229	-17.38009	11.27051
5.14647	-17.38009	11.27051
5.15066	-17.40207	11.27051
5.15484	-17.38009	11.27051
5.15903	-17.40207	11.27051
5.16343	-17.38009	11.27051
5.16763	-17.38009	11.27051
5.17181	-17.40207	11.27051
5.17600	-17.40207	11.27051
5.18018	-17.40207	11.27051
5.18437	-17.42404	11.27051
5.18855	-17.42404	11.27051
5.19302	-17.40207	11.27051
5.19724	-17.42404	11.27051
5.20145	-17.42404	11.27051
5.20564	-17.40207	11.27051
5.20983	-17.42404	11.27051
5.21402	-17.40207	11.27051
5.21820	-17.40207	11.27051
5.22249	-17.42404	11.27051
5.22678	-17.40207	11.27051
5.23099	-17.40207	11.27051
5.23518	-17.40207	11.27051
5.23938	-17.40207	11.27051
5.24357	-17.40207	11.27051
5.24776	-17.40207	11.27051
5.25195	-17.40207	11.27051
5.25626	-17.40207	11.27051
5.26047	-17.40207	11.27051
5.26479	-17.38009	11.27051
5.26899	-17.40207	11.27051
5.27318	-17.40207	11.27051
5.27738	-17.38009	11.27051
5.28156	-17.38009	11.27051
5.28602	-17.38009	11.27051
5.29023	-17.38009	11.27051
5.29443	-17.38009	11.27051
5.29863	-17.35812	11.27051
5.30282	-17.35812	11.27051
5.30701	-17.35812	11.27051
5.31120	-17.35812	11.27051
5.31547	-17.35812	11.27051
5.31977	-17.35812	11.27051
5.32397	-17.35812	11.27051
5.32817	-17.35812	11.27051
5.33236	-17.33615	11.27051
5.33654	-17.31418	11.27051
5.34073	-17.33615	11.27051
5.34491	-17.31418	11.27051
5.34922	-17.31418	11.27051
5.35343	-17.31418	11.27051
5.35762	-17.31418	11.27051
5.36180	-17.29220	11.27051
5.36609	-17.29220	11.27051
5.37028	-17.27023	11.27051
5.37446	-17.29220	11.27051
5.37889	-17.29220	11.27051
5.38311	-17.27023	11.27051
5.38729	-17.24826	11.27051
5.39148	-17.24826	11.27051
5.39566	-17.22629	11.27051
5.39985	-17.22629	11.27051
5.40403	-17.22629	11.27051
5.40828	-17.22629	11.27051
5.41256	-17.22629	11.27051
5.41676	-17.20431	11.27051
5.42095	-17.18234	11.27051
5.42513	-17.18234	11.27051
5.42933	-17.18234	11.27051
5.43352	-17.16037	11.27051
5.43770	-17.16037	11.27051
5.44199	-17.16037	11.27051
5.44621	-17.13839	11.27051
5.45039	-17.13839	11.27051
5.45458	-17.11642	11.27051
5.45876	-17.11642	11.27051
5.46295	-17.11642	11.27051
5.46723	-17.09445	11.27051
5.47148	-17.09445	11.27051
5.47573	-17.07248	11.27051
5.47993	-17.07248	11.27051
5.48412	-17.07248	11.27051
5.48830	-17.05050	11.27051
5.49249	-17.02853	11.27051
5.49667	-17.02853	11.27051
5.50087	-17.00656	11.27051
5.50517	-17.00656	11.27051
5.50941	-16.98459	11.27051
5.51360	-16.98459	11.27051
5.51779	-16.96261	11.27051
5.52198	-16.96261	11.27051
5.52616	-16.94064	11.27051
5.53034	-16.94064	11.27051
5.53477	-16.94064	11.27051
5.53900	-16.91867	11.27051
5.54320	-16.91867	11.27051
5.54739	-16.89670	11.27051
5.55158	-16.87472	11.27051
5.55577	-16.87472	11.27051
5.55996	-16.85275	11.27051
5.56424	-16.85275	11.27051
5.56863	-16.85275	11.27051
5.57284	-16.80881	11.27051
5.57703	-16.80881	11.27051
5.58122	-16.78683	11.27051
5.58542	-16.76486	11.27051
5.58961	-16.76486	11.27051
5.59380	-16.76486	11.27051
5.59810	-16.74289	11.27051
5.60231	-16.74289	11.27051
5.60650	-16.72091	11.27051
5.61069	-16.72091	11.27051
5.61488	-16.69894	11.27051
5.61907	-16.67697	11.27051
5.62326	-16.67697	11.27051
5.62752	-16.65500	11.27051
5.63179	-16.63302	11.27051
5.63599	-16.63302	11.27051
5.64018	-16.63302	11.27051
5.64437	-16.61105	11.27051
5.64856	-16.58908	11.27051
5.65275	-16.58908	11.27051
5.65694	-16.56711	11.27051
5.66123	-16.54513	11.27051
5.66546	-16.54513	11.27051
5.66976	-16.54513	11.27051
5.67395	-16.52316	11.27051
5.67814	-16.50119	11.27051
5.68233	-16.47922	11.27051
5.68651	-16.47922	11.27051
5.69092	-16.45724	11.27051
5.69514	-16.45724	11.27051
5.69934	-16.43527	11.27051
5.70352	-16.43527	11.27051
5.70770	-16.41330	11.27051
5.71189	-16.39132	11.27051
5.71607	-16.36935	11.27051
5.72032	-16.36935	11.27051
5.72457	-16.36935	11.27051
5.72878	-16.34738	11.27051
5.73297	-16.32541	11.27051
5.73715	-16.32541	11.27051
5.74135	-16.30343	11.27051
5.74553	-16.30343	11.27051
5.74977	-16.28146	11.27051
5.75408	-16.25949	11.27051
5.75829	-16.25949	11.27051
5.76248	-16.23752	11.27051
5.76666	-16.21554	11.27051
5.77095	-16.19357	11.27051
5.77513	-16.19357	11.27051
5.77933	-16.19357	11.27051
5.78375	-16.17160	11.27051
5.78798	-16.14963	11.27051
5.79217	-16.14963	11.27051
5.79636	-16.12765	11.27051
5.80055	-16.10568	11.27051
5.80474	-16.10568	11.27051
5.80894	-16.08371	11.27051
5.81322	-16.06173	11.27051
5.81752	-16.06173	11.27051
5.82173	-16.03976	11.27051
5.82592	-16.03976	11.27051
5.83011	-16.03976	11.27051
5.83430	-16.01779	11.27051
5.83849	-15.99582	11.27051
5.84268	-15.99582	11.27051
5.84699	-15.97384	11.27051
5.85120	-15.97384	11.27051
5.85540	-15.97384	11.27051
5.85959	-15.95187	11.27051
5.86378	-15.92990	11.27051
5.86797	-15.90793	11.27051
5.87227	-15.90793	11.27051
5.87654	-15.90793	11.27051
5.88080	-15.88595	11.27051
5.88501	-15.86398	11.27051
5.88920	-15.86398	11.27051
5.89340	-15.84201	11.27051
5.89760	-15.84201	11.27051
5.90179	-15.82004	11.27051
5.90598	-15.82004	11.27051
5.91028	-15.79806	11.27051
5.91450	-15.79806	11.27051
5.91869	-15.77609	11.27051
5.92288	-15.75412	11.27051
5.92707	-15.75412	11.27051
5.93125	-15.75412	11.27051
5.93544	-15.73214	11.27051
5.93985	-15.73214	11.27051
5.94408	-15.71017	11.27051
5.94827	-15.71017	11.27051
5.95246	-15.68820	11.27051
5.95665	-15.68820	11.27051
5.96084	-15.66623	11.27051
5.96503	-15.66623	11.27051
5.96930	-15.64425	11.27051
5.97369	-15.62228	11.27051
5.97789	-15.62228	11.27051
5.98208	-15.60031	11.27051
5.98628	-15.60031	11.27051
5.99047	-15.60031	11.27051
5.99466	-15.57834	11.27051
5.99884	-15.57834	11.27051
6.00314	-15.55636	11.27051
6.00735	-15.53439	11.27051
6.01155	-15.53439	11.27051
6.01574	-15.53439	11.27051
6.01993	-15.51242	11.27051
6.02412	-15.51242	11.27051
6.02831	-15.49045	11.27051
6.03258	-15.49045	11.27051
6.03683	-15.46847	11.27051
6.04109	-15.46847	11.27051
6.04529	-15.46847	11.27051
6.04945	-15.44650	11.27051
6.05364	-15.42453	11.27051
6.05783	-15.42453	11.27051
6.06202	-15.40256	11.27051
6.06632	-15.40256	11.27051
6.07053	-15.40256	11.27051
6.07482	-15.38058	11.27051
6.07901	-15.38058	11.27051
6.08320	-15.35861	11.27051
6.08738	-15.35861	11.27051
6.09157	-15.35861	11.27051
6.09597	-15.35861	11.27051
6.10019	-15.33664	11.27051
6.10438	-15.31466	11.27051
6.10856	-15.31466	11.27051
6.11275	-15.31466	11.27051
6.11693	-15.31466	11.27051
6.12111	-15.29269	11.27051
6.12539	-15.27072	11.27051
6.12967	-15.27072	11.27051
6.13387	-15.24875	11.27051
6.13806	-15.24875	11.27051
6.14224	-15.24875	11.27051
6.14643	-15.24875	11.27051
6.15061	-15.24875	11.27051
6.15480	-15.22677	11.27051
6.15908	-15.22677	11.27051
6.16330	-15.20480	11.27051
6.16749	-15.20480	11.27051
6.17168	-15.20480	11.27051
6.17596	-15.18283	11.27051
6.18015	-15.18283	11.27051
6.18433	-15.18283	11.27051
6.18858	-15.18283	11.27051
6.19283	-15.16086	11.27051
6.19703	-15.16086	11.27051
6.20122	-15.16086	11.27051
6.20542	-15.13888	11.27051
6.20960	-15.13888	11.27051
6.21378	-15.13888	11.27051
6.21797	-15.13888	11.27051
6.22226	-15.11691	11.27051
6.22647	-15.11691	11.27051
6.23066	-15.11691	11.27051
6.23484	-15.11691	11.27051
6.23903	-15.09494	11.27051
6.24321	-15.09494	11.27051
6.24741	-15.09494	11.27051
6.25166	-15.09494	11.27051
6.25591	-15.09494	11.27051
6.26010	-15.07297	11.27051
6.26430	-15.07297	11.27051
6.26854	-15.07297	11.27051
6.27275	-15.07297	11.27051
6.27707	-15.07297	11.27051
6.28137	-15.05099	11.27051
6.28566	-15.05099	11.27051
6.28989	-15.05099	11.27051
6.29410	-15.02902	11.27051
6.29830	-15.02902	11.27051
6.30249	-15.02902	11.27051
6.30667	-15.02902	11.27051
6.31086	-15.02902	11.27051
6.31515	-15.02902	11.27051
6.31938	-15.02902	11.27051
6.32357	-15.00705	11.27051
6.32776	-15.00705	11.27051
6.33194	-15.00705	11.27051
6.33613	-15.00705	11.27051
6.34032	-15.00705	11.27051
6.34457	-14.98507	11.27051
6.34884	-14.98507	11.27051
6.35305	-14.98507	11.27051
6.35724	-14.98507	11.27051
6.36143	-14.98507	11.27051
6.36563	-14.98507	11.27051
6.36983	-14.98507	11.27051
6.37402	-14.96310	11.27051
6.37842	-14.96310	11.27051
6.38262	-14.96310	11.27051
6.38681	-14.96310	11.27051
6.39100	-14.96310	11.27051
6.39518	-14.96310	11.27051
6.39937	-14.94113	11.27051
6.40355	-14.94113	11.27051
6.40800	-14.94113	11.27051
6.41223	-14.94113	11.27051
6.41641	-14.94113	11.27051
6.42060	-14.94113	11.27051
6.42479	-14.94113	11.27051
6.42897	-14.94113	11.27051
6.43316	-14.91916	11.27051
6.43742	-14.91916	11.27051
6.44169	-14.91916	11.27051
6.44590	-14.91916	11.27051
6.45009	-14.91916	11.27051
6.45428	-14.91916	11.27051
6.45846	-14.91916	11.27051
6.46265	-14.91916	11.27051
6.46685	-14.89718	11.27051
6.47115	-14.89718	11.27051
6.47536	-14.89718	11.27051
6.47966	-14.89718	11.27051
6.48385	-14.89718	11.27051
6.48803	-14.89718	11.27051
6.49221	-14.89718	11.27051
6.49640	-14.89718	11.27051
6.50066	-14.87521	11.27051
6.50494	-14.87521	11.27051
6.50914	-14.87521	11.27051
6.51334	-14.87521	11.27051
6.51752	-14.87521	11.27051
6.52171	-14.87521	11.27051
6.52589	-14.87521	11.27051
6.53007	-14.87521	11.27051
6.53438	-14.85324	11.27051
6.53858	-14.85324	11.27051
6.54276	-14.85324	11.27051
6.54695	-14.85324	11.27051
6.55114	-14.85324	11.27051
6.55532	-14.85324	11.27051
6.55951	-14.85324	11.27051
6.56375	-14.85324	11.27051
6.56805	-14.85324	11.27051
6.57226	-14.85324	11.27051
6.57645	-14.83127	11.27051
6.58078	-14.83127	11.27051
6.58498	-14.83127	11.27051
6.58917	-14.83127	11.27051
6.59343	-14.83127	11.27051
6.59779	-14.83127	11.27051
6.60201	-14.83127	11.27051
6.60621	-14.83127	11.27051
6.61040	-14.83127	11.27051
6.61460	-14.83127	11.27051
6.61879	-14.83127	11.27051
6.62297	-14.83127	11.27051
6.62734	-14.83127	11.27051
6.63156	-14.80929	11.27051
6.63575	-14.83127	11.27051
6.63994	-14.83127	11.27051
6.64413	-14.80929	11.27051
6.64831	-14.83127	11.27051
6.65250	-14.83127	11.27051
6.65676	-14.80929	11.27051
6.66103	-14.80929	11.27051
6.66526	-14.80929	11.27051
6.66945	-14.80929	11.27051
6.67364	-14.80929	11.27051
6.67783	-14.80929	11.27051
6.68212	-14.80929	11.27051
6.68630	-14.80929	11.27051
6.69060	-14.80929	11.27051
6.69482	-14.80929	11.27051
6.69901	-14.80929	11.27051
6.70319	-14.80929	11.27051
6.70738	-14.80929	11.27051
6.71156	-14.80929	11.27051
6.71574	-14.80929	11.27051
6.72000	-14.80929	11.27051
6.72427	-14.80929	11.27051
6.72847	-14.80929	11.27051
6.73265	-14.80929	11.27051
6.73684	-14.80929	11.27051
6.74102	-14.80929	11.27051
6.74520	-14.80929	11.27051
6.74940	-14.80929	11.27051
6.75371	-14.80929	11.27051
6.75791	-14.80929	11.27051
6.76210	-14.80929	11.27051
6.76631	-14.80929	11.27051
6.77050	-14.80929	11.27051
6.77469	-14.80929	11.27051
6.77888	-14.80929	11.27051
6.78336	-14.80929	11.27051
6.78758	-14.80929	11.27051
6.79177	-14.80929	11.27051
6.79595	-14.80929	11.27051
6.80014	-14.80929	11.27051
6.80432	-14.80929	11.27051
6.80851	-14.80929	11.27051
6.81274	-14.80929	11.27051
6.81704	-14.80929	11.27051
6.82124	-14.80929	11.27051
6.82544	-14.80929	11.27051
6.82962	-14.80929	11.27051
6.83381	-14.80929	11.27051
6.83799	-14.80929	11.27051
6.84217	-14.80929	11.27051
6.84647	-14.80929	11.27051
6.85067	-14.80929	11.27051
6.85485	-14.80929	11.27051
6.85904	-14.80929	11.27051
6.86322	-14.83127	11.27051
6.86742	-14.80929	11.27051
6.87161	-14.83127	11.27051
6.87587	-14.83127	11.27051
6.88015	-14.83127	11.27051
6.88445	-14.83127	11.27051
6.88863	-14.83127	11.27051
6.89282	-14.83127	11.27051
6.89700	-14.83127	11.27051
6.90118	-14.83127	11.27051
6.90538	-14.83127	11.27051
6.90968	-14.83127	11.27051
6.91388	-14.83127	11.27051
6.91807	-14.83127	11.27051
6.92226	-14.83127	11.27051
6.92644	-14.85324	11.27051
6.93062	-14.85324	11.27051
6.93481	-14.85324	11.27051
6.93906	-14.85324	11.27051
6.94333	-14.85324	11.27051
6.94753	-14.85324	11.27051
6.95171	-14.85324	11.27051
6.95590	-14.87521	11.27051
6.96009	-14.87521	11.27051
6.96427	-14.87521	11.27051
6.96847	-14.87521	11.27051
6.97278	-14.87521	11.27051
6.97698	-14.87521	11.27051
6.98118	-14.87521	11.27051
6.98549	-14.87521	11.27051
6.98967	-14.87521	11.27051
6.99386	-14.87521	11.27051
6.99804	-14.89718	11.27051
7.00241	-14.89718	11.27051
7.00663	-14.89718	11.27051
7.01082	-14.89718	11.27051
7.01501	-14.89718	11.27051
7.01919	-14.89718	11.27051
7.02337	-14.91916	11.27051
7.02756	-14.91916	11.27051
7.03336	-14.91916	11.27051
7.03764	-14.91916	11.27051
7.04184	-14.94113	11.27051
7.04603	-14.94113	11.27051
7.05022	-14.94113	11.27051
7.05440	-14.94113	11.27051
7.05859	-14.94113	11.27051
7.06284	-14.96310	11.27051
7.06715	-14.96310	11.27051
7.07136	-14.96310	11.27051
7.07555	-14.96310	11.27051
7.07975	-14.96310	11.27051
7.08394	-14.98507	11.27051
7.08823	-14.98507	11.27051
7.09242	-14.98507	11.27051
7.09673	-15.00705	11.27051
7.10093	-15.00705	11.27051
7.10512	-15.00705	11.27051
7.10932	-15.00705	11.27051
7.11352	-15.00705	11.27051
7.11771	-15.02902	11.27051
7.12190	-15.02902	11.27051
7.12615	-15.02902	11.27051
7.13042	-15.02902	11.27051
7.13461	-15.05099	11.27051
7.13880	-15.05099	11.27051
7.14298	-15.07297	11.27051
7.14717	-15.07297	11.27051
7.15135	-15.07297	11.27051
7.15554	-15.07297	11.27051
7.15983	-15.09494	11.27051
7.16404	-15.09494	11.27051
7.16825	-15.09494	11.27051
7.17244	-15.09494	11.27051
7.17664	-15.11691	11.27051
7.18082	-15.11691	11.27051
7.18501	-15.11691	11.27051
7.18959	-15.13888	11.27051
7.19379	-15.13888	11.27051
7.19798	-15.13888	11.27051
7.20217	-15.16086	11.27051
7.20635	-15.18283	11.27051
7.21054	-15.18283	11.27051
7.21472	-15.18283	11.27051
7.21897	-15.18283	11.27051
7.22324	-15.20480	11.27051
7.22744	-15.20480	11.27051
7.23162	-15.20480	11.27051
7.23581	-15.20480	11.27051
7.23999	-15.22677	11.27051
7.24417	-15.22677	11.27051
7.24836	-15.24875	11.27051
7.25265	-15.24875	11.27051
7.25685	-15.27072	11.27051
7.26104	-15.27072	11.27051
7.26526	-15.27072	11.27051
7.26945	-15.27072	11.27051
7.27365	-15.29269	11.27051
7.27783	-15.31466	11.27051
7.28227	-15.31466	11.27051
7.28648	-15.31466	11.27051
7.29077	-15.31466	11.27051
7.29495	-15.33664	11.27051
7.29914	-15.35861	11.27051
7.30332	-15.35861	11.27051
7.30751	-15.38058	11.27051
7.31176	-15.38058	11.27051
7.31603	-15.38058	11.27051
7.32022	-15.40256	11.27051
7.32440	-15.40256	11.27051
7.32859	-15.42453	11.27051
7.33277	-15.42453	11.27051
7.33696	-15.42453	11.27051
7.34114	-15.42453	11.27051
7.34545	-15.44650	11.27051
7.34965	-15.46847	11.27051
7.35384	-15.46847	11.27051
7.35802	-15.49045	11.27051
7.36220	-15.49045	11.27051
7.36641	-15.49045	11.27051
7.37060	-15.51242	11.27051
7.37505	-15.53439	11.27051
7.37928	-15.53439	11.27051
7.38347	-15.55636	11.27051
7.38766	-15.55636	11.27051
7.39195	-15.55636	11.27051
7.39614	-15.57834	11.27051
7.40032	-15.57834	11.27051
7.40457	-15.60031	11.27051
7.40885	-15.60031	11.27051
7.41305	-15.60031	11.27051
7.41723	-15.62228	11.27051
7.42143	-15.62228	11.27051
7.42561	-15.64425	11.27051
7.42980	-15.66623	11.27051
7.43398	-15.66623	11.27051
7.43828	-15.68820	11.27051
7.44248	-15.68820	11.27051
7.44667	-15.68820	11.27051
7.45086	-15.71017	11.27051
7.45504	-15.71017	11.27051
7.45923	-15.73214	11.27051
7.46341	-15.75412	11.27051
7.46769	-15.75412	11.27051
7.47197	-15.75412	11.27051
7.47617	-15.77609	11.27051
7.48036	-15.77609	11.27051
7.48455	-15.79806	11.27051
7.48873	-15.82004	11.27051
7.49302	-15.82004	11.27051
7.49720	-15.82004	11.27051
7.50152	-15.82004	11.27051
7.50572	-15.84201	11.27051
7.50991	-15.84201	11.27051
7.51410	-15.86398	11.27051
7.51828	-15.86398	11.27051
7.52247	-15.86398	11.27051
7.52665	-15.88595	11.27051
7.53091	-15.88595	11.27051
7.53518	-15.90793	11.27051
7.53938	-15.92990	11.27051
7.54356	-15.92990	11.27051
7.54775	-15.95187	11.27051
7.55194	-15.95187	11.27051
7.55612	-15.95187	11.27051
7.56030	-15.97384	11.27051
7.56460	-15.97384	11.27051
7.56882	-15.99582	11.27051
7.57301	-15.99582	11.27051
7.57721	-15.99582	11.27051
7.58141	-16.01779	11.27051
7.58560	-16.03976	11.27051
7.58978	-16.03976	11.27051
7.59433	-16.03976	11.27051
7.59853	-16.06173	11.27051
7.60272	-16.06173	11.27051
7.60690	-16.06173	11.27051
7.61109	-16.08371	11.27051
7.61527	-16.10568	11.27051
7.61946	-16.10568	11.27051
7.62371	-16.10568	11.27051
7.62798	-16.10568	11.27051
7.63217	-16.12765	11.27051
7.63636	-16.14963	11.27051
7.64054	-16.14963	11.27051
7.64473	-16.17160	11.27051
7.64891	-16.17160	11.27051
7.65309	-16.17160	11.27051
7.65741	-16.19357	11.27051
7.66162	-16.19357	11.27051
7.66581	-16.21554	11.27051
7.67001	-16.21554	11.27051
7.67420	-16.21554	11.27051
7.67839	-16.23752	11.27051
7.68257	-16.23752	11.27051
7.68701	-16.23752	11.27051
7.69122	-16.25949	11.27051
7.69551	-16.25949	11.27051
7.69969	-16.28146	11.27051
7.70388	-16.28146	11.27051
7.70806	-16.30343	11.27051
7.71224	-16.30343	11.27051
7.71651	-16.30343	11.27051
7.72078	-16.32541	11.27051
7.72498	-16.32541	11.27051
7.72916	-16.34738	11.27051
7.73336	-16.34738	11.27051
7.73755	-16.34738	11.27051
7.74173	-16.36935	11.27051
7.74591	-16.36935	11.27051
7.75021	-16.39132	11.27051
7.75443	-16.39132	11.27051
7.75862	-16.41330	11.27051
7.76281	-16.41330	11.27051
7.76701	-16.41330	11.27051
7.77120	-16.41330	11.27051
7.77540	-16.45724	11.27051
7.77984	-16.43527	11.27051
7.78404	-16.45724	11.27051
7.78823	-16.45724	11.27051
7.79241	-16.45724	11.27051
7.79670	-16.47922	11.27051
7.80089	-16.47922	11.27051
7.80507	-16.50119	11.27051
7.80934	-16.52316	11.27051
7.81362	-16.52316	11.27051
7.81782	-16.52316	11.27051
7.82200	-16.52316	11.27051
7.82619	-16.54513	11.27051
7.83037	-16.54513	11.27051
7.83456	-16.54513	11.27051
7.83875	-16.54513	11.27051
7.84304	-16.56711	11.27051
7.84725	-16.56711	11.27051
7.85144	-16.58908	11.27051
7.85562	-16.58908	11.27051
7.85981	-16.61105	11.27051
7.86400	-16.58908	11.27051
7.86820	-16.58908	11.27051
7.87264	-16.63302	11.27051
7.87685	-16.63302	11.27051
7.88105	-16.63302	11.27051
7.88525	-16.63302	11.27051
7.88944	-16.65500	11.27051
7.89363	-16.65500	11.27051
7.89791	-16.65500	11.27051
7.90217	-16.65500	11.27051
7.90644	-16.67697	11.27051
7.91065	-16.67697	11.27051
7.91484	-16.67697	11.27051
7.91903	-16.67697	11.27051
7.92322	-16.69894	11.27051
7.92740	-16.69894	11.27051
7.93159	-16.69894	11.27051
7.93589	-16.69894	11.27051
7.94010	-16.72091	11.27051
7.94428	-16.72091	11.27051
7.94847	-16.72091	11.27051
7.95266	-16.72091	11.27051
7.95684	-16.72091	11.27051
7.96102	-16.72091	11.27051
7.96529	-16.74289	11.27051
7.96956	-16.74289	11.27051
7.97376	-16.74289	11.27051
7.97796	-16.76486	11.27051
7.98214	-16.74289	11.27051
7.98633	-16.76486	11.27051
7.99052	-16.76486	11.27051
7.99470	-16.76486	11.27051
7.99911	-16.76486	11.27051
8.00330	-16.78683	11.27051
8.00749	-16.76486	11.27051
8.01167	-16.78683	11.27051
8.01586	-16.78683	11.27051
8.02005	-16.78683	11.27051
8.02423	-16.78683	11.27051
8.02865	-16.78683	11.27051
8.03285	-16.78683	11.27051
8.03703	-16.78683	11.27051
8.04122	-16.78683	11.27051
8.04541	-16.78683	11.27051
8.04960	-16.78683	11.27051
8.05378	-16.80881	11.27051
8.05804	-16.78683	11.27051
8.06233	-16.80881	11.27051
8.06652	-16.80881	11.27051
8.07072	-16.80881	11.27051
8.07492	-16.80881	11.27051
8.07911	-16.80881	11.27051
8.08330	-16.80881	11.27051
8.08748	-16.80881	11.27051
8.09178	-16.80881	11.27051
8.09601	-16.80881	11.27051
8.10030	-16.80881	11.27051
8.10449	-16.80881	11.27051
8.10867	-16.80881	11.27051
8.11286	-16.80881	11.27051
8.11704	-16.80881	11.27051
8.12130	-16.80881	11.27051
8.12558	-16.80881	11.27051
8.12978	-16.80881	11.27051
8.13396	-16.80881	11.27051
8.13815	-16.80881	11.27051
8.14233	-16.80881	11.27051
8.14653	-16.80881	11.27051
8.15071	-16.80881	11.27051
8.15501	-16.80881	11.27051
8.15922	-16.80881	11.27051
8.16340	-16.78683	11.27051
8.16761	-16.80881	11.27051
8.17181	-16.78683	11.27051
8.17599	-16.78683	11.27051
8.18018	-16.78683	11.27051
8.18462	-16.78683	11.27051
8.18884	-16.78683	11.27051
8.19302	-16.80881	11.27051
8.19721	-16.78683	11.27051
8.20151	-16.78683	11.27051
8.20569	-16.78683	11.27051
8.20988	-16.78683	11.27051
8.21413	-16.78683	11.27051
8.21841	-16.78683	11.27051
8.22260	-16.76486	11.27051
8.22679	-16.76486	11.27051
8.23098	-16.76486	11.27051
8.23517	-16.76486	11.27051
8.23935	-16.78683	11.27051
8.24353	-16.76486	11.27051
8.24783	-16.76486	11.27051
8.25203	-16.76486	11.27051
8.25622	-16.74289	11.27051
8.26040	-16.74289	11.27051
8.26462	-16.74289	11.27051
8.26882	-16.74289	11.27051
8.27301	-16.74289	11.27051
8.27748	-16.74289	11.27051
8.28169	-16.74289	11.27051
8.28587	-16.74289	11.27051
8.29006	-16.74289	11.27051
8.29424	-16.74289	11.27051
8.29843	-16.72091	11.27051
8.30271	-16.72091	11.27051
8.30697	-16.72091	11.27051
8.31124	-16.72091	11.27051
8.31543	-16.69894	11.27051
8.31962	-16.69894	11.27051
8.32380	-16.69894	11.27051
8.32799	-16.69894	11.27051
8.33217	-16.69894	11.27051
8.33635	-16.67697	11.27051
8.34065	-16.67697	11.27051
8.34485	-16.67697	11.27051
8.34904	-16.67697	11.27051
8.35322	-16.67697	11.27051
8.35741	-16.67697	11.27051
8.36160	-16.67697	11.27051
8.36578	-16.65500	11.27051
8.37006	-16.65500	11.27051
8.37434	-16.65500	11.27051
8.37854	-16.65500	11.27051
8.38272	-16.65500	11.27051
8.38691	-16.63302	11.27051
8.39109	-16.63302	11.27051
8.39528	-16.63302	11.27051
8.39946	-16.63302	11.27051
8.40386	-16.61105	11.27051
8.40810	-16.61105	11.27051
8.41230	-16.61105	11.27051
8.41648	-16.61105	11.27051
8.42067	-16.61105	11.27051
8.42485	-16.58908	11.27051
8.42913	-16.58908	11.27051
8.43383	-16.58908	11.27051
8.43806	-16.58908	11.27051
8.44225	-16.56711	11.27051
8.44644	-16.56711	11.27051
8.45063	-16.56711	11.27051
8.45482	-16.56711	11.27051
8.45901	-16.56711	11.27051
8.46327	-16.56711	11.27051
8.46755	-16.54513	11.27051
8.47174	-16.54513	11.27051
8.47593	-16.54513	11.27051
8.48012	-16.54513	11.27051
8.48431	-16.52316	11.27051
8.48849	-16.52316	11.27051
8.49268	-16.52316	11.27051
8.49698	-16.52316	11.27051
8.50121	-16.52316	11.27051
8.50551	-16.52316	11.27051
8.50970	-16.50119	11.27051
8.51389	-16.50119	11.27051
8.51807	-16.47922	11.27051
8.52226	-16.47922	11.27051
8.52662	-16.47922	11.27051
8.53085	-16.47922	11.27051
8.53505	-16.47922	11.27051
8.53924	-16.45724	11.27051
8.54343	-16.45724	11.27051
8.54762	-16.45724	11.27051
8.55180	-16.45724	11.27051
8.55606	-16.43527	11.27051
8.56035	-16.45724	11.27051
8.56455	-16.43527	11.27051
8.56874	-16.43527	11.27051
8.57293	-16.43527	11.27051
8.57711	-16.43527	11.27051
8.58130	-16.43527	11.27051
8.58545	-16.41330	11.27051
8.58982	-16.41330	11.27051
8.59405	-16.41330	11.27051
8.59824	-16.41330	11.27051
8.60242	-16.41330	11.27051
8.60671	-16.41330	11.27051
8.61090	-16.41330	11.27051
8.61508	-16.39132	11.27051
8.61933	-16.39132	11.27051
8.62362	-16.39132	11.27051
8.62783	-16.39132	11.27051
8.63201	-16.39132	11.27051
8.63619	-16.39132	11.27051
8.64038	-16.36935	11.27051
8.64456	-16.36935	11.27051
8.64874	-16.36935	11.27051
8.65304	-16.36935	11.27051
8.65724	-16.36935	11.27051
8.66144	-16.36935	11.27051
8.66563	-16.36935	11.27051
8.66981	-16.34738	11.27051
8.67400	-16.34738	11.27051
8.67818	-16.34738	11.27051
8.68243	-16.34738	11.27051
8.68670	-16.34738	11.27051
8.69090	-16.34738	11.27051
8.69509	-16.32541	11.27051
8.69927	-16.34738	11.27051
8.70346	-16.32541	11.27051
8.70774	-16.32541	11.27051
8.71193	-16.32541	11.27051
8.71623	-16.32541	11.27051
8.72042	-16.32541	11.27051
8.72461	-16.32541	11.27051
8.72879	-16.32541	11.27051
8.73298	-16.32541	11.27051
8.73716	-16.32541	11.27051
8.74136	-16.32541	11.27051
8.74562	-16.30343	11.27051
8.74990	-16.32541	11.27051
8.75410	-16.30343	11.27051
8.75828	-16.30343	11.27051
8.76247	-16.30343	11.27051
8.76665	-16.30343	11.27051
8.77084	-16.30343	11.27051
8.77502	-16.30343	11.27051
8.77932	-16.28146	11.27051
8.78352	-16.30343	11.27051
8.78771	-16.30343	11.27051
8.79189	-16.30343	11.27051
8.79608	-16.30343	11.27051
8.80026	-16.30343	11.27051
8.80444	-16.30343	11.27051
8.80880	-16.30343	11.27051
8.81311	-16.30343	11.27051
8.81734	-16.30343	11.27051
8.82153	-16.30343	11.27051
8.82572	-16.30343	11.27051
8.82991	-16.30343	11.27051
8.83409	-16.30343	11.27051
8.83828	-16.28146	11.27051
8.84258	-16.28146	11.27051
8.84679	-16.30343	11.27051
8.85098	-16.28146	11.27051
8.85516	-16.28146	11.27051
8.85935	-16.28146	11.27051
8.86353	-16.28146	11.27051
8.86771	-16.30343	11.27051
8.87199	-16.30343	11.27051
8.87628	-16.28146	11.27051
8.88049	-16.28146	11.27051
8.88468	-16.28146	11.27051
8.88886	-16.28146	11.27051
8.89305	-16.28146	11.27051
8.89723	-16.28146	11.27051
8.90143	-16.28146	11.27051
8.90573	-16.28146	11.27051
8.91007	-16.28146	11.27051
8.91426	-16.30343	11.27051
8.91845	-16.30343	11.27051
8.92264	-16.28146	11.27051
8.92682	-16.28146	11.27051
8.93101	-16.28146	11.27051
8.93544	-16.28146	11.27051
8.93965	-16.30343	11.27051
8.94384	-16.30343	11.27051
8.94803	-16.28146	11.27051
8.95221	-16.28146	11.27051
8.95639	-16.28146	11.27051
8.96058	-16.28146	11.27051
8.96482	-16.28146	11.27051
8.96913	-16.28146	11.27051
8.97335	-16.28146	11.27051
8.97754	-16.30343	11.27051
8.98174	-16.28146	11.27051
8.98592	-16.30343	11.27051
8.99011	-16.30343	11.27051
8.99429	-16.30343	11.27051
8.99859	-16.30343	11.27051
9.00280	-16.30343	11.27051
9.00699	-16.30343	11.27051
9.01128	-16.30343	11.27051
9.01546	-16.30343	11.27051
9.01965	-16.30343	11.27051
9.02383	-16.30343	11.27051
9.02808	-16.30343	11.27051
9.03236	-16.30343	11.27051
9.03656	-16.30343	11.27051
9.04075	-16.30343	11.27051
9.04494	-16.30343	11.27051
9.04912	-16.30343	11.27051
9.05332	-16.30343	11.27051
9.05751	-16.30343	11.27051
9.06181	-16.32541	11.27051
9.06601	-16.30343	11.27051
9.07022	-16.32541	11.27051
9.07441	-16.32541	11.27051
9.07860	-16.32541	11.27051
9.08279	-16.32541	11.27051
9.08697	-16.32541	11.27051
9.09142	-16.32541	11.27051
9.09566	-16.32541	11.27051
9.09985	-16.32541	11.27051
9.10403	-16.32541	11.27051
9.10822	-16.32541	11.27051
9.11251	-16.32541	11.27051
9.11669	-16.32541	11.27051
9.12094	-16.34738	11.27051
9.12521	-16.32541	11.27051
9.12942	-16.34738	11.27051
9.13361	-16.34738	11.27051
9.13779	-16.34738	11.27051
9.14198	-16.34738	11.27051
9.14616	-16.34738	11.27051
9.15034	-16.34738	11.27051
9.15464	-16.34738	11.27051
9.15886	-16.34738	11.27051
9.16305	-16.34738	11.27051
9.16724	-16.34738	11.27051
9.17144	-16.34738	11.27051
9.17563	-16.34738	11.27051
9.17981	-16.34738	11.27051
9.18406	-16.34738	11.27051
9.18834	-16.34738	11.27051
9.19253	-16.34738	11.27051
9.19672	-16.34738	11.27051
9.20090	-16.34738	11.27051
9.20509	-16.34738	11.27051
9.20927	-16.34738	11.27051
9.21355	-16.34738	11.27051
9.21784	-16.34738	11.27051
9.22204	-16.34738	11.27051
9.22623	-16.34738	11.27051
9.23042	-16.34738	11.27051
9.23460	-16.34738	11.27051
9.23878	-16.34738	11.27051
9.24296	-16.34738	11.27051
9.24740	-16.34738	11.27051
9.25160	-16.36935	11.27051
9.25579	-16.34738	11.27051
9.25997	-16.34738	11.27051
9.26416	-16.34738	11.27051
9.26835	-16.34738	11.27051
9.27255	-16.34738	11.27051
9.27683	-16.34738	11.27051
9.28113	-16.34738	11.27051
9.28535	-16.34738	11.27051
9.28954	-16.34738	11.27051
9.29373	-16.34738	11.27051
9.29792	-16.34738	11.27051
9.30210	-16.34738	11.27051
9.30630	-16.32541	11.27051
9.31060	-16.34738	11.27051
9.31491	-16.32541	11.27051
9.31910	-16.32541	11.27051
9.32329	-16.34738	11.27051
9.32747	-16.32541	11.27051
9.33166	-16.32541	11.27051
9.33584	-16.32541	11.27051
9.34009	-16.32541	11.27051
9.34437	-16.32541	11.27051
9.34856	-16.32541	11.27051
9.35275	-16.30343	11.27051
9.35693	-16.32541	11.27051
9.36112	-16.32541	11.27051
9.36531	-16.32541	11.27051
9.36952	-16.32541	11.27051
9.37383	-16.32541	11.27051
9.37803	-16.30343	11.27051
9.38223	-16.30343	11.27051
9.38642	-16.30343	11.27051
9.39060	-16.30343	11.27051
9.39479	-16.30343	11.27051
9.39897	-16.30343	11.27051
9.40342	-16.28146	11.27051
9.40763	-16.30343	11.27051
9.41182	-16.28146	11.27051
9.41611	-16.28146	11.27051
9.42029	-16.28146	11.27051
9.42447	-16.28146	11.27051
9.42866	-16.28146	11.27051
9.43291	-16.28146	11.27051
9.43718	-16.25949	11.27051
9.44139	-16.25949	11.27051
9.44558	-16.25949	11.27051
9.44976	-16.25949	11.27051
9.45395	-16.25949	11.27051
9.45813	-16.25949	11.27051
9.46231	-16.25949	11.27051
9.46661	-16.25949	11.27051
9.47083	-16.23752	11.27051
9.47502	-16.23752	11.27051
9.47921	-16.25949	11.27051
9.48340	-16.23752	11.27051
9.48759	-16.23752	11.27051
9.49177	-16.23752	11.27051
9.49602	-16.21554	11.27051
9.50029	-16.21554	11.27051
9.50448	-16.21554	11.27051
9.50867	-16.21554	11.27051
9.51285	-16.21554	11.27051
9.51714	-16.21554	11.27051
9.52133	-16.21554	11.27051
9.52551	-16.21554	11.27051
9.52982	-16.19357	11.27051
9.53402	-16.19357	11.27051
9.53820	-16.19357	11.27051
9.54239	-16.19357	11.27051
9.54657	-16.19357	11.27051
9.55076	-16.17160	11.27051
9.55494	-16.17160	11.27051
9.55919	-16.17160	11.27051
9.56346	-16.17160	11.27051
9.56765	-16.14963	11.27051
9.57186	-16.17160	11.27051
9.57605	-16.14963	11.27051
9.58024	-16.14963	11.27051
9.58443	-16.14963	11.27051
9.58862	-16.14963	11.27051
9.59292	-16.12765	11.27051
9.59713	-16.12765	11.27051
9.60132	-16.12765	11.27051
9.60551	-16.12765	11.27051
9.60969	-16.12765	11.27051
9.61388	-16.10568	11.27051
9.61816	-16.10568	11.27051
9.62262	-16.10568	11.27051
9.62683	-16.08371	11.27051
9.63102	-16.08371	11.27051
9.63520	-16.10568	11.27051
9.63939	-16.08371	11.27051
9.64357	-16.08371	11.27051
9.64775	-16.08371	11.27051
9.65200	-16.06173	11.27051
9.65628	-16.08371	11.27051
9.66048	-16.08371	11.27051
9.66467	-16.06173	11.27051
9.66885	-16.06173	11.27051
9.67306	-16.06173	11.27051
9.67724	-16.06173	11.27051
9.68144	-16.06173	11.27051
9.68574	-16.06173	11.27051
9.68995	-16.03976	11.27051
9.69414	-16.03976	11.27051
9.69832	-16.01779	11.27051
9.70251	-16.03976	11.27051
9.70670	-16.03976	11.27051
9.71089	-16.01779	11.27051
9.71514	-16.01779	11.27051
9.71952	-16.01779	11.27051
9.72371	-16.01779	11.27051
9.72790	-16.01779	11.27051
9.73209	-15.99582	11.27051
9.73627	-15.99582	11.27051
9.74045	-15.99582	11.27051
9.74464	-15.99582	11.27051
9.74894	-15.99582	11.27051
9.75314	-15.99582	11.27051
9.75734	-15.97384	11.27051
9.76153	-15.97384	11.27051
9.76571	-15.97384	11.27051
9.76991	-15.97384	11.27051
9.77411	-15.97384	11.27051
9.77856	-15.97384	11.27051
9.78277	-15.95187	11.27051
9.78696	-15.95187	11.27051
9.79115	-15.95187	11.27051
9.79533	-15.95187	11.27051
9.79952	-15.95187	11.27051
9.80370	-15.95187	11.27051
9.80795	-15.92990	11.27051
9.81223	-15.92990	11.27051
9.81643	-15.92990	11.27051
9.82072	-15.92990	11.27051
9.82491	-15.92990	11.27051
9.82909	-15.92990	11.27051
9.83328	-15.92990	11.27051
9.83744	-15.90793	11.27051
9.84174	-15.90793	11.27051
9.84595	-15.90793	11.27051
9.85013	-15.90793	11.27051
9.85432	-15.90793	11.27051
9.85850	-15.90793	11.27051
9.86269	-15.88595	11.27051
9.86687	-15.88595	11.27051
9.87114	-15.88595	11.27051
9.87541	-15.88595	11.27051
9.87962	-15.88595	11.27051
9.88380	-15.88595	11.27051
9.88799	-15.88595	11.27051
9.89217	-15.86398	11.27051
9.89636	-15.86398	11.27051
9.90054	-15.86398	11.27051
9.90484	-15.86398	11.27051
9.90905	-15.86398	11.27051
9.91325	-15.86398	11.27051
9.91745	-15.84201	11.27051
9.92174	-15.84201	11.27051
9.92592	-15.84201	11.27051
9.93011	-15.84201	11.27051
9.93456	-15.84201	11.27051
9.93877	-15.84201	11.27051
9.94297	-15.84201	11.27051
9.94715	-15.84201	11.27051
9.95134	-15.82004	11.27051
9.95552	-15.82004	11.27051
9.95971	-15.82004	11.27051
9.96396	-15.82004	11.27051
9.96824	-15.79806	11.27051
9.97247	-15.79806	11.27051
9.97667	-15.79806	11.27051
9.98086	-15.79806	11.27051
9.98505	-15.79806	11.27051
9.98924	-15.77609	11.27051
9.99343	-15.77609	11.27051
9.99774	-15.77609	11.27051
10.00194	-15.77609	11.27051
10.00613	-15.77609	11.27051
10.01031	-15.75412	11.27051
10.01450	-15.75412	11.27051
10.01869	-15.75412	11.27051
10.02297	-15.75412	11.27051
10.02723	-15.75412	11.27051
10.03151	-15.75412	11.27051
10.03571	-15.75412	11.27051
10.03990	-15.73214	11.27051
10.04409	-15.73214	11.27051
10.04827	-15.73214	11.27051
10.05246	-15.73214	11.27051
10.05664	-15.71017	11.27051
10.06094	-15.71017	11.27051
10.06514	-15.71017	11.27051
10.06934	-15.71017	11.27051
10.07354	-15.71017	11.27051
10.07773	-15.68820	11.27051
10.08192	-15.68820	11.27051
10.08611	-15.68820	11.27051
10.09057	-15.68820	11.27051
10.09481	-15.68820	11.27051
10.09899	-15.68820	11.27051
10.10318	-15.66623	11.27051
10.10736	-15.66623	11.27051
10.11156	-15.66623	11.27051
10.11575	-15.66623	11.27051
10.12000	-15.66623	11.27051
10.12439	-15.66623	11.27051
10.12859	-15.64425	11.27051
10.13278	-15.64425	11.27051
10.13696	-15.64425	11.27051
10.14114	-15.64425	11.27051
10.14534	-15.64425	11.27051
10.14952	-15.64425	11.27051
10.15382	-15.62228	11.27051
10.15802	-15.62228	11.27051
10.16221	-15.62228	11.27051
10.16639	-15.62228	11.27051
10.17060	-15.62228	11.27051
10.17479	-15.62228	11.27051
10.17898	-15.62228	11.27051
10.18324	-15.60031	11.27051
10.18751	-15.60031	11.27051
10.19171	-15.60031	11.27051
10.19589	-15.60031	11.27051
10.20008	-15.60031	11.27051
10.20426	-15.60031	11.27051
10.20845	-15.60031	11.27051
10.21263	-15.60031	11.27051
10.21693	-15.57834	11.27051
10.22113	-15.57834	11.27051
10.22543	-15.57834	11.27051
10.22962	-15.57834	11.27051
10.23380	-15.57834	11.27051
10.23799	-15.57834	11.27051
10.24217	-15.57834	11.27051
10.24661	-15.55636	11.27051
10.25081	-15.55636	11.27051
10.25500	-15.55636	11.27051
10.25922	-15.55636	11.27051
10.26343	-15.55636	11.27051
10.26764	-15.55636	11.27051
10.27186	-15.55636	11.27051
10.27614	-15.55636	11.27051
10.28042	-15.55636	11.27051
10.28463	-15.55636	11.27051
10.28881	-15.53439	11.27051
10.29300	-15.53439	11.27051
10.29719	-15.53439	11.27051
10.30138	-15.53439	11.27051
10.30557	-15.53439	11.27051
10.30986	-15.53439	11.27051
10.31406	-15.53439	11.27051
10.31825	-15.53439	11.27051
10.32243	-15.53439	11.27051
10.32672	-15.53439	11.27051
10.33091	-15.53439	11.27051
10.33509	-15.53439	11.27051
10.33950	-15.53439	11.27051
10.34371	-15.53439	11.27051
10.34790	-15.53439	11.27051
10.35208	-15.53439	11.27051
10.35627	-15.53439	11.27051
10.36045	-15.53439	11.27051
10.36463	-15.53439	11.27051
10.36889	-15.53439	11.27051
10.37321	-15.53439	11.27051
10.37743	-15.53439	11.27051
10.38163	-15.51242	11.27051
10.38582	-15.51242	11.27051
10.39000	-15.51242	11.27051
10.39419	-15.51242	11.27051
10.39837	-15.51242	11.27051
10.40268	-15.53439	11.27051
10.40688	-15.51242	11.27051
10.41107	-15.53439	11.27051
10.41526	-15.53439	11.27051
10.41944	-15.53439	11.27051
10.42363	-15.53439	11.27051
10.42794	-15.53439	11.27051
10.43220	-15.53439	11.27051
10.43648	-15.53439	11.27051
10.44067	-15.53439	11.27051
10.44486	-15.53439	11.27051
10.44905	-15.53439	11.27051
10.45324	-15.53439	11.27051
10.45743	-15.53439	11.27051
10.46162	-15.53439	11.27051
10.46591	-15.53439	11.27051
10.47017	-15.53439	11.27051
10.47437	-15.53439	11.27051
10.47856	-15.53439	11.27051
10.48275	-15.53439	11.27051
10.48693	-15.55636	11.27051
10.49112	-15.55636	11.27051
10.49557	-15.55636	11.27051
10.49978	-15.55636	11.27051
10.50396	-15.55636	11.27051
10.50815	-15.55636	11.27051
10.51233	-15.55636	11.27051
10.51652	-15.55636	11.27051
10.52070	-15.55636	11.27051
10.52494	-15.55636	11.27051
10.52936	-15.55636	11.27051
10.53356	-15.55636	11.27051
10.53775	-15.55636	11.27051
10.54193	-15.55636	11.27051
10.54612	-15.57834	11.27051
10.55031	-15.57834	11.27051
10.55449	-15.57834	11.27051
10.55880	-15.57834	11.27051
10.56300	-15.57834	11.27051
10.56719	-15.57834	11.27051
10.57139	-15.57834	11.27051
10.57560	-15.57834	11.27051
10.57979	-15.60031	11.27051
10.58398	-15.60031	11.27051
10.58824	-15.60031	11.27051
10.59253	-15.60031	11.27051
10.59673	-15.60031	11.27051
10.60092	-15.60031	11.27051
10.60511	-15.60031	11.27051
10.60929	-15.60031	11.27051
10.61345	-15.60031	11.27051
10.61763	-15.62228	11.27051
10.62193	-15.62228	11.27051
10.62614	-15.62228	11.27051
10.63043	-15.62228	11.27051
10.63462	-15.62228	11.27051
10.63880	-15.64425	11.27051
10.64298	-15.64425	11.27051
10.64717	-15.64425	11.27051
10.65160	-15.64425	11.27051
10.65581	-15.64425	11.27051
10.66000	-15.66623	11.27051
10.66419	-15.66623	11.27051
10.66837	-15.66623	11.27051
10.67257	-15.66623	11.27051
10.67677	-15.68820	11.27051
10.68101	-15.66623	11.27051
10.68532	-15.68820	11.27051
10.68952	-15.68820	11.27051
10.69371	-15.68820	11.27051
10.69789	-15.68820	11.27051
10.70208	-15.71017	11.27051
10.70626	-15.71017	11.27051
10.71044	-15.71017	11.27051
10.71474	-15.71017	11.27051
10.71894	-15.71017	11.27051
10.72313	-15.71017	11.27051
10.72731	-15.73214	11.27051
10.73160	-15.73214	11.27051
10.73579	-15.73214	11.27051
10.73997	-15.73214	11.27051
10.74422	-15.73214	11.27051
10.74848	-15.75412	11.27051
10.75267	-15.75412	11.27051
10.75686	-15.75412	11.27051
10.76104	-15.77609	11.27051
10.76523	-15.77609	11.27051
10.76942	-15.77609	11.27051
10.77362	-15.77609	11.27051
10.77793	-15.77609	11.27051
10.78214	-15.79806	11.27051
10.78632	-15.79806	11.27051
10.79051	-15.79806	11.27051
10.79470	-15.79806	11.27051
10.79888	-15.79806	11.27051
10.80307	-15.82004	11.27051
10.80751	-15.82004	11.27051
10.81172	-15.82004	11.27051
10.81590	-15.82004	11.27051
10.82009	-15.84201	11.27051
10.82427	-15.84201	11.27051
10.82845	-15.84201	11.27051
10.83275	-15.86398	11.27051
10.83699	-15.86398	11.27051
10.84127	-15.86398	11.27051
10.84546	-15.86398	11.27051
10.84965	-15.86398	11.27051
10.85384	-15.86398	11.27051
10.85802	-15.86398	11.27051
10.86221	-15.88595	11.27051
10.86639	-15.88595	11.27051
10.87073	-15.88595	11.27051
10.87494	-15.88595	11.27051
10.87913	-15.90793	11.27051
10.88332	-15.90793	11.27051
10.88750	-15.90793	11.27051
10.89169	-15.90793	11.27051
10.89587	-15.90793	11.27051
10.90031	-15.92990	11.27051
10.90451	-15.92990	11.27051
10.90872	-15.92990	11.27051
10.91292	-15.95187	11.27051
10.91711	-15.95187	11.27051
10.92131	-15.95187	11.27051
10.92550	-15.95187	11.27051
10.92980	-15.97384	11.27051
10.93419	-15.97384	11.27051
10.93838	-15.97384	11.27051
10.94257	-15.97384	11.27051
10.94676	-15.99582	11.27051
10.95094	-15.99582	11.27051
10.95513	-15.99582	11.27051
10.95931	-15.99582	11.27051
10.96361	-16.01779	11.27051
10.96781	-16.01779	11.27051
10.97202	-16.01779	11.27051
10.97623	-16.01779	11.27051
10.98043	-16.01779	11.27051
10.98462	-16.03976	11.27051
10.98880	-16.03976	11.27051
10.99323	-16.03976	11.27051
10.99745	-16.06173	11.27051
11.00164	-16.06173	11.27051
11.00583	-16.06173	11.27051
11.01001	-16.06173	11.27051
11.01419	-16.06173	11.27051
11.01838	-16.08371	11.27051
11.02264	-16.08371	11.27051
11.02692	-16.08371	11.27051
11.03111	-16.10568	11.27051
11.03543	-16.10568	11.27051
11.03962	-16.10568	11.27051
11.04381	-16.12765	11.27051
11.04800	-16.12765	11.27051
11.05218	-16.12765	11.27051
11.05649	-16.12765	11.27051
11.06071	-16.14963	11.27051
11.06490	-16.14963	11.27051
11.06908	-16.17160	11.27051
11.07329	-16.17160	11.27051
11.07745	-16.19357	11.27051
11.08164	-16.19357	11.27051
11.08591	-16.19357	11.27051
11.09018	-16.19357	11.27051
11.09440	-16.21554	11.27051
11.09859	-16.21554	11.27051
11.10278	-16.21554	11.27051
11.10696	-16.21554	11.27051
11.11115	-16.21554	11.27051
11.11533	-16.23752	11.27051
11.11963	-16.23752	11.27051
11.12383	-16.23752	11.27051
11.12802	-16.25949	11.27051
11.13221	-16.25949	11.27051
11.13649	-16.25949	11.27051
11.14068	-16.28146	11.27051
11.14486	-16.28146	11.27051
11.14930	-16.30343	11.27051
11.15346	-16.30343	11.27051
11.15764	-16.32541	11.27051
11.16183	-16.32541	11.27051
11.16601	-16.32541	11.27051
11.17020	-16.32541	11.27051
11.17440	-16.34738	11.27051
11.17868	-16.34738	11.27051
11.18298	-16.34738	11.27051
11.18718	-16.36935	11.27051
11.19136	-16.36935	11.27051
11.19555	-16.36935	11.27051
11.19974	-16.39132	11.27051
11.20392	-16.39132	11.27051
11.20811	-16.41330	11.27051
11.21241	-16.41330	11.27051
11.21661	-16.41330	11.27051
11.22080	-16.41330	11.27051
11.22499	-16.43527	11.27051
11.22917	-16.43527	11.27051
11.23337	-16.45724	11.27051
11.23766	-16.45724	11.27051
11.24191	-16.45724	11.27051
11.24619	-16.45724	11.27051
11.25039	-16.47922	11.27051
11.25457	-16.47922	11.27051
11.25876	-16.50119	11.27051
11.26294	-16.50119	11.27051
11.26713	-16.50119	11.27051
11.27134	-16.50119	11.27051
11.27566	-16.52316	11.27051
11.27989	-16.52316	11.27051
11.28409	-16.54513	11.27051
11.28827	-16.54513	11.27051
11.29246	-16.54513	11.27051
11.29664	-16.56711	11.27051
11.30083	-16.56711	11.27051
11.30508	-16.56711	11.27051
11.30937	-16.58908	11.27051
11.31357	-16.58908	11.27051
11.31776	-16.58908	11.27051
11.32194	-16.61105	11.27051
11.32613	-16.61105	11.27051
11.33031	-16.61105	11.27051
11.33449	-16.63302	11.27051
11.33890	-16.63302	11.27051
11.34310	-16.65500	11.27051
11.34729	-16.65500	11.27051
11.35147	-16.65500	11.27051
11.35566	-16.67697	11.27051
11.35984	-16.67697	11.27051
11.36403	-16.67697	11.27051
11.36846	-16.67697	11.27051
11.37269	-16.67697	11.27051
11.37688	-16.69894	11.27051
11.38107	-16.69894	11.27051
11.38525	-16.69894	11.27051
11.38944	-16.72091	11.27051
11.39362	-16.72091	11.27051
11.39788	-16.72091	11.27051
11.40216	-16.72091	11.27051
11.40636	-16.74289	11.27051
11.41054	-16.74289	11.27051
11.41473	-16.76486	11.27051
11.41891	-16.76486	11.27051
11.42310	-16.76486	11.27051
11.42728	-16.78683	11.27051
11.43158	-16.78683	11.27051
11.43578	-16.78683	11.27051
11.44007	-16.78683	11.27051
11.44425	-16.78683	11.27051
11.44843	-16.80881	11.27051
11.45262	-16.80881	11.27051
11.45680	-16.80881	11.27051
11.46105	-16.80881	11.27051
11.46534	-16.83078	11.27051
11.46953	-16.83078	11.27051
11.47374	-16.85275	11.27051
11.47793	-16.85275	11.27051
11.48213	-16.83078	11.27051
11.48632	-16.85275	11.27051
11.49050	-16.85275	11.27051
11.49480	-16.85275	11.27051
11.49900	-16.85275	11.27051
11.50318	-16.87472	11.27051
11.50737	-16.87472	11.27051
11.51155	-16.89670	11.27051
11.51574	-16.87472	11.27051
11.51992	-16.89670	11.27051
11.52417	-16.89670	11.27051
11.52845	-16.89670	11.27051
11.53265	-16.89670	11.27051
11.53683	-16.91867	11.27051
11.54112	-16.91867	11.27051
11.54531	-16.94064	11.27051
11.54950	-16.91867	11.27051
11.55368	-16.91867	11.27051
11.55798	-16.91867	11.27051
11.56219	-16.94064	11.27051
11.56637	-16.94064	11.27051
11.57056	-16.94064	11.27051
11.57476	-16.94064	11.27051
11.57896	-16.94064	11.27051
11.58315	-16.94064	11.27051
11.58740	-16.96261	11.27051
11.59168	-16.96261	11.27051
11.59588	-16.96261	11.27051
11.60007	-16.96261	11.27051
11.60426	-16.98459	11.27051
11.60845	-16.98459	11.27051
11.61263	-16.96261	11.27051
11.61681	-16.96261	11.27051
11.62111	-16.96261	11.27051
11.62533	-16.96261	11.27051
11.62953	-16.98459	11.27051
11.63374	-16.98459	11.27051
11.63794	-16.98459	11.27051
11.64224	-16.98459	11.27051
11.64643	-16.98459	11.27051
11.65088	-16.98459	11.27051
11.65509	-16.98459	11.27051
11.65929	-16.98459	11.27051
11.66348	-16.98459	11.27051
11.66767	-16.98459	11.27051
11.67188	-16.98459	11.27051
11.67608	-16.98459	11.27051
11.68037	-16.98459	11.27051
11.68464	-16.98459	11.27051
11.68885	-16.98459	11.27051
11.69304	-16.98459	11.27051
11.69723	-16.98459	11.27051
11.70143	-16.98459	11.27051
11.70562	-16.98459	11.27051
11.70981	-16.98459	11.27051
11.71410	-17.00656	11.27051
11.71830	-17.00656	11.27051
11.72249	-16.98459	11.27051
11.72667	-16.98459	11.27051
11.73086	-16.98459	11.27051
11.73504	-16.98459	11.27051
11.73923	-16.98459	11.27051
11.74378	-16.98459	11.27051
11.74799	-16.98459	11.27051
11.75217	-16.98459	11.27051
11.75636	-16.96261	11.27051
11.76054	-16.98459	11.27051
11.76473	-16.98459	11.27051
11.76891	-16.96261	11.27051
11.77318	-16.98459	11.27051
11.77748	-16.98459	11.27051
11.78168	-16.96261	11.27051
11.78586	-16.98459	11.27051
11.79005	-16.96261	11.27051
11.79423	-16.96261	11.27051
11.79841	-16.96261	11.27051
11.80259	-16.96261	11.27051
11.80689	-16.96261	11.27051
11.81110	-16.96261	11.27051
11.81528	-16.94064	11.27051
11.81947	-16.94064	11.27051
11.82365	-16.94064	11.27051
11.82784	-16.94064	11.27051
11.83202	-16.94064	11.27051
11.83627	-16.94064	11.27051
11.84054	-16.91867	11.27051
11.84485	-16.91867	11.27051
11.84903	-16.94064	11.27051
11.85322	-16.91867	11.27051
11.85741	-16.91867	11.27051
11.86159	-16.91867	11.27051
11.86578	-16.91867	11.27051
11.87007	-16.91867	11.27051
11.87429	-16.91867	11.27051
11.87849	-16.89670	11.27051
11.88268	-16.89670	11.27051
11.88687	-16.89670	11.27051
11.89105	-16.89670	11.27051
11.89524	-16.87472	11.27051
11.89949	-16.87472	11.27051
11.90375	-16.87472	11.27051
11.90796	-16.87472	11.27051
11.91216	-16.85275	11.27051
11.91634	-16.87472	11.27051
11.92053	-16.85275	11.27051
11.92471	-16.85275	11.27051
11.92890	-16.85275	11.27051
11.93320	-16.85275	11.27051
11.93742	-16.83078	11.27051
11.94160	-16.83078	11.27051
11.94590	-16.83078	11.27051
11.95008	-16.83078	11.27051
11.95427	-16.83078	11.27051
11.95845	-16.83078	11.27051
11.96291	-16.80881	11.27051
11.96711	-16.80881	11.27051
11.97130	-16.78683	11.27051
11.97551	-16.80881	11.27051
11.97971	-16.80881	11.27051
11.98390	-16.78683	11.27051
11.98809	-16.78683	11.27051
11.99236	-16.76486	11.27051
11.99666	-16.76486	11.27051
12.00087	-16.76486	11.27051
12.00505	-16.76486	11.27051
12.00924	-16.74289	11.27051
12.01343	-16.74289	11.27051
12.01762	-16.74289	11.27051
12.02180	-16.72091	11.27051
12.02610	-16.72091	11.27051
12.03031	-16.72091	11.27051
12.03450	-16.69894	11.27051
12.03869	-16.69894	11.27051
12.04287	-16.67697	11.27051
12.04716	-16.67697	11.27051
12.05134	-16.67697	11.27051
12.05559	-16.67697	11.27051
12.05986	-16.67697	11.27051
12.06406	-16.65500	11.27051
12.06824	-16.63302	11.27051
12.07245	-16.65500	11.27051
12.07664	-16.63302	11.27051
12.08083	-16.63302	11.27051
12.08503	-16.63302	11.27051
12.08936	-16.61105	11.27051
12.09357	-16.58908	11.27051
12.09777	-16.58908	11.27051
12.10196	-16.58908	11.27051
12.10614	-16.58908	11.27051
12.11033	-16.56711	11.27051
12.11451	-16.54513	11.27051
12.11895	-16.56711	11.27051
12.12316	-16.54513	11.27051
12.12735	-16.52316	11.27051
12.13154	-16.52316	11.27051
12.13572	-16.52316	11.27051
12.13991	-16.50119	11.27051
12.14409	-16.50119	11.27051
12.14847	-16.47922	11.27051
12.15274	-16.47922	11.27051
12.15694	-16.47922	11.27051
12.16114	-16.45724	11.27051
12.16533	-16.45724	11.27051
12.16952	-16.45724	11.27051
12.17373	-16.43527	11.27051
12.17792	-16.43527	11.27051
12.18223	-16.41330	11.27051
12.18643	-16.41330	11.27051
12.19062	-16.41330	11.27051
12.19481	-16.39132	11.27051
12.19899	-16.36935	11.27051
12.20318	-16.36935	11.27051
12.20737	-16.34738	11.27051
12.21163	-16.34738	11.27051
12.21590	-16.34738	11.27051
12.22010	-16.32541	11.27051
12.22428	-16.32541	11.27051
12.22847	-16.32541	11.27051
12.23265	-16.28146	11.27051
12.23684	-16.30343	11.27051
12.24102	-16.30343	11.27051
12.24534	-16.28146	11.27051
12.24964	-16.25949	11.27051
12.25383	-16.25949	11.27051
12.25801	-16.23752	11.27051
12.26220	-16.23752	11.27051
12.26638	-16.23752	11.27051
12.27058	-16.21554	11.27051
12.27506	-16.21554	11.27051
12.27928	-16.19357	11.27051
12.28347	-16.17160	11.27051
12.28767	-16.17160	11.27051
12.29186	-16.14963	11.27051
12.29604	-16.14963	11.27051
12.30022	-16.17160	11.27051
12.30448	-16.12765	11.27051
12.30877	-16.12765	11.27051
12.31297	-16.12765	11.27051
12.31716	-16.12765	11.27051
12.32135	-16.10568	11.27051
12.32554	-16.10568	11.27051
12.32973	-16.08371	11.27051
12.33391	-16.08371	11.27051
12.33821	-16.06173	11.27051
12.34242	-16.06173	11.27051
12.34661	-16.06173	11.27051
12.35090	-16.06173	11.27051
12.35508	-16.01779	11.27051
12.35926	-16.03976	11.27051
12.36345	-16.01779	11.27051
12.36769	-16.01779	11.27051
12.37195	-15.99582	11.27051
12.37617	-15.99582	11.27051
12.38036	-15.97384	11.27051
12.38455	-15.97384	11.27051
12.38874	-15.97384	11.27051
12.39293	-15.97384	11.27051
12.39711	-15.97384	11.27051
12.40142	-15.95187	11.27051
12.40562	-15.95187	11.27051
12.40984	-15.95187	11.27051
12.41403	-15.92990	11.27051
12.41822	-15.90793	11.27051
12.42240	-15.90793	11.27051
12.42659	-15.90793	11.27051
12.43088	-15.90793	11.27051
12.43516	-15.88595	11.27051
12.43937	-15.86398	11.27051
12.44356	-15.86398	11.27051
12.44775	-15.86398	11.27051
12.45205	-15.86398	11.27051
12.45624	-15.86398	11.27051
12.46043	-15.84201	11.27051
12.46473	-15.84201	11.27051
12.46895	-15.84201	11.27051
12.47316	-15.82004	11.27051
12.47736	-15.82004	11.27051
12.48156	-15.82004	11.27051
12.48575	-15.82004	11.27051
12.48994	-15.79806	11.27051
12.49437	-15.79806	11.27051
12.49858	-15.79806	11.27051
12.50277	-15.79806	11.27051
12.50695	-15.79806	11.27051
12.51114	-15.77609	11.27051
12.51532	-15.77609	11.27051
12.51950	-15.75412	11.27051
12.52375	-15.75412	11.27051
12.52802	-15.75412	11.27051
12.53221	-15.75412	11.27051
12.53639	-15.73214	11.27051
12.54058	-15.73214	11.27051
12.54476	-15.73214	11.27051
12.54895	-15.73214	11.27051
12.55323	-15.71017	11.27051
12.55754	-15.71017	11.27051
12.56174	-15.71017	11.27051
12.56593	-15.71017	11.27051
12.57012	-15.71017	11.27051
12.57432	-15.68820	11.27051
12.57852	-15.68820	11.27051
12.58271	-15.68820	11.27051
12.58716	-15.68820	11.27051
12.59138	-15.66623	11.27051
12.59558	-15.68820	11.27051
12.59977	-15.66623	11.27051
12.60396	-15.66623	11.27051
12.60814	-15.66623	11.27051
12.61233	-15.66623	11.27051
12.61661	-15.64425	11.27051
12.62091	-15.64425	11.27051
12.62512	-15.64425	11.27051
12.62932	-15.64425	11.27051
12.63351	-15.64425	11.27051
12.63770	-15.64425	11.27051
12.64188	-15.62228	11.27051
12.64607	-15.62228	11.27051
12.65038	-15.62228	11.27051
12.65470	-15.62228	11.27051
12.65889	-15.62228	11.27051
12.66308	-15.60031	11.27051
12.66727	-15.60031	11.27051
12.67145	-15.60031	11.27051
12.67565	-15.60031	11.27051
12.67992	-15.60031	11.27051
12.68420	-15.60031	11.27051
12.68840	-15.60031	11.27051
12.69258	-15.60031	11.27051
12.69677	-15.60031	11.27051
12.70096	-15.57834	11.27051
12.70514	-15.60031	11.27051
12.70934	-15.57834	11.27051
12.71365	-15.57834	11.27051
12.71785	-15.57834	11.27051
12.72204	-15.57834	11.27051
12.72623	-15.57834	11.27051
12.73042	-15.57834	11.27051
12.73460	-15.55636	11.27051
12.73879	-15.57834	11.27051
12.74304	-15.57834	11.27051
12.74732	-15.55636	11.27051
12.75152	-15.55636	11.27051
12.75581	-15.55636	11.27051
12.76000	-15.55636	11.27051
12.76418	-15.55636	11.27051
12.76837	-15.55636	11.27051
12.77255	-15.53439	11.27051
12.77687	-15.55636	11.27051
12.78108	-15.53439	11.27051
12.78527	-15.53439	11.27051
12.78944	-15.53439	11.27051
12.79362	-15.53439	11.27051
12.79781	-15.53439	11.27051
12.80200	-15.53439	11.27051
12.80624	-15.53439	11.27051
12.81051	-15.53439	11.27051
12.81471	-15.53439	11.27051
12.81889	-15.53439	11.27051
12.82307	-15.53439	11.27051
12.82726	-15.53439	11.27051
12.83145	-15.51242	11.27051
12.83563	-15.51242	11.27051
12.83992	-15.51242	11.27051
12.84413	-15.51242	11.27051
12.84832	-15.51242	11.27051
12.85252	-15.51242	11.27051
12.85681	-15.51242	11.27051
12.86099	-15.51242	11.27051
12.86518	-15.51242	11.27051
12.86965	-15.51242	11.27051
12.87388	-15.51242	11.27051
12.87808	-15.51242	11.27051
12.88226	-15.51242	11.27051
12.88645	-15.51242	11.27051
12.89063	-15.51242	11.27051
12.89482	-15.51242	11.27051
12.89907	-15.51242	11.27051
12.90335	-15.51242	11.27051
12.90756	-15.51242	11.27051
12.91176	-15.51242	11.27051
12.91595	-15.51242	11.27051
12.92013	-15.51242	11.27051
12.92432	-15.51242	11.27051
12.92850	-15.51242	11.27051
12.93281	-15.51242	11.27051
12.93701	-15.51242	11.27051
12.94120	-15.51242	11.27051
12.94540	-15.49045	11.27051
12.94958	-15.51242	11.27051
12.95377	-15.51242	11.27051
12.95806	-15.51242	11.27051
12.96231	-15.51242	11.27051
12.96660	-15.51242	11.27051
12.97080	-15.51242	11.27051
12.97500	-15.51242	11.27051
12.97919	-15.51242	11.27051
12.98338	-15.51242	11.27051
12.98757	-15.51242	11.27051
12.99176	-15.51242	11.27051
12.99605	-15.51242	11.27051
13.00026	-15.51242	11.27051
13.00445	-15.51242	11.27051
13.00864	-15.49045	11.27051
13.01282	-15.51242	11.27051
13.01701	-15.51242	11.27051
13.02119	-15.51242	11.27051
13.02545	-15.51242	11.27051
13.02972	-15.51242	11.27051
13.03392	-15.51242	11.27051
13.03810	-15.51242	11.27051
13.04229	-15.51242	11.27051
13.04648	-15.51242	11.27051
13.05066	-15.51242	11.27051
13.05484	-15.51242	11.27051
13.05924	-15.51242	11.27051
13.06344	-15.51242	11.27051
13.06763	-15.51242	11.27051
13.07181	-15.51242	11.27051
13.07602	-15.51242	11.27051
13.08021	-15.51242	11.27051
13.08440	-15.53439	11.27051
13.08887	-15.53439	11.27051
13.09309	-15.51242	11.27051
13.09728	-15.53439	11.27051
13.10144	-15.51242	11.27051
13.10563	-15.53439	11.27051
13.10981	-15.53439	11.27051
13.11400	-15.53439	11.27051
13.11827	-15.53439	11.27051
13.12256	-15.53439	11.27051
13.12676	-15.53439	11.27051
13.13095	-15.53439	11.27051
13.13513	-15.53439	11.27051
13.13932	-15.53439	11.27051
13.14350	-15.53439	11.27051
13.14769	-15.55636	11.27051
13.15199	-15.55636	11.27051
13.15620	-15.55636	11.27051
13.16049	-15.55636	11.27051
13.16468	-15.55636	11.27051
13.16886	-15.57834	11.27051
13.17304	-15.55636	11.27051
13.17724	-15.57834	11.27051
13.18153	-15.57834	11.27051
13.18580	-15.57834	11.27051
13.19000	-15.57834	11.27051
13.19420	-15.57834	11.27051
13.19838	-15.57834	11.27051
13.20257	-15.57834	11.27051
13.20675	-15.60031	11.27051
13.21094	-15.60031	11.27051
13.21524	-15.60031	11.27051
13.21944	-15.60031	11.27051
13.22363	-15.60031	11.27051
13.22781	-15.60031	11.27051
13.23200	-15.60031	11.27051
13.23619	-15.60031	11.27051
13.24037	-15.60031	11.27051
13.24462	-15.60031	11.27051
13.24890	-15.62228	11.27051
13.25309	-15.62228	11.27051
13.25728	-15.62228	11.27051
13.26154	-15.62228	11.27051
13.26573	-15.64425	11.27051
13.26992	-15.64425	11.27051
13.27412	-15.64425	11.27051
13.27845	-15.64425	11.27051
13.28265	-15.64425	11.27051
13.28684	-15.64425	11.27051
13.29103	-15.64425	11.27051
13.29524	-15.64425	11.27051
13.29944	-15.64425	11.27051
13.30362	-15.66623	11.27051
13.30807	-15.66623	11.27051
13.31228	-15.66623	11.27051
13.31647	-15.66623	11.27051
13.32066	-15.66623	11.27051
13.32485	-15.66623	11.27051
13.32904	-15.66623	11.27051
13.33323	-15.68820	11.27051
13.33750	-15.66623	11.27051
13.34179	-15.68820	11.27051
13.34600	-15.68820	11.27051
13.35019	-15.68820	11.27051
13.35438	-15.68820	11.27051
13.35856	-15.68820	11.27051
13.36285	-15.68820	11.27051
13.36703	-15.71017	11.27051
13.37133	-15.71017	11.27051
13.37556	-15.71017	11.27051
13.37975	-15.71017	11.27051
13.38394	-15.71017	11.27051
13.38813	-15.71017	11.27051
13.39231	-15.71017	11.27051
13.39651	-15.71017	11.27051
13.40091	-15.71017	11.27051
13.40513	-15.71017	11.27051
13.40932	-15.71017	11.27051
13.41351	-15.71017	11.27051
13.41769	-15.73214	11.27051
13.42188	-15.71017	11.27051
13.42606	-15.71017	11.27051
13.43029	-15.73214	11.27051
13.43457	-15.73214	11.27051
13.43877	-15.73214	11.27051
13.44296	-15.73214	11.27051
13.44714	-15.73214	11.27051
13.45133	-15.75412	11.27051
13.45551	-15.75412	11.27051
13.45970	-15.73214	11.27051
13.46424	-15.75412	11.27051
13.46844	-15.73214	11.27051
13.47263	-15.75412	11.27051
13.47683	-15.75412	11.27051
13.48103	-15.75412	11.27051
13.48522	-15.75412	11.27051
13.48942	-15.75412	11.27051
13.49368	-15.75412	11.27051
13.49795	-15.75412	11.27051
13.50214	-15.75412	11.27051
13.50633	-15.77609	11.27051
13.51051	-15.77609	11.27051
13.51470	-15.75412	11.27051
13.51888	-15.77609	11.27051
13.52307	-15.77609	11.27051
13.52738	-15.77609	11.27051
13.53158	-15.77609	11.27051
13.53577	-15.77609	11.27051
13.53996	-15.77609	11.27051
13.54415	-15.77609	11.27051
13.54833	-15.77609	11.27051
13.55252	-15.77609	11.27051
13.55677	-15.77609	11.27051
13.56104	-15.79806	11.27051
13.56535	-15.77609	11.27051
13.56953	-15.77609	11.27051
13.57372	-15.77609	11.27051
13.57791	-15.79806	11.27051
13.58211	-15.77609	11.27051
13.58630	-15.77609	11.27051
13.59061	-15.79806	11.27051
13.59483	-15.79806	11.27051
13.59902	-15.77609	11.27051
13.60320	-15.79806	11.27051
13.60739	-15.79806	11.27051
13.61157	-15.79806	11.27051
13.61576	-15.79806	11.27051
13.62001	-15.79806	11.27051
13.62429	-15.79806	11.27051
13.62849	-15.79806	11.27051
13.63267	-15.79806	11.27051
13.63686	-15.79806	11.27051
13.64104	-15.79806	11.27051
13.64523	-15.79806	11.27051
13.64942	-15.79806	11.27051
13.65373	-15.82004	11.27051
13.65793	-15.82004	11.27051
13.66212	-15.82004	11.27051
13.66641	-15.82004	11.27051
13.67059	-15.82004	11.27051
13.67479	-15.82004	11.27051
13.67899	-15.82004	11.27051
13.68344	-15.82004	11.27051
13.68765	-15.82004	11.27051
13.69184	-15.82004	11.27051
13.69603	-15.82004	11.27051
13.70022	-15.82004	11.27051
13.70441	-15.82004	11.27051
13.70859	-15.82004	11.27051
13.71284	-15.84201	11.27051
13.71712	-15.84201	11.27051
13.72133	-15.84201	11.27051
13.72552	-15.84201	11.27051
13.72970	-15.84201	11.27051
13.73389	-15.84201	11.27051
13.73807	-15.84201	11.27051
13.74226	-15.84201	11.27051
13.74655	-15.84201	11.27051
13.75075	-15.86398	11.27051
13.75496	-15.86398	11.27051
13.75915	-15.86398	11.27051
13.76334	-15.84201	11.27051
13.76763	-15.86398	11.27051
13.77181	-15.86398	11.27051
13.77609	-15.86398	11.27051
13.78038	-15.86398	11.27051
13.78457	-15.88595	11.27051
13.78877	-15.88595	11.27051
13.79296	-15.88595	11.27051
13.79716	-15.88595	11.27051
13.80137	-15.88595	11.27051
13.80555	-15.88595	11.27051
13.80986	-15.88595	11.27051
13.81406	-15.88595	11.27051
13.81824	-15.88595	11.27051
13.82243	-15.88595	11.27051
13.82662	-15.90793	11.27051
13.83080	-15.90793	11.27051
13.83499	-15.90793	11.27051
13.83924	-15.90793	11.27051
13.84351	-15.90793	11.27051
13.84770	-15.90793	11.27051
13.85189	-15.90793	11.27051
13.85607	-15.92990	11.27051
13.86026	-15.92990	11.27051
13.86444	-15.92990	11.27051
13.86873	-15.92990	11.27051
13.87303	-15.92990	11.27051
13.87726	-15.92990	11.27051
13.88145	-15.92990	11.27051
13.88565	-15.92990	11.27051
13.88983	-15.95187	11.27051
13.89402	-15.95187	11.27051
13.89820	-15.95187	11.27051
13.90247	-15.95187	11.27051
13.90680	-15.95187	11.27051
13.91104	-15.95187	11.27051
13.91524	-15.97384	11.27051
13.91944	-15.97384	11.27051
13.92362	-15.97384	11.27051
13.92781	-15.97384	11.27051
13.93210	-15.97384	11.27051
13.93645	-15.97384	11.27051
13.94067	-15.97384	11.27051
13.94488	-15.97384	11.27051
13.94908	-15.97384	11.27051
13.95327	-15.99582	11.27051
13.95744	-15.99582	11.27051
13.96163	-15.99582	11.27051
13.96599	-15.99582	11.27051
13.97032	-15.99582	11.27051
13.97457	-15.99582	11.27051
13.97877	-16.01779	11.27051
13.98296	-16.01779	11.27051
13.98714	-16.01779	11.27051
13.99133	-16.01779	11.27051
13.99578	-16.01779	11.27051
14.00005	-16.01779	11.27051
14.00428	-16.01779	11.27051
14.00846	-16.01779	11.27051
14.01263	-16.01779	11.27051
14.01680	-16.01779	11.27051
14.02096	-16.03976	11.27051
14.02521	-16.03976	11.27051
14.02954	-16.03976	11.27051
14.03372	-16.03976	11.27051
14.03790	-16.03976	11.27051
14.04208	-16.03976	11.27051
14.04626	-16.03976	11.27051
14.05042	-16.03976	11.27051
14.05459	-16.03976	11.27051
14.05893	-16.03976	11.27051
14.06312	-16.03976	11.27051
14.06730	-16.03976	11.27051
14.07156	-16.06173	11.27051
14.07574	-16.06173	11.27051
14.07992	-16.06173	11.27051
14.08410	-16.06173	11.27051
14.08839	-16.06173	11.27051
14.09265	-16.06173	11.27051
14.09684	-16.06173	11.27051
14.10101	-16.06173	11.27051
14.10521	-16.06173	11.27051
14.10941	-16.06173	11.27051
14.11360	-16.06173	11.27051
14.11779	-16.06173	11.27051
14.12210	-16.08371	11.27051
14.12631	-16.08371	11.27051
14.13050	-16.08371	11.27051
14.13470	-16.08371	11.27051
14.13889	-16.08371	11.27051
14.14307	-16.08371	11.27051
14.14726	-16.08371	11.27051
14.15169	-16.08371	11.27051
14.15590	-16.08371	11.27051
14.16009	-16.10568	11.27051
14.16428	-16.10568	11.27051
14.16847	-16.10568	11.27051
14.17277	-16.10568	11.27051
14.17698	-16.10568	11.27051
14.18126	-16.10568	11.27051
14.18553	-16.10568	11.27051
14.18973	-16.10568	11.27051
14.19392	-16.10568	11.27051
14.19811	-16.10568	11.27051
14.20229	-16.10568	11.27051
14.20649	-16.10568	11.27051
14.21067	-16.10568	11.27051
14.21497	-16.10568	11.27051
14.21917	-16.10568	11.27051
14.22336	-16.10568	11.27051
14.22754	-16.12765	11.27051
14.23173	-16.12765	11.27051
14.23591	-16.12765	11.27051
14.24010	-16.12765	11.27051
14.24435	-16.12765	11.27051
14.24861	-16.12765	11.27051
14.25280	-16.12765	11.27051
14.25699	-16.12765	11.27051
14.26117	-16.12765	11.27051
14.26537	-16.12765	11.27051
14.26956	-16.12765	11.27051
14.27386	-16.12765	11.27051
14.27819	-16.12765	11.27051
14.28240	-16.14963	11.27051
14.28659	-16.14963	11.27051
14.29078	-16.14963	11.27051
14.29497	-16.14963	11.27051
14.29915	-16.14963	11.27051
14.30334	-16.14963	11.27051
14.30779	-16.14963	11.27051
14.31201	-16.14963	11.27051
14.31619	-16.14963	11.27051
14.32038	-16.17160	11.27051
14.32456	-16.17160	11.27051
14.32876	-16.17160	11.27051
14.33295	-16.17160	11.27051
14.33724	-16.17160	11.27051
14.34156	-16.17160	11.27051
14.34576	-16.17160	11.27051
14.34995	-16.17160	11.27051
14.35413	-16.17160	11.27051
14.35832	-16.17160	11.27051
14.36250	-16.19357	11.27051
14.36669	-16.19357	11.27051
14.37099	-16.19357	11.27051
14.37534	-16.19357	11.27051
14.37954	-16.19357	11.27051
14.38373	-16.19357	11.27051
14.38792	-16.21554	11.27051
14.39210	-16.19357	11.27051
14.39629	-16.21554	11.27051
14.40073	-16.21554	11.27051
14.40495	-16.21554	11.27051
14.40914	-16.21554	11.27051
14.41334	-16.21554	11.27051
14.41752	-16.21554	11.27051
14.42171	-16.21554	11.27051
14.42589	-16.23752	11.27051
14.43022	-16.23752	11.27051
14.43452	-16.23752	11.27051
14.43871	-16.23752	11.27051
14.44290	-16.23752	11.27051
14.44709	-16.25949	11.27051
14.45127	-16.25949	11.27051
14.45545	-16.25949	11.27051
14.45964	-16.25949	11.27051
14.46394	-16.25949	11.27051
14.46815	-16.28146	11.27051
14.47234	-16.25949	11.27051
14.47666	-16.28146	11.27051
14.48085	-16.28146	11.27051
14.48504	-16.28146	11.27051
14.48923	-16.28146	11.27051
14.49367	-16.28146	11.27051
14.49788	-16.28146	11.27051
14.50207	-16.28146	11.27051
14.50625	-16.30343	11.27051
14.51044	-16.30343	11.27051
14.51462	-16.30343	11.27051
14.51881	-16.30343	11.27051
14.52307	-16.32541	11.27051
14.52736	-16.32541	11.27051
14.53156	-16.32541	11.27051
14.53574	-16.34738	11.27051
14.53993	-16.34738	11.27051
14.54411	-16.34738	11.27051
14.54830	-16.34738	11.27051
14.55248	-16.34738	11.27051
14.55678	-16.34738	11.27051
14.56099	-16.34738	11.27051
14.56518	-16.36935	11.27051
14.56938	-16.36935	11.27051
14.57356	-16.36935	11.27051
14.57789	-16.36935	11.27051
14.58208	-16.39132	11.27051
14.58654	-16.39132	11.27051
14.59076	-16.39132	11.27051
14.59495	-16.39132	11.27051
14.59913	-16.41330	11.27051
14.60332	-16.41330	11.27051
14.60751	-16.41330	11.27051
14.61169	-16.43527	11.27051
14.61595	-16.43527	11.27051
14.62023	-16.43527	11.27051
14.62443	-16.43527	11.27051
14.62862	-16.43527	11.27051
14.63281	-16.45724	11.27051
14.63699	-16.45724	11.27051
14.64118	-16.45724	11.27051
14.64537	-16.45724	11.27051
14.64967	-16.45724	11.27051
14.65387	-16.45724	11.27051
14.65806	-16.47922	11.27051
14.66225	-16.47922	11.27051
14.66643	-16.47922	11.27051
14.67062	-16.47922	11.27051
14.67480	-16.47922	11.27051
14.67919	-16.47922	11.27051
14.68346	-16.50119	11.27051
14.68765	-16.50119	11.27051
14.69184	-16.52316	11.27051
14.69603	-16.52316	11.27051
14.70021	-16.50119	11.27051
14.70440	-16.52316	11.27051
14.70859	-16.52316	11.27051
14.71288	-16.52316	11.27051
14.71709	-16.52316	11.27051
14.72127	-16.52316	11.27051
14.72544	-16.52316	11.27051
14.72963	-16.54513	11.27051
14.73381	-16.54513	11.27051
14.73799	-16.54513	11.27051
14.74225	-16.54513	11.27051
14.74651	-16.54513	11.27051
14.75070	-16.54513	11.27051
14.75489	-16.56711	11.27051
14.75907	-16.56711	11.27051
14.76326	-16.56711	11.27051
14.76744	-16.56711	11.27051
14.77163	-16.56711	11.27051
14.77594	-16.56711	11.27051
14.78026	-16.56711	11.27051
14.78445	-16.56711	11.27051
14.78864	-16.58908	11.27051
14.79283	-16.58908	11.27051
14.79702	-16.58908	11.27051
14.80121	-16.58908	11.27051
14.80567	-16.58908	11.27051
14.80989	-16.58908	11.27051
14.81407	-16.58908	11.27051
14.81826	-16.58908	11.27051
14.82244	-16.61105	11.27051
14.82663	-16.61105	11.27051
14.83081	-16.61105	11.27051
14.83506	-16.61105	11.27051
14.83934	-16.61105	11.27051
14.84354	-16.61105	11.27051
14.84773	-16.63302	11.27051
14.85191	-16.61105	11.27051
14.85609	-16.61105	11.27051
14.86028	-16.61105	11.27051
14.86446	-16.63302	11.27051
14.86876	-16.61105	11.27051
14.87296	-16.63302	11.27051
14.87717	-16.63302	11.27051
14.88148	-16.63302	11.27051
14.88567	-16.63302	11.27051
14.88985	-16.63302	11.27051
14.89404	-16.63302	11.27051
14.89846	-16.63302	11.27051
14.90267	-16.63302	11.27051
14.90686	-16.63302	11.27051
14.91105	-16.63302	11.27051
14.91524	-16.63302	11.27051
14.91943	-16.63302	11.27051
14.92361	-16.63302	11.27051
14.92790	-16.63302	11.27051
14.93219	-16.65500	11.27051
14.93639	-16.65500	11.27051
14.94057	-16.63302	11.27051
14.94476	-16.65500	11.27051
14.94894	-16.63302	11.27051
14.95313	-16.63302	11.27051
14.95732	-16.63302	11.27051
14.96163	-16.65500	11.27051
14.96583	-16.65500	11.27051
14.97002	-16.65500	11.27051
14.97420	-16.65500	11.27051
14.97840	-16.65500	11.27051
14.98270	-16.63302	11.27051
14.98689	-16.63302	11.27051
14.99114	-16.65500	11.27051
14.99542	-16.65500	11.27051
14.99961	-16.63302	11.27051
15.00419	-16.65500	-4.94121
15.00837	-16.63302	-4.94121
15.01255	-16.65500	-4.94121
15.01674	-16.65500	-4.94121
15.02093	-16.65500	-4.94121
15.02522	-16.65500	-4.94121
15.02942	-16.65500	-4.94121
15.03361	-16.63302	-4.94121
15.03779	-16.63302	-4.94121
15.04198	-16.63302	-4.94121
15.04617	-16.63302	-4.94121
15.05036	-16.63302	-4.94121
15.05481	-16.63302	-4.94121
15.05903	-16.63302	-4.94121
15.06322	-16.61105	-4.94121
15.06741	-16.61105	-4.94121
15.07159	-16.58908	-4.94121
15.07578	-16.61105	-4.94121
15.07998	-16.58908	-4.94121
15.08428	-16.58908	-4.94121
15.08857	-16.56711	-4.94121
15.09279	-16.56711	-4.94121
15.09699	-16.54513	-4.94121
15.10117	-16.54513	-4.94121
15.10547	-16.50119	-4.94121
15.10967	-16.50119	-4.94121
15.11385	-16.47922	-4.94121
15.11815	-16.45724	-4.94121
15.12235	-16.45724	-4.94121
15.12654	-16.43527	-4.94121
15.13072	-16.41330	-4.94121
15.13501	-16.36935	-4.94121
15.13920	-16.34738	-4.94121
15.14338	-16.32541	-4.94121
15.14780	-16.28146	-4.94121
15.15201	-16.28146	-4.94121
15.15620	-16.25949	-4.94121
15.16039	-16.21554	-4.94121
15.16457	-16.17160	-4.94121
15.16876	-16.12765	-4.94121
15.17294	-16.12765	-4.94121
15.17723	-16.08371	-4.94121
15.18154	-16.06173	-4.94121
15.18574	-16.01779	-4.94121
15.18993	-15.95187	-4.94121
15.19412	-15.90793	-4.94121
15.19830	-15.84201	-4.94121
15.20249	-15.84201	-4.94121
15.20678	-15.79806	-4.94121
15.21108	-15.73214	-4.94121
15.21528	-15.68820	-4.94121
15.21946	-15.62228	-4.94121
15.22365	-15.55636	-4.94121
15.22783	-15.49045	-4.94121
15.23202	-15.49045	-4.94121
15.23620	-15.42453	-4.94121
15.24045	-15.35861	-4.94121
15.24471	-15.27072	-4.94121
15.24890	-15.20480	-4.94121
15.25309	-15.20480	-4.94121
15.25727	-15.11691	-4.94121
15.26144	-15.05099	-4.94121
15.26563	-14.96310	-4.94121
15.26981	-14.89718	-4.94121
15.27412	-14.80929	-4.94121
15.27836	-14.72140	-4.94121
15.28256	-14.72140	-4.94121
15.28675	-14.63351	-4.94121
15.29093	-14.54562	-4.94121
15.29512	-14.43576	-4.94121
15.29930	-14.34787	-4.94121
15.30374	-14.23800	-4.94121
15.30806	-14.23800	-4.94121
15.31226	-14.15011	-4.94121
15.31644	-14.04025	-4.94121
15.32063	-13.93039	-4.94121
15.32481	-13.82052	-4.94121
15.32900	-13.82052	-4.94121
15.33325	-13.71066	-4.94121
15.33753	-13.60080	-4.94121
15.34173	-13.49093	-4.94121
15.34592	-13.35910	-4.94121
15.35010	-13.24923	-4.94121
15.35429	-13.16134	-4.94121
15.35847	-13.16134	-4.94121
15.36265	-13.02951	-4.94121
15.36695	-12.89767	-4.94121
15.37115	-12.76584	-4.94121
15.37533	-12.65597	-4.94121
15.37954	-12.50216	-4.94121
15.38373	-12.50216	-4.94121
15.38792	-12.39230	-4.94121
15.39211	-12.23849	-4.94121
15.39654	-12.12863	-4.94121
15.40075	-11.99679	-4.94121
15.40494	-11.86496	-4.94121
15.40924	-11.71115	-4.94121
15.41343	-11.71115	-4.94121
15.41762	-11.57931	-4.94121
15.42181	-11.42550	-4.94121
15.42606	-11.27170	-4.94121
15.43034	-11.11789	-4.94121
15.43453	-11.11789	-4.94121
15.43872	-10.85422	-4.94121
15.44291	-10.85422	-4.94121
15.44709	-10.70041	-4.94121
15.45128	-10.54660	-4.94121
15.45546	-10.37082	-4.94121
15.45976	-10.21701	-4.94121
15.46396	-10.21701	-4.94121
15.46815	-10.04123	-4.94121
15.47234	-9.88742	-4.94121
15.47657	-9.71164	-4.94121
15.48077	-9.57980	-4.94121
15.48496	-9.42599	-4.94121
15.48941	-9.25021	-4.94121
15.49362	-9.25021	-4.94121
15.49782	-9.07443	-4.94121
15.50200	-8.89865	-4.94121
15.50619	-8.72287	-4.94121
15.51048	-8.54709	-4.94121
15.51466	-8.37131	-4.94121
15.51891	-8.37131	-4.94121
15.52318	-8.19552	-4.94121
15.52738	-8.04172	-4.94121
15.53157	-7.84396	-4.94121
15.53575	-7.66818	-4.94121
15.53994	-7.49240	-4.94121
15.54412	-7.49240	-4.94121
15.54830	-7.29464	-4.94121
15.55260	-7.11886	-4.94121
15.55680	-6.92111	-4.94121
15.56099	-6.72336	-4.94121
15.56517	-6.54757	-4.94121
15.56937	-6.54757	-4.94121
15.57355	-6.34982	-4.94121
15.57775	-6.15207	-4.94121
15.58220	-5.95431	-4.94121
15.58642	-5.75656	-4.94121
15.59061	-5.58078	-4.94121
15.59479	-5.58078	-4.94121
15.59898	-5.36105	-4.94121
15.60318	-5.18527	-4.94121
15.60736	-4.96554	-4.94121
15.61176	-4.81173	-4.94121
15.61605	-4.61398	-4.94121
15.62025	-4.39425	-4.94121
15.62444	-4.39425	-4.94121
15.62862	-4.19650	-4.94121
15.63281	-3.99875	-4.94121
15.63699	-3.77902	-4.94121
15.64118	-3.58127	-4.94121
15.64549	-3.36154	-4.94121
15.64969	-3.20773	-4.94121
15.65387	-3.20773	-4.94121
15.65806	-2.98800	-4.94121
15.66224	-2.76828	-4.94121
15.66642	-2.57052	-4.94121
15.67061	-2.35080	-4.94121
15.67485	-2.35080	-4.94121
15.67914	-2.15304	-4.94121
15.68334	-1.93332	-4.94121
15.68753	-1.71359	-4.94121
15.69172	-1.49386	-4.94121
15.69591	-1.31808	-4.94121
15.70010	-1.12033	-4.94121
15.70428	-1.12033	-4.94121
15.70859	-0.90060	-4.94121
15.71289	-0.68088	-4.94121
15.71708	-0.46115	-4.94121
15.72127	-0.24142	-4.94121
15.72544	-0.02170	-4.94121
15.72964	-0.02170	-4.94121
15.73382	0.19803	-4.94121
15.73826	0.37381	-4.94121
15.74248	0.59354	-4.94121
15.74673	0.81327	-4.94121
15.75093	1.03299	-4.94121
15.75512	1.25272	-4.94121
15.75931	1.25272	-4.94121
15.76350	1.49442	-4.94121
15.76777	1.71414	-4.94121
15.77205	1.93387	-4.94121
15.77625	2.15360	-4.94121
15.78045	2.32938	-4.94121
15.78465	2.32938	-4.94121
15.78885	2.54911	-4.94121
15.79303	2.76883	-4.94121
15.79722	2.98856	-4.94121
15.80154	3.23026	-4.94121
15.80574	3.44998	-4.94121
15.80993	3.44998	-4.94121
15.81422	3.66971	-4.94121
15.81842	3.88944	-4.94121
15.82260	4.10916	-4.94121
15.82678	4.32889	-4.94121
15.83122	4.54862	-4.94121
15.83544	4.54862	-4.94121
15.83963	4.76834	-4.94121
15.84382	5.01004	-4.94121
15.84800	5.22977	-4.94121
15.85218	5.42752	-4.94121
15.85637	5.42752	-4.94121
15.86063	5.64725	-4.94121
15.86491	5.86698	-4.94121
15.86911	6.06473	-4.94121
15.87330	6.28446	-4.94121
15.87746	6.48221	-4.94121
15.88165	6.70194	-4.94121
15.88584	6.70194	-4.94121
15.89002	6.92166	-4.94121
15.89432	7.14139	-4.94121
15.89852	7.36112	-4.94121
15.90270	7.58084	-4.94121
15.90689	7.73465	-4.94121
15.91110	7.95438	-4.94121
15.91543	7.95438	-4.94121
15.91962	8.15213	-4.94121
15.92410	8.37186	-4.94121
15.92832	8.59159	-4.94121
15.93251	8.81131	-4.94121
15.93670	9.00907	-4.94121
15.94088	9.00907	-4.94121
15.94507	9.20682	-4.94121
15.94925	9.42655	-4.94121
15.95353	9.58036	-4.94121
15.95782	9.80008	-4.94121
15.96202	9.99784	-4.94121
15.96621	10.19559	-4.94121
15.97039	10.19559	-4.94121
15.97458	10.41532	-4.94121
15.97878	10.61307	-4.94121
15.98298	10.81082	-4.94121
15.98728	11.00858	-4.94121
15.99149	11.16239	-4.94121
15.99568	11.16239	-4.94121
15.99987	11.36014	-4.94121
16.00406	11.55789	-4.94121
16.00824	11.75565	-4.94121
16.01243	11.95340	-4.94121
16.01680	12.15116	-4.94121
16.02106	12.15116	-4.94121
16.02526	12.34891	-4.94121
16.02945	12.54666	-4.94121
16.03363	12.72244	-4.94121
16.03782	12.87625	-4.94121
16.04200	13.07401	-4.94121
16.04619	13.27176	-4.94121
16.05048	13.27176	-4.94121
16.05469	13.44754	-4.94121
16.05888	13.62332	-4.94121
16.06306	13.79911	-4.94121
16.06725	13.99686	-4.94121
16.07143	13.99686	-4.94121
16.07562	14.17264	-4.94121
16.07989	14.34842	-4.94121
16.08417	14.52420	-4.94121
16.08836	14.72196	-4.94121
16.09255	14.89774	-4.94121
16.09675	14.89774	-4.94121
16.10093	15.05155	-4.94121
16.10512	15.24930	-4.94121
16.10931	15.40311	-4.94121
16.11361	15.57889	-4.94121
16.11793	15.73270	-4.94121
16.12211	15.86453	-4.94121
16.12630	15.86453	-4.94121
16.13048	16.04032	-4.94121
16.13467	16.19412	-4.94121
16.13885	16.36991	-4.94121
16.14326	16.52371	-4.94121
16.14747	16.67752	-4.94121
16.15166	16.67752	-4.94121
16.15584	16.83133	-4.94121
16.16002	16.98514	-4.94121
16.16421	17.11698	-4.94121
16.16839	17.24881	-4.94121
16.17265	17.40262	-4.94121
16.17693	17.55643	-4.94121
16.18115	17.55643	-4.94121
16.18535	17.71024	-4.94121
16.18953	17.84207	-4.94121
16.19372	17.99588	-4.94121
16.19792	18.12772	-4.94121
16.20211	18.12772	-4.94121
16.20642	18.25955	-4.94121
16.21063	18.39139	-4.94121
16.21482	18.52323	-4.94121
16.21912	18.65506	-4.94121
16.22331	18.78690	-4.94121
16.22749	18.91873	-4.94121
16.23167	18.91873	-4.94121
16.23612	19.05057	-4.94121
16.24033	19.18241	-4.94121
16.24452	19.29227	-4.94121
16.24871	19.40213	-4.94121
16.25289	19.51200	-4.94121
16.25708	19.64383	-4.94121
16.26126	19.64383	-4.94121
16.26552	19.75369	-4.94121
16.26980	19.86356	-4.94121
16.27401	19.99539	-4.94121
16.27822	20.08328	-4.94121
16.28241	20.08328	-4.94121
16.28660	20.19315	-4.94121
16.29079	20.30301	-4.94121
16.29497	20.39090	-4.94121
16.29927	20.47879	-4.94121
16.30348	20.56668	-4.94121
16.30768	20.65457	-4.94121
16.31187	20.65457	-4.94121
16.31606	20.74246	-4.94121
16.32036	20.80838	-4.94121
16.32454	20.87430	-4.94121
16.32898	20.94022	-4.94121
16.33318	20.98416	-4.94121
16.33738	20.98416	-4.94121
16.34157	21.02811	-4.94121
16.34575	21.05008	-4.94121
16.34994	21.09403	-4.94121
16.35412	21.09403	-4.94121
16.35839	21.11600	-4.94121
16.36268	21.11600	-4.94121
16.36688	21.11600	-4.94121
16.37106	21.09403	-4.94121
16.37525	21.07205	-4.94121
16.37945	21.05008	-4.94121
16.38365	21.02811	-4.94121
16.38784	21.02811	-4.94121
16.39215	20.98416	-4.94121
16.39635	20.94022	-4.94121
16.40054	20.89627	-4.94121
16.40473	20.83036	-4.94121
16.40894	20.76444	-4.94121
16.41313	20.76444	-4.94121
16.41733	20.69852	-4.94121
16.42170	20.63260	-4.94121
16.42597	20.56668	-4.94121
16.43020	20.47879	-4.94121
16.43440	20.39090	-4.94121
16.43860	20.30301	-4.94121
16.44279	20.30301	-4.94121
16.44698	20.21512	-4.94121
16.45117	20.12723	-4.94121
16.45548	20.03934	-4.94121
16.45970	19.95145	-4.94121
16.46389	19.88553	-4.94121
16.46809	19.77567	-4.94121
16.47228	19.77567	-4.94121
16.47647	19.68778	-4.94121
16.48068	19.59989	-4.94121
16.48509	19.49002	-4.94121
16.48933	19.40213	-4.94121
16.49353	19.31424	-4.94121
16.49773	19.31424	-4.94121
16.50192	19.20438	-4.94121
16.50611	19.11649	-4.94121
16.51030	19.02860	-4.94121
16.51457	18.91873	-4.94121
16.51884	18.80887	-4.94121
16.52317	18.69901	-4.94121
16.52737	18.69901	-4.94121
16.53156	18.58914	-4.94121
16.53575	18.47928	-4.94121
16.53994	18.36942	-4.94121
16.54420	18.28153	-4.94121
16.54849	18.19364	-4.94121
16.55269	18.19364	-4.94121
16.55689	18.06180	-4.94121
16.56110	17.95194	-4.94121
16.56531	17.84207	-4.94121
16.56951	17.73221	-4.94121
16.57370	17.62235	-4.94121
16.57809	17.62235	-4.94121
16.58230	17.49051	-4.94121
16.58649	17.38065	-4.94121
16.59069	17.27078	-4.94121
16.59490	17.13895	-4.94121
16.59909	17.02909	-4.94121
16.60329	17.02909	-4.94121
16.60795	16.89725	-4.94121
16.61218	16.78739	-4.94121
16.61638	16.65555	-4.94121
16.62057	16.54569	-4.94121
16.62489	16.41385	-4.94121
16.62908	16.41385	-4.94121
16.63326	16.28202	-4.94121
16.63752	16.19412	-4.94121
16.64186	16.06229	-4.94121
16.64608	15.93045	-4.94121
16.65030	15.82059	-4.94121
16.65451	15.68875	-4.94121
16.65872	15.68875	-4.94121
16.66293	15.55692	-4.94121
16.66876	15.42508	-4.94121
16.67307	15.29325	-4.94121
16.67729	15.18338	-4.94121
16.68146	15.05155	-4.94121
16.68566	14.91971	-4.94121
16.68985	14.78787	-4.94121
16.69405	14.78787	-4.94121
16.69831	14.65604	-4.94121
16.70262	14.52420	-4.94121
16.70683	14.39237	-4.94121
16.71103	14.26053	-4.94121
16.71522	14.12869	-4.94121
16.71941	14.01883	-4.94121
16.72360	14.01883	-4.94121
16.72791	13.88700	-4.94121
16.73222	13.73319	-4.94121
16.73643	13.60135	-4.94121
16.74063	13.46952	-4.94121
16.74483	13.31571	-4.94121
16.74902	13.31571	-4.94121
16.75322	13.18387	-4.94121
16.75742	13.05203	-4.94121
16.76187	12.94217	-4.94121
16.76607	12.78836	-4.94121
16.77026	12.65653	-4.94121
16.77445	12.52469	-4.94121
16.77864	12.52469	-4.94121
16.78282	12.37088	-4.94121
16.78701	12.23905	-4.94121
16.79127	12.10721	-4.94121
16.79554	11.97537	-4.94121
16.79973	11.82157	-4.94121
16.80392	11.71170	-4.94121
16.80810	11.71170	-4.94121
16.81229	11.57987	-4.94121
16.81647	11.42606	-4.94121
16.82066	11.29422	-4.94121
16.82496	11.16239	-4.94121
16.82927	11.16239	-4.94121
16.83344	11.00858	-4.94121
16.83763	10.87674	-4.94121
16.84181	10.74491	-4.94121
16.84600	10.59110	-4.94121
16.85018	10.45926	-4.94121
16.85462	10.45926	-4.94121
16.85884	10.30545	-4.94121
16.86303	10.17362	-4.94121
16.86722	10.01981	-4.94121
16.87141	9.90994	-4.94121
16.87561	9.75614	-4.94121
16.87980	9.75614	-4.94121
16.88408	9.62430	-4.94121
16.88837	9.47049	-4.94121
16.89258	9.38260	-4.94121
16.89678	9.22879	-4.94121
16.90097	9.09696	-4.94121
16.90516	8.96512	-4.94121
16.90936	8.96512	-4.94121
16.91356	8.83328	-4.94121
16.91787	8.67948	-4.94121
16.92208	8.54764	-4.94121
16.92627	8.41580	-4.94121
16.93058	8.30594	-4.94121
16.93477	8.30594	-4.94121
16.93897	8.17411	-4.94121
16.94315	8.04227	-4.94121
16.94758	7.91043	-4.94121
16.95179	7.77860	-4.94121
16.95599	7.62479	-4.94121
16.96018	7.62479	-4.94121
16.96437	7.49295	-4.94121
16.96856	7.36112	-4.94121
16.97278	7.22928	-4.94121
16.97712	7.14139	-4.94121
16.98143	6.98758	-4.94121
16.98562	6.85575	-4.94121
16.98981	6.85575	-4.94121
16.99400	6.72391	-4.94121
16.99819	6.61405	-4.94121
17.00238	6.48221	-4.94121
17.00668	6.35037	-4.94121
17.01097	6.21854	-4.94121
17.01517	6.10868	-4.94121
17.01936	6.10868	-4.94121
17.02355	5.99881	-4.94121
17.02774	5.86698	-4.94121
17.03203	5.73514	-4.94121
17.03622	5.60330	-4.94121
17.04052	5.49344	-4.94121
17.04473	5.49344	-4.94121
17.04891	5.36161	-4.94121
17.05310	5.25174	-4.94121
17.05729	5.11991	-4.94121
17.06144	5.03202	-4.94121
17.06562	4.90018	-4.94121
17.06988	4.90018	-4.94121
17.07415	4.79032	-4.94121
17.07834	4.65848	-4.94121
17.08253	4.54862	-4.94121
17.08672	4.43875	-4.94121
17.09091	4.30692	-4.94121
17.09510	4.30692	-4.94121
17.09929	4.19705	-4.94121
17.10360	4.08719	-4.94121
17.10782	3.97733	-4.94121
17.11201	3.86746	-4.94121
17.11619	3.75760	-4.94121
17.12038	3.75760	-4.94121
17.12456	3.64774	-4.94121
17.12875	3.53787	-4.94121
17.13333	3.42801	-4.94121
17.13753	3.31815	-4.94121
17.14173	3.20828	-4.94121
17.14591	3.12039	-4.94121
17.15010	3.12039	-4.94121
17.15429	3.01053	-4.94121
17.15847	2.92264	-4.94121
17.16273	2.81278	-4.94121
17.16700	2.70291	-4.94121
17.17120	2.70291	-4.94121
17.17539	2.61502	-4.94121
17.17958	2.52713	-4.94121
17.18376	2.41727	-4.94121
17.18795	2.32938	-4.94121
17.19213	2.24149	-4.94121
17.19643	2.15360	-4.94121
17.20064	2.15360	-4.94121
17.20483	2.06571	-4.94121
17.20901	1.97782	-4.94121
17.21320	1.86795	-4.94121
17.21739	1.78006	-4.94121
17.22158	1.69217	-4.94121
17.22599	1.69217	-4.94121
17.23021	1.60428	-4.94121
17.23451	1.53836	-4.94121
17.23871	1.45047	-4.94121
17.24290	1.36258	-4.94121
17.24709	1.29666	-4.94121
17.25128	1.20877	-4.94121
17.25556	1.20877	-4.94121
17.25985	1.14286	-4.94121
17.26406	1.05496	-4.94121
17.26825	0.98905	-4.94121
17.27245	0.92313	-4.94121
17.27664	0.83524	-4.94121
17.28084	0.83524	-4.94121
17.28503	0.76932	-4.94121
17.28935	0.70340	-4.94121
17.29357	0.63748	-4.94121
17.29776	0.57157	-4.94121
17.30195	0.50565	-4.94121
17.30614	0.50565	-4.94121
17.31033	0.43973	-4.94121
17.31452	0.37381	-4.94121
17.31880	0.30789	-4.94121
17.32306	0.26395	-4.94121
17.32726	0.19803	-4.94121
17.33145	0.13211	-4.94121
17.33574	0.13211	-4.94121
17.33992	0.08817	-4.94121
17.34410	0.02225	-4.94121
17.34837	-0.02170	-4.94121
17.35265	-0.08761	-4.94121
17.35685	-0.13156	-4.94121
17.36104	-0.13156	-4.94121
17.36523	-0.17550	-4.94121
17.36942	-0.24142	-4.94121
17.37360	-0.28537	-4.94121
17.37779	-0.32931	-4.94121
17.38209	-0.32931	-4.94121
17.38629	-0.37326	-4.94121
17.39052	-0.41720	-4.94121
17.39471	-0.46115	-4.94121
17.39890	-0.48312	-4.94121
17.40309	-0.52707	-4.94121
17.40727	-0.54904	-4.94121
17.41152	-0.54904	-4.94121
17.41580	-0.59298	-4.94121
17.42000	-0.63693	-4.94121
17.42420	-0.65890	-4.94121
17.42840	-0.70285	-4.94121
17.43259	-0.72482	-4.94121
17.43689	-0.72482	-4.94121
17.44115	-0.74679	-4.94121
17.44545	-0.79074	-4.94121
17.44965	-0.81271	-4.94121
17.45384	-0.83468	-4.94121
17.45803	-0.85666	-4.94121
17.46221	-0.87863	-4.94121
17.46640	-0.87863	-4.94121
17.47058	-0.90060	-4.94121
17.47488	-0.92257	-4.94121
17.47910	-0.94455	-4.94121
17.48328	-0.96652	-4.94121
17.48747	-0.96652	-4.94121
17.49165	-0.96652	-4.94121
17.49584	-0.98849	-4.94121
17.50003	-1.01047	-4.94121
17.50428	-1.01047	-4.94121
17.50856	-1.01047	-4.94121
17.51277	-1.03244	-4.94121
17.51696	-1.03244	-4.94121
17.52114	-1.05441	-4.94121
17.52535	-1.05441	-4.94121
17.52954	-1.05441	-4.94121
17.53373	-1.05441	-4.94121
17.53814	-1.07638	-4.94121
17.54234	-1.07638	-4.94121
17.54654	-1.07638	-4.94121
17.55073	-1.07638	-4.94121
17.55492	-1.07638	-4.94121
17.55910	-1.07638	-4.94121
17.56329	-1.07638	-4.94121
17.56771	-1.07638	-4.94121
17.57193	-1.07638	-4.94121
17.57613	-1.07638	-4.94121
17.58032	-1.07638	-4.94121
17.58451	-1.07638	-4.94121
17.58870	-1.05441	-4.94121
17.59289	-1.05441	-4.94121
17.59718	-1.05441	-4.94121
17.60148	-1.03244	-4.94121
17.60568	-1.03244	-4.94121
17.60988	-1.03244	-4.94121
17.61407	-1.01047	-4.94121
17.61826	-0.98849	-4.94121
17.62245	-0.98849	-4.94121
17.62665	-0.96652	-4.94121
17.63096	-0.96652	-4.94121
17.63517	-0.94455	-4.94121
17.63947	-0.92257	-4.94121
17.64367	-0.92257	-4.94121
17.64786	-0.92257	-4.94121
17.65205	-0.90060	-4.94121
17.65624	-0.87863	-4.94121
17.66067	-0.85666	-4.94121
17.66488	-0.83468	-4.94121
17.66907	-0.81271	-4.94121
17.67326	-0.76877	-4.94121
17.67745	-0.76877	-4.94121
17.68163	-0.76877	-4.94121
17.68582	-0.72482	-4.94121
17.69007	-0.68088	-4.94121
17.69434	-0.65890	-4.94121
17.69853	-0.65890	-4.94121
17.70272	-0.65890	-4.94121
17.70691	-0.61496	-4.94121
17.71110	-0.59298	-4.94121
17.71528	-0.54904	-4.94121
17.71946	-0.52707	-4.94121
17.72377	-0.48312	-4.94121
17.72797	-0.48312	-4.94121
17.73215	-0.46115	-4.94121
17.73634	-0.41720	-4.94121
17.74062	-0.37326	-4.94121
17.74481	-0.35129	-4.94121
17.74899	-0.30734	-4.94121
17.75343	-0.26339	-4.94121
17.75765	-0.26339	-4.94121
17.76184	-0.21945	-4.94121
17.76604	-0.17550	-4.94121
17.77023	-0.13156	-4.94121
17.77442	-0.10959	-4.94121
17.77861	-0.06564	-4.94121
17.78289	-0.02170	-4.94121
17.78717	-0.02170	-4.94121
17.79139	0.02225	-4.94121
17.79558	0.06619	-4.94121
17.79977	0.11014	-4.94121
17.80396	0.17606	-4.94121
17.80815	0.17606	-4.94121
17.81234	0.22000	-4.94121
17.81665	0.26395	-4.94121
17.82086	0.30789	-4.94121
17.82506	0.35184	-4.94121
17.82924	0.39578	-4.94121
17.83344	0.46170	-4.94121
17.83762	0.46170	-4.94121
17.84191	0.50565	-4.94121
17.84630	0.57157	-4.94121
17.85052	0.61551	-4.94121
17.85472	0.65946	-4.94121
17.85891	0.72537	-4.94121
17.86310	0.72537	-4.94121
17.86729	0.76932	-4.94121
17.87148	0.83524	-4.94121
17.87575	0.87918	-4.94121
17.88002	0.94510	-4.94121
17.88423	1.01102	-4.94121
17.88842	1.01102	-4.94121
17.89261	1.05496	-4.94121
17.89680	1.12088	-4.94121
17.90099	1.18680	-4.94121
17.90518	1.25272	-4.94121
17.90950	1.25272	-4.94121
17.91372	1.29666	-4.94121
17.91791	1.36258	-4.94121
17.92210	1.40653	-4.94121
17.92629	1.47244	-4.94121
17.93050	1.53836	-4.94121
17.93468	1.60428	-4.94121
17.93910	1.60428	-4.94121
17.94343	1.67020	-4.94121
17.94762	1.73612	-4.94121
17.95182	1.80203	-4.94121
17.95601	1.84598	-4.94121
17.96020	1.91190	-4.94121
17.96438	1.99979	-4.94121
17.96865	1.99979	-4.94121
17.97293	2.06571	-4.94121
17.97714	2.13162	-4.94121
17.98135	2.19754	-4.94121
17.98554	2.26346	-4.94121
17.98973	2.32938	-4.94121
17.99392	2.32938	-4.94121
17.99811	2.39530	-4.94121
18.00240	2.46121	-4.94121
18.00661	2.52713	-4.94121
18.01081	2.59305	-4.94121
18.01500	2.65897	-4.94121
18.01919	2.65897	-4.94121
18.02338	2.74686	-4.94121
18.02757	2.81278	-4.94121
18.03186	2.87869	-4.94121
18.03611	2.94461	-4.94121
18.04032	3.01053	-4.94121
18.04468	3.07645	-4.94121
18.04888	3.07645	-4.94121
18.05309	3.16434	-4.94121
18.05728	3.23026	-4.94121
18.06155	3.31815	-4.94121
18.06590	3.38407	-4.94121
18.07012	3.44998	-4.94121
18.07434	3.44998	-4.94121
18.07853	3.53787	-4.94121
18.08273	3.60379	-4.94121
18.08692	3.66971	-4.94121
18.09111	3.73563	-4.94121
18.09549	3.82352	-4.94121
18.09971	3.88944	-4.94121
18.10392	3.88944	-4.94121
18.10813	3.97733	-4.94121
18.11233	4.04325	-4.94121
18.11651	4.13114	-4.94121
18.12070	4.19705	-4.94121
18.12524	4.28494	-4.94121
18.12948	4.28494	-4.94121
18.13368	4.35086	-4.94121
18.13787	4.43875	-4.94121
18.14206	4.50467	-4.94121
18.14635	4.59256	-4.94121
18.15054	4.65848	-4.94121
18.15480	4.65848	-4.94121
18.15907	4.72440	-4.94121
18.16326	4.81229	-4.94121
18.16745	4.87821	-4.94121
18.17163	4.94412	-4.94121
18.17582	5.03202	-4.94121
18.18001	5.03202	-4.94121
18.18419	5.11991	-4.94121
18.18849	5.18582	-4.94121
18.19270	5.27371	-4.94121
18.19689	5.33963	-4.94121
18.20107	5.42752	-4.94121
18.20526	5.42752	-4.94121
18.20944	5.49344	-4.94121
18.21362	5.55936	-4.94121
18.21804	5.64725	-4.94121
18.22225	5.71317	-4.94121
18.22645	5.80106	-4.94121
18.23064	5.86698	-4.94121
18.23484	5.86698	-4.94121
18.23903	5.93289	-4.94121
18.24322	6.02078	-4.94121
18.24763	6.08670	-4.94121
18.25193	6.17459	-4.94121
18.25615	6.24051	-4.94121
18.26035	6.30643	-4.94121
18.26455	6.30643	-4.94121
18.26877	6.39432	-4.94121
18.27297	6.48221	-4.94121
18.27717	6.54813	-4.94121
18.28149	6.61405	-4.94121
18.28570	6.67996	-4.94121
18.28989	6.67996	-4.94121
18.29409	6.76786	-4.94121
18.29828	6.83377	-4.94121
18.30247	6.89969	-4.94121
18.30666	6.98758	-4.94121
18.31109	7.05350	-4.94121
18.31530	7.14139	-4.94121
18.31949	7.14139	-4.94121
18.32367	7.20731	-4.94121
18.32786	7.27323	-4.94121
18.33204	7.36112	-4.94121
18.33623	7.42703	-4.94121
18.34048	7.49295	-4.94121
18.34476	7.49295	-4.94121
18.34908	7.55887	-4.94121
18.35327	7.64676	-4.94121
18.35745	7.71268	-4.94121
18.36164	7.77860	-4.94121
18.36583	7.86649	-4.94121
18.37002	7.86649	-4.94121
18.37432	7.93241	-4.94121
18.37853	7.99832	-4.94121
18.38271	8.06424	-4.94121
18.38692	8.15213	-4.94121
18.39111	8.21805	-4.94121
18.39529	8.21805	-4.94121
18.39948	8.28397	-4.94121
18.40392	8.34989	-4.94121
18.40814	8.43778	-4.94121
18.41234	8.48172	-4.94121
18.41653	8.48172	-4.94121
18.42072	8.56961	-4.94121
18.42491	8.63553	-4.94121
18.42910	8.70145	-4.94121
18.43338	8.74539	-4.94121
18.43767	8.83328	-4.94121
18.44188	8.89920	-4.94121
18.44607	8.89920	-4.94121
18.45038	8.96512	-4.94121
18.45457	9.03104	-4.94121
18.45876	9.09696	-4.94121
18.46295	9.16287	-4.94121
18.46726	9.20682	-4.94121
18.47147	9.27274	-4.94121
18.47566	9.27274	-4.94121
18.47986	9.33866	-4.94121
18.48405	9.40457	-4.94121
18.48824	9.47049	-4.94121
18.49243	9.53641	-4.94121
18.49686	9.58036	-4.94121
18.50107	9.58036	-4.94121
18.50526	9.64627	-4.94121
18.50946	9.69022	-4.94121
18.51367	9.75614	-4.94121
18.51787	9.82205	-4.94121
18.52206	9.86600	-4.94121
18.52632	9.93192	-4.94121
18.53059	9.93192	-4.94121
18.53479	9.99784	-4.94121
18.53898	10.04178	-4.94121
18.54317	10.10770	-4.94121
18.54736	10.15164	-4.94121
18.55165	10.19559	-4.94121
18.55584	10.19559	-4.94121
18.56014	10.26151	-4.94121
18.56434	10.30545	-4.94121
18.56853	10.37137	-4.94121
18.57272	10.41532	-4.94121
18.57691	10.45926	-4.94121
18.58110	10.45926	-4.94121
18.58529	10.52518	-4.94121
18.58952	10.56912	-4.94121
18.59379	10.61307	-4.94121
18.59799	10.65702	-4.94121
18.60217	10.70096	-4.94121
18.60636	10.76688	-4.94121
18.61055	10.76688	-4.94121
18.61473	10.78885	-4.94121
18.61892	10.83280	-4.94121
18.62322	10.89871	-4.94121
18.62742	10.94266	-4.94121
18.63161	10.94266	-4.94121
18.63580	10.98661	-4.94121
18.63999	11.03055	-4.94121
18.64417	11.05252	-4.94121
18.64836	11.09647	-4.94121
18.65290	11.14041	-4.94121
18.65711	11.14041	-4.94121
18.66132	11.18436	-4.94121
18.66551	11.22830	-4.94121
18.66969	11.27225	-4.94121
18.67388	11.29422	-4.94121
18.67806	11.36014	-4.94121
18.68232	11.38211	-4.94121
18.68658	11.38211	-4.94121
18.69079	11.40409	-4.94121
18.69498	11.44803	-4.94121
18.69917	11.47000	-4.94121
18.70335	11.51395	-4.94121
18.70754	11.53592	-4.94121
18.71172	11.53592	-4.94121
18.71601	11.55789	-4.94121
18.72022	11.60184	-4.94121
18.72441	11.62381	-4.94121
18.72860	11.66776	-4.94121
18.73279	11.68973	-4.94121
18.73698	11.68973	-4.94121
18.74117	11.71170	-4.94121
18.74558	11.73368	-4.94121
18.74980	11.75565	-4.94121
18.75411	11.79959	-4.94121
18.75830	11.82157	-4.94121
18.76249	11.82157	-4.94121
18.76669	11.84354	-4.94121
18.77087	11.86551	-4.94121
18.77515	11.88748	-4.94121
18.77942	11.90946	-4.94121
18.78363	11.93143	-4.94121
18.78782	11.95340	-4.94121
18.79202	11.95340	-4.94121
18.79621	11.97537	-4.94121
18.80040	11.97537	-4.94121
18.80460	11.99735	-4.94121
18.80889	12.01932	-4.94121
18.81311	12.04129	-4.94121
18.81731	12.04129	-4.94121
18.82151	12.04129	-4.94121
18.82570	12.06327	-4.94121
18.82989	12.08524	-4.94121
18.83408	12.08524	-4.94121
18.83848	12.10721	-4.94121
18.84270	12.10721	-4.94121
18.84690	12.10721	-4.94121
18.85109	12.12918	-4.94121
18.85539	12.15116	-4.94121
18.85958	12.15116	-4.94121
18.86377	12.15116	-4.94121
18.86804	12.17313	-4.94121
18.87232	12.17313	-4.94121
18.87653	12.17313	-4.94121
18.88072	12.17313	-4.94121
18.88491	12.19510	-4.94121
18.88911	12.19510	-4.94121
18.89330	12.19510	-4.94121
18.89745	12.19510	-4.94121
18.90175	12.19510	-4.94121
18.90596	12.19510	-4.94121
18.91016	12.19510	-4.94121
18.91436	12.19510	-4.94121
18.91855	12.19510	-4.94121
18.92274	12.19510	-4.94121
18.92693	12.19510	-4.94121
18.93120	12.19510	-4.94121
18.93546	12.19510	-4.94121
18.93967	12.19510	-4.94121
18.94387	12.19510	-4.94121
18.94805	12.19510	-4.94121
18.95224	12.19510	-4.94121
18.95653	12.19510	-4.94121
18.96079	12.19510	-4.94121
18.96506	12.17313	-4.94121
18.96926	12.17313	-4.94121
18.97345	12.17313	-4.94121
18.97764	12.17313	-4.94121
18.98182	12.15116	-4.94121
18.98601	12.15116	-4.94121
18.99019	12.12918	-4.94121
18.99448	12.12918	-4.94121
18.99869	12.12918	-4.94121
19.00288	12.12918	-4.94121
19.00706	12.10721	-4.94121
19.01125	12.08524	-4.94121
19.01544	12.08524	-4.94121
19.01962	12.06327	-4.94121
19.02387	12.04129	-4.94121
19.02812	12.04129	-4.94121
19.03232	12.04129	-4.94121
19.03651	12.01932	-4.94121
19.04070	11.99735	-4.94121
19.04493	11.99735	-4.94121
19.04914	11.97537	-4.94121
19.05339	11.97537	-4.94121
19.05783	11.95340	-4.94121
19.06205	11.93143	-4.94121
19.06625	11.93143	-4.94121
19.07044	11.90946	-4.94121
19.07463	11.88748	-4.94121
19.07883	11.86551	-4.94121
19.08302	11.86551	-4.94121
19.08748	11.84354	-4.94121
19.09171	11.82157	-4.94121
19.09592	11.79959	-4.94121
19.10012	11.77762	-4.94121
19.10431	11.75565	-4.94121
19.10850	11.71170	-4.94121
19.11269	11.71170	-4.94121
19.11696	11.71170	-4.94121
19.12122	11.68973	-4.94121
19.12544	11.64578	-4.94121
19.12963	11.62381	-4.94121
19.13383	11.60184	-4.94121
19.13802	11.60184	-4.94121
19.14221	11.57987	-4.94121
19.14639	11.55789	-4.94121
19.15068	11.51395	-4.94121
19.15489	11.49198	-4.94121
19.15919	11.47000	-4.94121
19.16337	11.47000	-4.94121
19.16756	11.42606	-4.94121
19.17174	11.40409	-4.94121
19.17593	11.38211	-4.94121
19.18034	11.33817	-4.94121
19.18456	11.33817	-4.94121
19.18876	11.31619	-4.94121
19.19295	11.27225	-4.94121
19.19714	11.25028	-4.94121
19.20134	11.22830	-4.94121
19.20553	11.18436	-4.94121
19.20980	11.14041	-4.94121
19.21408	11.14041	-4.94121
19.21829	11.11844	-4.94121
19.22249	11.09647	-4.94121
19.22668	11.05252	-4.94121
19.23087	11.03055	-4.94121
19.23506	10.98661	-4.94121
19.23926	10.96463	-4.94121
19.24356	10.96463	-4.94121
19.24777	10.92069	-4.94121
19.25197	10.87674	-4.94121
19.25616	10.85477	-4.94121
19.26046	10.81082	-4.94121
19.26465	10.76688	-4.94121
19.26884	10.76688	-4.94121
19.27311	10.74491	-4.94121
19.27740	10.70096	-4.94121
19.28162	10.67899	-4.94121
19.28581	10.63504	-4.94121
19.29001	10.59110	-4.94121
19.29420	10.59110	-4.94121
19.29840	10.54715	-4.94121
19.30259	10.50321	-4.94121
19.30689	10.48123	-4.94121
19.31110	10.43729	-4.94121
19.31529	10.39334	-4.94121
19.31947	10.34940	-4.94121
19.32366	10.34940	-4.94121
19.32784	10.32743	-4.94121
19.33203	10.28348	-4.94121
19.33644	10.23953	-4.94121
19.34067	10.19559	-4.94121
19.34487	10.15164	-4.94121
19.34906	10.15164	-4.94121
19.35325	10.10770	-4.94121
19.35745	10.08573	-4.94121
19.36175	10.04178	-4.94121
19.36601	9.99784	-4.94121
19.37029	9.95389	-4.94121
19.37450	9.90994	-4.94121
19.37870	9.90994	-4.94121
19.38289	9.86600	-4.94121
19.38708	9.84403	-4.94121
19.39127	9.77811	-4.94121
19.39546	9.73416	-4.94121
19.39976	9.69022	-4.94121
19.40398	9.69022	-4.94121
19.40818	9.64627	-4.94121
19.41237	9.62430	-4.94121
19.41656	9.55838	-4.94121
19.42075	9.51444	-4.94121
19.42494	9.51444	-4.94121
19.42921	9.49246	-4.94121
19.43347	9.42655	-4.94121
19.43767	9.38260	-4.94121
19.44186	9.33866	-4.94121
19.44605	9.29471	-4.94121
19.45024	9.27274	-4.94121
19.45443	9.27274	-4.94121
19.45862	9.22879	-4.94121
19.46302	9.18485	-4.94121
19.46722	9.14090	-4.94121
19.47141	9.09696	-4.94121
19.47559	9.03104	-4.94121
19.47978	9.03104	-4.94121
19.48396	9.00907	-4.94121
19.48814	8.96512	-4.94121
19.49256	8.92118	-4.94121
19.49680	8.87723	-4.94121
19.50099	8.83328	-4.94121
19.50518	8.78934	-4.94121
19.50938	8.78934	-4.94121
19.51359	8.74539	-4.94121
19.51779	8.70145	-4.94121
19.52208	8.65750	-4.94121
19.52638	8.61356	-4.94121
19.53059	8.61356	-4.94121
19.53479	8.56961	-4.94121
19.53898	8.52567	-4.94121
19.54317	8.48172	-4.94121
19.54736	8.45975	-4.94121
19.55155	8.39383	-4.94121
19.55585	8.34989	-4.94121
19.56007	8.34989	-4.94121
19.56437	8.32791	-4.94121
19.56856	8.28397	-4.94121
19.57276	8.21805	-4.94121
19.57695	8.19608	-4.94121
19.58114	8.15213	-4.94121
19.58556	8.10819	-4.94121
19.58980	8.10819	-4.94121
19.59400	8.06424	-4.94121
19.59819	8.02030	-4.94121
19.60238	7.97635	-4.94121
19.60657	7.95438	-4.94121
19.61076	7.91043	-4.94121
19.61503	7.91043	-4.94121
19.61931	7.86649	-4.94121
19.62352	7.82254	-4.94121
19.62771	7.80057	-4.94121
19.63189	7.75662	-4.94121
19.63608	7.71268	-4.94121
19.64027	7.71268	-4.94121
19.64446	7.66873	-4.94121
19.64874	7.62479	-4.94121
19.65295	7.58084	-4.94121
19.65714	7.55887	-4.94121
19.66134	7.51493	-4.94121
19.66563	7.51493	-4.94121
19.66982	7.47098	-4.94121
19.67400	7.42703	-4.94121
19.67843	7.40506	-4.94121
19.68267	7.36112	-4.94121
19.68687	7.31717	-4.94121
19.69106	7.31717	-4.94121
19.69525	7.29520	-4.94121
19.69944	7.22928	-4.94121
19.70363	7.20731	-4.94121
19.70790	7.18534	-4.94121
19.71218	7.14139	-4.94121
19.71638	7.11942	-4.94121
19.72058	7.11942	-4.94121
19.72477	7.07547	-4.94121
19.72896	7.05350	-4.94121
19.73315	7.00955	-4.94121
19.73735	6.96561	-4.94121
19.74167	6.94364	-4.94121
19.74589	6.92166	-4.94121
19.75008	6.92166	-4.94121
19.75427	6.87772	-4.94121
19.75847	6.85575	-4.94121
19.76266	6.81180	-4.94121
19.76696	6.78983	-4.94121
19.77137	6.74588	-4.94121
19.77560	6.74588	-4.94121
19.77979	6.72391	-4.94121
19.78398	6.67996	-4.94121
19.78817	6.65799	-4.94121
19.79236	6.63602	-4.94121
19.79655	6.61405	-4.94121
19.80081	6.61405	-4.94121
19.80510	6.57010	-4.94121
19.80932	6.54813	-4.94121
19.81351	6.52616	-4.94121
19.81769	6.50418	-4.94121
19.82188	6.46024	-4.94121
19.82606	6.46024	-4.94121
19.83025	6.43827	-4.94121
19.83454	6.41629	-4.94121
19.83874	6.37235	-4.94121
19.84297	6.37235	-4.94121
19.84716	6.32840	-4.94121
19.85135	6.30643	-4.94121
19.85554	6.30643	-4.94121
19.85972	6.28446	-4.94121
19.86459	6.26248	-4.94121
19.86890	6.24051	-4.94121
19.87314	6.21854	-4.94121
19.87734	6.19657	-4.94121
19.88153	6.17459	-4.94121
19.88571	6.17459	-4.94121
19.88990	6.15262	-4.94121
19.89416	6.13065	-4.94121
19.89849	6.10868	-4.94121
19.90269	6.08670	-4.94121
19.90690	6.06473	-4.94121
19.91110	6.06473	-4.94121
19.91529	6.04276	-4.94121
19.91948	6.02078	-4.94121
19.92367	5.99881	-4.94121
19.92803	5.97684	-4.94121
19.93224	5.95487	-4.94121
19.93642	5.95487	-4.94121
19.94063	5.93289	-4.94121
19.94483	5.93289	-4.94121
19.94901	5.91092	-4.94121
19.95320	5.88895	-4.94121
19.95779	5.86698	-4.94121
19.96204	5.86698	-4.94121
19.96627	5.86698	-4.94121
19.97059	5.84500	-4.94121
19.97479	5.82303	-4.94121
19.97898	5.82303	-4.94121
19.98319	5.80106	-4.94121
19.98746	5.77909	-4.94121
19.99174	5.77909	-4.94121
19.99594	5.75711	-4.94121
20.00013	5.75711	-4.94121
20.00432	5.75711	-4.94121
20.00850	5.73514	-4.94121
20.01269	5.71317	-4.94121
20.01688	5.71317	-4.94121
20.02118	5.69119	-4.94121
20.02540	5.69119	-4.94121
20.02959	5.69119	-4.94121
20.03378	5.66922	-4.94121
20.03797	5.66922	-4.94121
20.04216	5.66922	-4.94121
20.04635	5.64725	-4.94121
20.05079	5.62528	-4.94121
20.05500	5.62528	-4.94121
20.05919	5.62528	-4.94121
20.06338	5.60330	-4.94121
20.06756	5.62528	-4.94121
20.07185	5.62528	-4.94121
20.07604	5.60330	-4.94121
20.08029	5.60330	-4.94121
20.08458	5.58133	-4.94121
20.08879	5.58133	-4.94121
20.09299	5.58133	-4.94121
20.09719	5.55936	-4.94121
20.10140	5.55936	-4.94121
20.10559	5.55936	-4.94121
20.10978	5.55936	-4.94121
20.11408	5.55936	-4.94121
20.11828	5.55936	-4.94121
20.12247	5.55936	-4.94121
20.12666	5.53739	-4.94121
20.13085	5.53739	-4.94121
20.13504	5.53739	-4.94121
20.13922	5.53739	-4.94121
20.14348	5.53739	-4.94121
20.14776	5.53739	-4.94121
20.15195	5.53739	-4.94121
20.15614	5.51541	-4.94121
20.16033	5.53739	-4.94121
20.16451	5.53739	-4.94121
20.16870	5.53739	-4.94121
20.17299	5.53739	-4.94121
20.17729	5.53739	-4.94121
20.18146	5.53739	-4.94121
20.18566	5.53739	-4.94121
20.18986	5.53739	-4.94121
20.19406	5.53739	-4.94121
20.19825	5.53739	-4.94121
20.20243	5.53739	-4.94121
20.20688	5.53739	-4.94121
20.21109	5.53739	-4.94121
20.21528	5.53739	-4.94121
20.21946	5.55936	-4.94121
20.22365	5.55936	-4.94121
20.22784	5.55936	-4.94121
20.23202	5.55936	-4.94121
20.23627	5.55936	-4.94121
20.24056	5.55936	-4.94121
20.24477	5.55936	-4.94121
20.24896	5.58133	-4.94121
20.25314	5.58133	-4.94121
20.25734	5.58133	-4.94121
20.26153	5.58133	-4.94121
20.26571	5.58133	-4.94121
20.27005	5.60330	-4.94121
20.27439	5.60330	-4.94121
20.27859	5.62528	-4.94121
20.28283	5.62528	-4.94121
20.28703	5.62528	-4.94121
20.29122	5.62528	-4.94121
20.29541	5.62528	-4.94121
20.29984	5.64725	-4.94121
20.30406	5.66922	-4.94121
20.30826	5.66922	-4.94121
20.31245	5.66922	-4.94121
20.31663	5.69119	-4.94121
20.32082	5.69119	-4.94121
20.32501	5.69119	-4.94121
20.32928	5.71317	-4.94121
20.33355	5.71317	-4.94121
20.33774	5.71317	-4.94121
20.34193	5.73514	-4.94121
20.34613	5.73514	-4.94121
20.35032	5.75711	-4.94121
20.35450	5.77909	-4.94121
20.35869	5.77909	-4.94121
20.36299	5.77909	-4.94121
20.36719	5.80106	-4.94121
20.37138	5.82303	-4.94121
20.37567	5.82303	-4.94121
20.37986	5.84500	-4.94121
20.38407	5.86698	-4.94121
20.38826	5.86698	-4.94121
20.39253	5.86698	-4.94121
20.39680	5.88895	-4.94121
20.40099	5.91092	-4.94121
20.40518	5.93289	-4.94121
20.40941	5.95487	-4.94121
20.41360	5.95487	-4.94121
20.41779	5.95487	-4.94121
20.42198	5.97684	-4.94121
20.42628	5.99881	-4.94121
20.43049	6.02078	-4.94121
20.43467	6.04276	-4.94121
20.43886	6.04276	-4.94121
20.44305	6.06473	-4.94121
20.44725	6.08670	-4.94121
20.45143	6.10868	-4.94121
20.45568	6.13065	-4.94121
20.45994	6.15262	-4.94121
20.46413	6.15262	-4.94121
20.46832	6.17459	-4.94121
20.47250	6.19657	-4.94121
20.47680	6.21854	-4.94121
20.48098	6.24051	-4.94121
20.48519	6.26248	-4.94121
20.48952	6.28446	-4.94121
20.49373	6.28446	-4.94121
20.49792	6.30643	-4.94121
20.50211	6.32840	-4.94121
20.50629	6.35037	-4.94121
20.51048	6.37235	-4.94121
20.51466	6.39432	-4.94121
20.51911	6.41629	-4.94121
20.52332	6.41629	-4.94121
20.52751	6.46024	-4.94121
20.53170	6.48221	-4.94121
20.53590	6.50418	-4.94121
20.54008	6.52616	-4.94121
20.54427	6.52616	-4.94121
20.54852	6.54813	-4.94121
20.55281	6.57010	-4.94121
20.55701	6.61405	-4.94121
20.56120	6.61405	-4.94121
20.56540	6.65799	-4.94121
20.56959	6.67996	-4.94121
20.57377	6.67996	-4.94121
20.57806	6.70194	-4.94121
20.58236	6.72391	-4.94121
20.58658	6.76786	-4.94121
20.59078	6.78983	-4.94121
20.59497	6.81180	-4.94121
20.59916	6.83377	-4.94121
20.60334	6.83377	-4.94121
20.60753	6.87772	-4.94121
20.61179	6.89969	-4.94121
20.61607	6.92166	-4.94121
20.62026	6.94364	-4.94121
20.62445	6.94364	-4.94121
20.62864	6.96561	-4.94121
20.63283	7.00955	-4.94121
20.63701	7.03153	-4.94121
20.64120	7.07547	-4.94121
20.64552	7.09744	-4.94121
20.64972	7.11942	-4.94121
20.65391	7.11942	-4.94121
20.65810	7.14139	-4.94121
20.66229	7.18534	-4.94121
20.66648	7.20731	-4.94121
20.67067	7.22928	-4.94121
20.67510	7.27323	-4.94121
20.67941	7.27323	-4.94121
20.68362	7.29520	-4.94121
20.68781	7.31717	-4.94121
20.69200	7.36112	-4.94121
20.69619	7.38309	-4.94121
20.70039	7.40506	-4.94121
20.70464	7.40506	-4.94121
20.70892	7.44901	-4.94121
20.71312	7.47098	-4.94121
20.71732	7.49295	-4.94121
20.72151	7.53690	-4.94121
20.72569	7.53690	-4.94121
20.72988	7.55887	-4.94121
20.73406	7.58084	-4.94121
20.73836	7.62479	-4.94121
20.74257	7.64676	-4.94121
20.74676	7.66873	-4.94121
20.75096	7.69071	-4.94121
20.75514	7.69071	-4.94121
20.75933	7.73465	-4.94121
20.76351	7.77860	-4.94121
20.76776	7.80057	-4.94121
20.77202	7.82254	-4.94121
20.77621	7.84452	-4.94121
20.78051	7.88846	-4.94121
20.78471	7.88846	-4.94121
20.78890	7.91043	-4.94121
20.79309	7.95438	-4.94121
20.79728	7.97635	-4.94121
20.80156	8.02030	-4.94121
20.80576	8.04227	-4.94121
20.80994	8.04227	-4.94121
20.81413	8.06424	-4.94121
20.81832	8.10819	-4.94121
20.82250	8.13016	-4.94121
20.82669	8.15213	-4.94121
20.83094	8.19608	-4.94121
20.83521	8.19608	-4.94121
20.83941	8.21805	-4.94121
20.84359	8.26200	-4.94121
20.84778	8.28397	-4.94121
20.85197	8.32791	-4.94121
20.85616	8.34989	-4.94121
20.86034	8.37186	-4.94121
20.86464	8.37186	-4.94121
20.86885	8.39383	-4.94121
20.87304	8.43778	-4.94121
20.87723	8.45975	-4.94121
20.88153	8.50369	-4.94121
20.88573	8.52567	-4.94121
20.88993	8.52567	-4.94121
20.89440	8.56961	-4.94121
20.89861	8.59159	-4.94121
20.90279	8.61356	-4.94121
20.90699	8.63553	-4.94121
20.91119	8.67948	-4.94121
20.91538	8.70145	-4.94121
20.91957	8.70145	-4.94121
20.92383	8.72342	-4.94121
20.92811	8.76737	-4.94121
20.93231	8.78934	-4.94121
20.93650	8.81131	-4.94121
20.94069	8.81131	-4.94121
20.94487	8.85526	-4.94121
20.94906	8.87723	-4.94121
20.95326	8.89920	-4.94121
20.95756	8.94315	-4.94121
20.96178	8.96512	-4.94121
20.96597	8.96512	-4.94121
20.97016	8.98709	-4.94121
20.97435	9.00907	-4.94121
20.97853	9.05301	-4.94121
20.98283	9.07498	-4.94121
20.98730	9.09696	-4.94121
20.99152	9.11893	-4.94121
20.99571	9.11893	-4.94121
20.99990	9.14090	-4.94121
21.00409	9.16287	-4.94121
21.00827	9.20682	-4.94121
21.01246	9.22879	-4.94121
21.01672	9.25077	-4.94121
21.02100	9.25077	-4.94121
21.02520	9.27274	-4.94121
21.02940	9.29471	-4.94121
21.03359	9.31668	-4.94121
21.03777	9.33866	-4.94121
21.04203	9.36063	-4.94121
21.04636	9.38260	-4.94121
21.05065	9.38260	-4.94121
21.05485	9.40457	-4.94121
21.05905	9.42655	-4.94121
21.06323	9.44852	-4.94121
21.06742	9.47049	-4.94121
21.07161	9.49246	-4.94121
21.07579	9.49246	-4.94121
21.08010	9.51444	-4.94121
21.08445	9.53641	-4.94121
21.08865	9.55838	-4.94121
21.09291	9.58036	-4.94121
21.09712	9.60233	-4.94121
21.10132	9.60233	-4.94121
21.10552	9.62430	-4.94121
21.10996	9.64627	-4.94121
21.11418	9.66825	-4.94121
21.11837	9.69022	-4.94121
21.12256	9.69022	-4.94121
21.12675	9.71219	-4.94121
21.13094	9.71219	-4.94121
21.13512	9.73416	-4.94121
21.13938	9.75614	-4.94121
21.14367	9.75614	-4.94121
21.14787	9.77811	-4.94121
21.15206	9.80008	-4.94121
21.15625	9.82205	-4.94121
21.16043	9.82205	-4.94121
21.16462	9.82205	-4.94121
21.16880	9.84403	-4.94121
21.17310	9.86600	-4.94121
21.17731	9.88797	-4.94121
21.18150	9.88797	-4.94121
21.18583	9.90994	-4.94121
21.19001	9.90994	-4.94121
21.19421	9.93192	-4.94121
21.19840	9.95389	-4.94121
21.20265	9.95389	-4.94121
21.20693	9.95389	-4.94121
21.21112	9.97586	-4.94121
21.21531	9.99784	-4.94121
21.21950	9.99784	-4.94121
21.22368	9.99784	-4.94121
21.22787	10.01981	-4.94121
21.23205	10.01981	-4.94121
21.23635	10.01981	-4.94121
21.24056	10.04178	-4.94121
21.24475	10.06375	-4.94121
21.24894	10.06375	-4.94121
21.25312	10.06375	-4.94121
21.25733	10.08573	-4.94121
21.26151	10.08573	-4.94121
21.26595	10.08573	-4.94121
21.27016	10.10770	-4.94121
21.27434	10.10770	-4.94121
21.27854	10.10770	-4.94121
21.28273	10.12967	-4.94121
21.28705	10.12967	-4.94121
21.29124	10.12967	-4.94121
21.29551	10.12967	-4.94121
21.29980	10.12967	-4.94121
21.30399	10.15164	-4.94121
21.30819	10.15164	-4.94121
21.31237	10.15164	-4.94121
21.31656	10.15164	-4.94121
21.32075	10.15164	-4.94121
21.32493	10.17362	-4.94121
21.32924	10.17362	-4.94121
21.33345	10.17362	-4.94121
21.33764	10.17362	-4.94121
21.34183	10.17362	-4.94121
21.34601	10.17362	-4.94121
21.35020	10.17362	-4.94121
21.35438	10.17362	-4.94121
21.35864	10.17362	-4.94121
21.36292	10.17362	-4.94121
21.36712	10.17362	-4.94121
21.37131	10.17362	-4.94121
21.37550	10.17362	-4.94121
21.37969	10.17362	-4.94121
21.38387	10.17362	-4.94121
21.38818	10.17362	-4.94121
21.39249	10.17362	-4.94121
21.39670	10.17362	-4.94121
21.40089	10.17362	-4.94121
21.40507	10.17362	-4.94121
21.40926	10.17362	-4.94121
21.41344	10.17362	-4.94121
21.41763	10.15164	-4.94121
21.42207	10.15164	-4.94121
21.42628	10.15164	-4.94121
21.43047	10.15164	-4.94121
21.43465	10.12967	-4.94121
21.43884	10.12967	-4.94121
21.44302	10.12967	-4.94121
21.44721	10.12967	-4.94121
21.45147	10.12967	-4.94121
21.45576	10.12967	-4.94121
21.45996	10.10770	-4.94121
21.46415	10.10770	-4.94121
21.46833	10.08573	-4.94121
21.47251	10.08573	-4.94121
21.47670	10.08573	-4.94121
21.48088	10.08573	-4.94121
21.48520	10.06375	-4.94121
21.48955	10.06375	-4.94121
21.49374	10.06375	-4.94121
21.49793	10.06375	-4.94121
21.50211	10.04178	-4.94121
21.50630	10.04178	-4.94121
21.51048	10.01981	-4.94121
21.51474	10.01981	-4.94121
21.51902	9.99784	-4.94121
21.52322	9.99784	-4.94121
21.52741	9.99784	-4.94121
21.53159	9.97586	-4.94121
21.53578	9.97586	-4.94121
21.53997	9.95389	-4.94121
21.54415	9.93192	-4.94121
21.54845	9.93192	-4.94121
21.55265	9.93192	-4.94121
21.55684	9.90994	-4.94121
21.56104	9.90994	-4.94121
21.56522	9.88797	-4.94121
21.56942	9.88797	-4.94121
21.57360	9.88797	-4.94121
21.57785	9.86600	-4.94121
21.58213	9.84403	-4.94121
21.58634	9.84403	-4.94121
21.59065	9.82205	-4.94121
21.59484	9.82205	-4.94121
21.59902	9.80008	-4.94121
21.60321	9.80008	-4.94121
21.60740	9.77811	-4.94121
21.61170	9.75614	-4.94121
21.61590	9.75614	-4.94121
21.62009	9.73416	-4.94121
21.62429	9.71219	-4.94121
21.62848	9.71219	-4.94121
21.63266	9.71219	-4.94121
21.63685	9.69022	-4.94121
21.64132	9.69022	-4.94121
21.64553	9.66825	-4.94121
21.64972	9.64627	-4.94121
21.65391	9.62430	-4.94121
21.65809	9.62430	-4.94121
21.66228	9.62430	-4.94121
21.66646	9.60233	-4.94121
21.67072	9.58036	-4.94121
21.67501	9.55838	-4.94121
21.67920	9.55838	-4.94121
21.68339	9.53641	-4.94121
21.68759	9.53641	-4.94121
21.69189	9.51444	-4.94121
21.69608	9.49246	-4.94121
21.70027	9.49246	-4.94121
21.70456	9.47049	-4.94121
21.70877	9.47049	-4.94121
21.71296	9.44852	-4.94121
21.71714	9.42655	-4.94121
21.72134	9.40457	-4.94121
21.72553	9.40457	-4.94121
21.72971	9.38260	-4.94121
21.73397	9.38260	-4.94121
21.73825	9.36063	-4.94121
21.74245	9.36063	-4.94121
21.74664	9.33866	-4.94121
21.75082	9.29471	-4.94121
21.75501	9.29471	-4.94121
21.75919	9.27274	-4.94121
21.76339	9.27274	-4.94121
21.76769	9.25077	-4.94121
21.77189	9.25077	-4.94121
21.77607	9.22879	-4.94121
21.78026	9.20682	-4.94121
21.78444	9.20682	-4.94121
21.78864	9.20682	-4.94121
21.79295	9.16287	-4.94121
21.79741	9.16287	-4.94121
21.80162	9.14090	-4.94121
21.80581	9.11893	-4.94121
21.81000	9.09696	-4.94121
21.81418	9.09696	-4.94121
21.81837	9.07498	-4.94121
21.82255	9.05301	-4.94121
21.82679	9.05301	-4.94121
21.83108	9.03104	-4.94121
21.83529	9.00907	-4.94121
21.83948	8.98709	-4.94121
21.84366	8.98709	-4.94121
21.84785	8.98709	-4.94121
21.85204	8.96512	-4.94121
21.85622	8.94315	-4.94121
21.86052	8.92118	-4.94121
21.86473	8.89920	-4.94121
21.86895	8.89920	-4.94121
21.87314	8.87723	-4.94121
21.87734	8.85526	-4.94121
21.88153	8.85526	-4.94121
21.88573	8.83328	-4.94121
21.89000	8.81131	-4.94121
21.89440	8.78934	-4.94121
21.89859	8.78934	-4.94121
21.90278	8.76737	-4.94121
21.90697	8.74539	-4.94121
21.91116	8.74539	-4.94121
21.91535	8.70145	-4.94121
21.91964	8.70145	-4.94121
21.92393	8.67948	-4.94121
21.92813	8.67948	-4.94121
21.93231	8.65750	-4.94121
21.93650	8.63553	-4.94121
21.94068	8.61356	-4.94121
21.94487	8.59159	-4.94121
21.94905	8.59159	-4.94121
21.95336	8.56961	-4.94121
21.95758	8.54764	-4.94121
21.96177	8.52567	-4.94121
21.96595	8.50369	-4.94121
21.97014	8.48172	-4.94121
21.97432	8.48172	-4.94121
21.97851	8.45975	-4.94121
21.98276	8.43778	-4.94121
21.98705	8.43778	-4.94121
21.99125	8.41580	-4.94121
21.99555	8.41580	-4.94121
21.99973	8.39383	-4.94121
22.00392	8.37186	-4.94121
22.00811	8.34989	-4.94121
22.01229	8.32791	-4.94121
22.01659	8.30594	-4.94121
22.02079	8.28397	-4.94121
22.02499	8.28397	-4.94121
22.02917	8.28397	-4.94121
22.03337	8.26200	-4.94121
22.03755	8.24002	-4.94121
22.04174	8.21805	-4.94121
22.04618	8.19608	-4.94121
22.05039	8.17411	-4.94121
22.05458	8.17411	-4.94121
22.05877	8.17411	-4.94121
22.06295	8.15213	-4.94121
22.06714	8.13016	-4.94121
22.07132	8.10819	-4.94121
22.07557	8.08621	-4.94121
22.07986	8.08621	-4.94121
22.08405	8.06424	-4.94121
22.08826	8.06424	-4.94121
22.09246	8.04227	-4.94121
22.09676	8.02030	-4.94121
22.10095	8.02030	-4.94121
22.10513	8.02030	-4.94121
22.10945	7.99832	-4.94121
22.11366	7.97635	-4.94121
22.11785	7.95438	-4.94121
22.12203	7.93241	-4.94121
22.12622	7.93241	-4.94121
22.13040	7.93241	-4.94121
22.13459	7.91043	-4.94121
22.13884	7.88846	-4.94121
22.14311	7.88846	-4.94121
22.14732	7.86649	-4.94121
22.15151	7.84452	-4.94121
22.15569	7.82254	-4.94121
22.15988	7.82254	-4.94121
22.16407	7.82254	-4.94121
22.16826	7.80057	-4.94121
22.17255	7.77860	-4.94121
22.17677	7.75662	-4.94121
22.18096	7.75662	-4.94121
22.18515	7.73465	-4.94121
22.18936	7.73465	-4.94121
22.19356	7.73465	-4.94121
22.19785	7.71268	-4.94121
22.20232	7.69071	-4.94121
22.20653	7.69071	-4.94121
22.21071	7.69071	-4.94121
22.21490	7.66873	-4.94121
22.21909	7.66873	-4.94121
22.22327	7.64676	-4.94121
22.22746	7.64676	-4.94121
22.23171	7.62479	-4.94121
22.23599	7.62479	-4.94121
22.24020	7.62479	-4.94121
22.24439	7.60282	-4.94121
22.24857	7.60282	-4.94121
22.25276	7.58084	-4.94121
22.25694	7.58084	-4.94121
22.26113	7.58084	-4.94121
22.26544	7.55887	-4.94121
22.26967	7.55887	-4.94121
22.27386	7.55887	-4.94121
22.27805	7.53690	-4.94121
22.28224	7.51493	-4.94121
22.28645	7.51493	-4.94121
22.29064	7.51493	-4.94121
22.29491	7.51493	-4.94121
22.29929	7.49295	-4.94121
22.30349	7.49295	-4.94121
22.30768	7.49295	-4.94121
22.31187	7.49295	-4.94121
22.31607	7.49295	-4.94121
22.32026	7.47098	-4.94121
22.32444	7.47098	-4.94121
22.32874	7.47098	-4.94121
22.33295	7.47098	-4.94121
22.33714	7.44901	-4.94121
22.34134	7.44901	-4.94121
22.34552	7.44901	-4.94121
22.34971	7.44901	-4.94121
22.35390	7.44901	-4.94121
22.35834	7.42703	-4.94121
22.36255	7.42703	-4.94121
22.36675	7.42703	-4.94121
22.37093	7.42703	-4.94121
22.37512	7.42703	-4.94121
22.37931	7.42703	-4.94121
22.38350	7.42703	-4.94121
22.38780	7.42703	-4.94121
22.39210	7.42703	-4.94121
22.39631	7.42703	-4.94121
22.40060	7.42703	-4.94121
22.40479	7.40506	-4.94121
22.40897	7.42703	-4.94121
22.41316	7.40506	-4.94121
22.41735	7.42703	-4.94121
22.42166	7.40506	-4.94121
22.42587	7.40506	-4.94121
22.43005	7.40506	-4.94121
22.43424	7.42703	-4.94121
22.43842	7.42703	-4.94121
22.44261	7.42703	-4.94121
22.44679	7.42703	-4.94121
22.45104	7.42703	-4.94121
22.45530	7.42703	-4.94121
22.45950	7.42703	-4.94121
22.46368	7.42703	-4.94121
22.46787	7.42703	-4.94121
22.47206	7.44901	-4.94121
22.47624	7.44901	-4.94121
22.48043	7.42703	-4.94121
22.48472	7.44901	-4.94121
22.48895	7.44901	-4.94121
22.49314	7.44901	-4.94121
22.49735	7.44901	-4.94121
22.50165	7.44901	-4.94121
22.50583	7.47098	-4.94121
22.51002	7.47098	-4.94121
22.51447	7.47098	-4.94121
22.51868	7.47098	-4.94121
22.52287	7.49295	-4.94121
22.52706	7.49295	-4.94121
22.53124	7.49295	-4.94121
22.53542	7.49295	-4.94121
22.53961	7.49295	-4.94121
22.54386	7.49295	-4.94121
22.54814	7.51493	-4.94121
22.55233	7.51493	-4.94121
22.55652	7.51493	-4.94121
22.56071	7.53690	-4.94121
22.56489	7.53690	-4.94121
22.56909	7.55887	-4.94121
22.57327	7.55887	-4.94121
22.57769	7.55887	-4.94121
22.58189	7.55887	-4.94121
22.58610	7.58084	-4.94121
22.59030	7.58084	-4.94121
22.59450	7.60282	-4.94121
22.59868	7.60282	-4.94121
22.60297	7.62479	-4.94121
22.60723	7.62479	-4.94121
22.61151	7.62479	-4.94121
22.61571	7.64676	-4.94121
22.61989	7.64676	-4.94121
22.62408	7.66873	-4.94121
22.62828	7.66873	-4.94121
22.63246	7.66873	-4.94121
22.63665	7.69071	-4.94121
22.64096	7.69071	-4.94121
22.64516	7.71268	-4.94121
22.64936	7.71268	-4.94121
22.65355	7.73465	-4.94121
22.65773	7.73465	-4.94121
22.66192	7.73465	-4.94121
22.66611	7.75662	-4.94121
22.67056	7.77860	-4.94121
22.67477	7.77860	-4.94121
22.67896	7.80057	-4.94121
22.68314	7.80057	-4.94121
22.68735	7.80057	-4.94121
22.69154	7.82254	-4.94121
22.69573	7.82254	-4.94121
22.69999	7.84452	-4.94121
22.70438	7.86649	-4.94121
22.70858	7.86649	-4.94121
22.71277	7.88846	-4.94121
22.71696	7.88846	-4.94121
22.72114	7.88846	-4.94121
22.72534	7.91043	-4.94121
22.72952	7.93241	-4.94121
22.73382	7.93241	-4.94121
22.73802	7.93241	-4.94121
22.74221	7.95438	-4.94121
22.74640	7.97635	-4.94121
22.75059	7.99832	-4.94121
22.75477	7.99832	-4.94121
22.75895	8.02030	-4.94121
22.76321	8.02030	-4.94121
22.76748	8.04227	-4.94121
22.77168	8.04227	-4.94121
22.77587	8.06424	-4.94121
22.78006	8.06424	-4.94121
22.78424	8.08621	-4.94121
22.78845	8.10819	-4.94121
22.79264	8.10819	-4.94121
22.79695	8.10819	-4.94121
22.80116	8.13016	-4.94121
22.80547	8.15213	-4.94121
22.80966	8.15213	-4.94121
22.81385	8.15213	-4.94121
22.81803	8.19608	-4.94121
22.82222	8.19608	-4.94121
22.82667	8.21805	-4.94121
22.83088	8.21805	-4.94121
22.83507	8.21805	-4.94121
22.83926	8.24002	-4.94121
22.84344	8.24002	-4.94121
22.84764	8.26200	-4.94121
22.85183	8.26200	-4.94121
22.85608	8.28397	-4.94121
22.86037	8.30594	-4.94121
22.86457	8.30594	-4.94121
22.86875	8.32791	-4.94121
22.87294	8.32791	-4.94121
22.87713	8.32791	-4.94121
22.88132	8.34989	-4.94121
22.88551	8.37186	-4.94121
22.88983	8.37186	-4.94121
22.89405	8.39383	-4.94121
22.89824	8.39383	-4.94121
22.90242	8.39383	-4.94121
22.90671	8.41580	-4.94121
22.91090	8.41580	-4.94121
22.91510	8.43778	-4.94121
22.91957	8.45975	-4.94121
22.92378	8.45975	-4.94121
22.92797	8.45975	-4.94121
22.93216	8.48172	-4.94121
22.93634	8.48172	-4.94121
22.94053	8.50369	-4.94121
22.94471	8.50369	-4.94121
22.94897	8.52567	-4.94121
22.95326	8.52567	-4.94121
22.95747	8.52567	-4.94121
22.96166	8.54764	-4.94121
22.96585	8.54764	-4.94121
22.97005	8.56961	-4.94121
22.97425	8.56961	-4.94121
22.97848	8.56961	-4.94121
22.98281	8.59159	-4.94121
22.98704	8.59159	-4.94121
22.99124	8.61356	-4.94121
22.99544	8.61356	-4.94121
22.99964	8.63553	-4.94121
23.00383	8.63553	-4.94121
23.00812	8.63553	-4.94121
23.01259	8.63553	-4.94121
23.01680	8.65750	-4.94121
23.02099	8.65750	-4.94121
23.02518	8.67948	-4.94121
23.02937	8.67948	-4.94121
23.03356	8.67948	-4.94121
23.03775	8.67948	-4.94121
23.04201	8.70145	-4.94121
23.04632	8.67948	-4.94121
23.05052	8.70145	-4.94121
23.05471	8.70145	-4.94121
23.05890	8.70145	-4.94121
23.06309	8.72342	-4.94121
23.06728	8.72342	-4.94121
23.07147	8.72342	-4.94121
23.07578	8.72342	-4.94121
23.07998	8.74539	-4.94121
23.08417	8.74539	-4.94121
23.08838	8.74539	-4.94121
23.09258	8.74539	-4.94121
23.09679	8.74539	-4.94121
23.10098	8.74539	-4.94121
23.10524	8.74539	-4.94121
23.10963	8.74539	-4.94121
23.11383	8.76737	-4.94121
23.11802	8.76737	-4.94121
23.12220	8.76737	-4.94121
23.12639	8.76737	-4.94121
23.13057	8.76737	-4.94121
23.13476	8.76737	-4.94121
23.13905	8.76737	-4.94121
23.14325	8.76737	-4.94121
23.14744	8.76737	-4.94121
23.15162	8.76737	-4.94121
23.15581	8.76737	-4.94121
23.16000	8.76737	-4.94121
23.16418	8.76737	-4.94121
23.16843	8.76737	-4.94121
23.17271	8.76737	-4.94121
23.17690	8.76737	-4.94121
23.18109	8.76737	-4.94121
23.18528	8.76737	-4.94121
23.18946	8.76737	-4.94121
23.19366	8.76737	-4.94121
23.19785	8.76737	-4.94121
23.20216	8.76737	-4.94121
23.20637	8.76737	-4.94121
23.21067	8.76737	-4.94121
23.21485	8.76737	-4.94121
23.21904	8.76737	-4.94121
23.22322	8.76737	-4.94121
23.22741	8.76737	-4.94121
23.23184	8.76737	-4.94121
23.23605	8.74539	-4.94121
23.24024	8.74539	-4.94121
23.24443	8.74539	-4.94121
23.24861	8.74539	-4.94121
23.25280	8.74539	-4.94121
23.25698	8.74539	-4.94121
23.26122	8.74539	-4.94121
23.26552	8.74539	-4.94121
23.26972	8.74539	-4.94121
23.27391	8.72342	-4.94121
23.27810	8.72342	-4.94121
23.28229	8.72342	-4.94121
23.28648	8.72342	-4.94121
23.29068	8.72342	-4.94121
23.29499	8.72342	-4.94121
23.29920	8.72342	-4.94121
23.30340	8.70145	-4.94121
23.30760	8.70145	-4.94121
23.31189	8.70145	-4.94121
23.31608	8.70145	-4.94121
23.32026	8.70145	-4.94121
23.32452	8.70145	-4.94121
23.32880	8.70145	-4.94121
23.33300	8.67948	-4.94121
23.33719	8.67948	-4.94121
23.34138	8.67948	-4.94121
23.34557	8.67948	-4.94121
23.34976	8.67948	-4.94121
23.35394	8.67948	-4.94121
23.35825	8.67948	-4.94121
23.36245	8.67948	-4.94121
23.36664	8.65750	-4.94121
23.37082	8.65750	-4.94121
23.37501	8.65750	-4.94121
23.37919	8.65750	-4.94121
23.38338	8.65750	-4.94121
23.38765	8.65750	-4.94121
23.39193	8.65750	-4.94121
23.39613	8.63553	-4.94121
23.40032	8.63553	-4.94121
23.40450	8.63553	-4.94121
23.40869	8.63553	-4.94121
23.41298	8.63553	-4.94121
23.41716	8.63553	-4.94121
23.42148	8.63553	-4.94121
23.42568	8.63553	-4.94121
23.42987	8.63553	-4.94121
23.43405	8.61356	-4.94121
23.43824	8.61356	-4.94121
23.44243	8.61356	-4.94121
23.44661	8.61356	-4.94121
23.45086	8.59159	-4.94121
23.45512	8.59159	-4.94121
23.45932	8.59159	-4.94121
23.46350	8.59159	-4.94121
23.46769	8.59159	-4.94121
23.47192	8.59159	-4.94121
23.47612	8.56961	-4.94121
23.48031	8.56961	-4.94121
23.48462	8.59159	-4.94121
23.48885	8.56961	-4.94121
23.49305	8.56961	-4.94121
23.49725	8.56961	-4.94121
23.50145	8.56961	-4.94121
23.50564	8.56961	-4.94121
23.50982	8.56961	-4.94121
23.51440	8.56961	-4.94121
23.51861	8.56961	-4.94121
23.52280	8.56961	-4.94121
23.52698	8.54764	-4.94121
23.53117	8.54764	-4.94121
23.53535	8.54764	-4.94121
23.53954	8.54764	-4.94121
23.54379	8.54764	-4.94121
23.54807	8.54764	-4.94121
23.55226	8.54764	-4.94121
23.55645	8.54764	-4.94121
23.56064	8.54764	-4.94121
23.56482	8.54764	-4.94121
23.56901	8.54764	-4.94121
23.57320	8.54764	-4.94121
23.57752	8.52567	-4.94121
23.58172	8.52567	-4.94121
23.58591	8.52567	-4.94121
23.59012	8.52567	-4.94121
23.59432	8.52567	-4.94121
23.59851	8.52567	-4.94121
23.60270	8.52567	-4.94121
23.60716	8.52567	-4.94121
23.61136	8.52567	-4.94121
23.61566	8.52567	-4.94121
23.61984	8.52567	-4.94121
23.62403	8.52567	-4.94121
23.62821	8.50369	-4.94121
23.63240	8.52567	-4.94121
23.63665	8.52567	-4.94121
23.64093	8.52567	-4.94121
23.64513	8.52567	-4.94121
23.64933	8.52567	-4.94121
23.65352	8.52567	-4.94121
23.65770	8.52567	-4.94121
23.66189	8.52567	-4.94121
23.66608	8.52567	-4.94121
23.67039	8.52567	-4.94121
23.67460	8.52567	-4.94121
23.67879	8.52567	-4.94121
23.68298	8.52567	-4.94121
23.68717	8.52567	-4.94121
23.69138	8.52567	-4.94121
23.69558	8.52567	-4.94121
23.69985	8.52567	-4.94121
23.70412	8.52567	-4.94121
23.70833	8.52567	-4.94121
23.71251	8.54764	-4.94121
23.71681	8.54764	-4.94121
23.72099	8.54764	-4.94121
23.72518	8.54764	-4.94121
23.72945	8.54764	-4.94121
23.73374	8.54764	-4.94121
23.73794	8.54764	-4.94121
23.74213	8.56961	-4.94121
23.74632	8.56961	-4.94121
23.75050	8.56961	-4.94121
23.75469	8.56961	-4.94121
23.75888	8.56961	-4.94121
23.76320	8.56961	-4.94121
23.76741	8.59159	-4.94121
23.77161	8.59159	-4.94121
23.77581	8.59159	-4.94121
23.78001	8.59159	-4.94121
23.78419	8.59159	-4.94121
23.78840	8.61356	-4.94121
23.79266	8.61356	-4.94121
23.79695	8.61356	-4.94121
23.80115	8.61356	-4.94121
23.80535	8.63553	-4.94121
23.80953	8.63553	-4.94121
23.81372	8.63553	-4.94121
23.81801	8.63553	-4.94121
23.82219	8.63553	-4.94121
23.82649	8.65750	-4.94121
23.83070	8.65750	-4.94121
23.83489	8.65750	-4.94121
23.83907	8.67948	-4.94121
23.84326	8.67948	-4.94121
23.84744	8.67948	-4.94121
23.85163	8.67948	-4.94121
23.85589	8.70145	-4.94121
23.86015	8.70145	-4.94121
23.86435	8.70145	-4.94121
23.86854	8.72342	-4.94121
23.87272	8.72342	-4.94121
23.87692	8.72342	-4.94121
23.88110	8.74539	-4.94121
23.88529	8.74539	-4.94121
23.88958	8.74539	-4.94121
23.89380	8.76737	-4.94121
23.89799	8.76737	-4.94121
23.90217	8.76737	-4.94121
23.90636	8.76737	-4.94121
23.91058	8.78934	-4.94121
23.91478	8.78934	-4.94121
23.91938	8.81131	-4.94121
23.92359	8.81131	-4.94121
23.92779	8.81131	-4.94121
23.93197	8.81131	-4.94121
23.93616	8.83328	-4.94121
23.94034	8.83328	-4.94121
23.94453	8.83328	-4.94121
23.94878	8.85526	-4.94121
23.95307	8.85526	-4.94121
23.95727	8.85526	-4.94121
23.96145	8.87723	-4.94121
23.96564	8.87723	-4.94121
23.96983	8.89920	-4.94121
23.97402	8.89920	-4.94121
23.97820	8.89920	-4.94121
23.98251	8.92118	-4.94121
23.98672	8.92118	-4.94121
23.99093	8.92118	-4.94121
23.99512	8.94315	-4.94121
23.99931	8.94315	-4.94121
24.00350	8.94315	-4.94121
24.00768	8.94315	-4.94121
24.01214	8.96512	-4.94121
24.01635	8.96512	-4.94121
24.02064	8.98709	-4.94121
24.02483	8.98709	-4.94121
24.02901	9.00907	-4.94121
24.03320	9.00907	-4.94121
24.03740	9.00907	-4.94121
24.04165	9.03104	-4.94121
24.04593	9.03104	-4.94121
24.05012	9.05301	-4.94121
24.05431	9.05301	-4.94121
24.05850	9.05301	-4.94121
24.06269	9.05301	-4.94121
24.06687	9.07498	-4.94121
24.07106	9.07498	-4.94121
24.07536	9.07498	-4.94121
24.07956	9.09696	-4.94121
24.08375	9.09696	-4.94121
24.08797	9.09696	-4.94121
24.09217	9.11893	-4.94121
24.09637	9.11893	-4.94121
24.10056	9.14090	-4.94121
24.10503	9.14090	-4.94121
24.10924	9.14090	-4.94121
24.11344	9.16287	-4.94121
24.11763	9.16287	-4.94121
24.12193	9.16287	-4.94121
24.12611	9.16287	-4.94121
24.13030	9.18485	-4.94121
24.13456	9.18485	-4.94121
24.13884	9.18485	-4.94121
24.14304	9.20682	-4.94121
24.14723	9.20682	-4.94121
24.15142	9.20682	-4.94121
24.15560	9.20682	-4.94121
24.15978	9.22879	-4.94121
24.16397	9.22879	-4.94121
24.16827	9.22879	-4.94121
24.17248	9.25077	-4.94121
24.17667	9.25077	-4.94121
24.18087	9.25077	-4.94121
24.18505	9.25077	-4.94121
24.18926	9.27274	-4.94121
24.19345	9.27274	-4.94121
24.19792	9.27274	-4.94121
24.20214	9.27274	-4.94121
24.20633	9.29471	-4.94121
24.21053	9.29471	-4.94121
24.21472	9.29471	-4.94121
24.21890	9.29471	-4.94121
24.22319	9.29471	-4.94121
24.22745	9.29471	-4.94121
24.23172	9.31668	-4.94121
24.23592	9.31668	-4.94121
24.24011	9.31668	-4.94121
24.24429	9.31668	-4.94121
24.24848	9.31668	-4.94121
24.25267	9.31668	-4.94121
24.25685	9.33866	-4.94121
24.26115	9.33866	-4.94121
24.26536	9.33866	-4.94121
24.26955	9.33866	-4.94121
24.27374	9.33866	-4.94121
24.27792	9.33866	-4.94121
24.28212	9.33866	-4.94121
24.28631	9.33866	-4.94121
24.29059	9.36063	-4.94121
24.29487	9.36063	-4.94121
24.29907	9.36063	-4.94121
24.30326	9.33866	-4.94121
24.30745	9.36063	-4.94121
24.31163	9.36063	-4.94121
24.31582	9.36063	-4.94121
24.32000	9.36063	-4.94121
24.32441	9.36063	-4.94121
24.32861	9.36063	-4.94121
24.33280	9.36063	-4.94121
24.33699	9.36063	-4.94121
24.34117	9.36063	-4.94121
24.34537	9.36063	-4.94121
24.34955	9.36063	-4.94121
24.35401	9.36063	-4.94121
24.35823	9.36063	-4.94121
24.36241	9.36063	-4.94121
24.36660	9.36063	-4.94121
24.37078	9.36063	-4.94121
24.37497	9.36063	-4.94121
24.37915	9.36063	-4.94121
24.38341	9.36063	-4.94121
24.38769	9.36063	-4.94121
24.39191	9.36063	-4.94121
24.39611	9.36063	-4.94121
24.40030	9.36063	-4.94121
24.40449	9.36063	-4.94121
24.40869	9.36063	-4.94121
24.41290	9.36063	-4.94121
24.41724	9.36063	-4.94121
24.42147	9.36063	-4.94121
24.42578	9.36063	-4.94121
24.42998	9.36063	-4.94121
24.43417	9.36063	-4.94121
24.43837	9.36063	-4.94121
24.44256	9.36063	-4.94121
24.44701	9.36063	-4.94121
24.45122	9.36063	-4.94121
24.45542	9.33866	-4.94121
24.45961	9.33866	-4.94121
24.46380	9.33866	-4.94121
24.46799	9.33866	-4.94121
24.47219	9.33866	-4.94121
24.47647	9.33866	-4.94121
24.48076	9.33866	-4.94121
24.48496	9.33866	-4.94121
24.48916	9.33866	-4.94121
24.49337	9.33866	-4.94121
24.49756	9.33866	-4.94121
24.50175	9.33866	-4.94121
24.50602	9.31668	-4.94121
24.51031	9.31668	-4.94121
24.51451	9.31668	-4.94121
24.51870	9.31668	-4.94121
24.52288	9.31668	-4.94121
24.52717	9.31668	-4.94121
24.53136	9.31668	-4.94121
24.53554	9.31668	-4.94121
24.53985	9.31668	-4.94121
24.54405	9.29471	-4.94121
24.54824	9.31668	-4.94121
24.55242	9.29471	-4.94121
24.55661	9.29471	-4.94121
24.56079	9.29471	-4.94121
24.56498	9.29471	-4.94121
24.56923	9.29471	-4.94121
24.57352	9.29471	-4.94121
24.57772	9.29471	-4.94121
24.58192	9.27274	-4.94121
24.58610	9.29471	-4.94121
24.59031	9.29471	-4.94121
24.59449	9.27274	-4.94121
24.59869	9.27274	-4.94121
24.60299	9.27274	-4.94121
24.60720	9.25077	-4.94121
24.61139	9.25077	-4.94121
24.61558	9.25077	-4.94121
24.61976	9.25077	-4.94121
24.62395	9.25077	-4.94121
24.62824	9.25077	-4.94121
24.63269	9.22879	-4.94121
24.63690	9.22879	-4.94121
24.64109	9.22879	-4.94121
24.64527	9.22879	-4.94121
24.64944	9.22879	-4.94121
24.65363	9.22879	-4.94121
24.65781	9.20682	-4.94121
24.66207	9.20682	-4.94121
24.66635	9.20682	-4.94121
24.67054	9.20682	-4.94121
24.67473	9.20682	-4.94121
24.67892	9.20682	-4.94121
24.68311	9.18485	-4.94121
24.68730	9.18485	-4.94121
24.69150	9.18485	-4.94121
24.69581	9.16287	-4.94121
24.70001	9.16287	-4.94121
24.70420	9.16287	-4.94121
24.70839	9.16287	-4.94121
24.71258	9.16287	-4.94121
24.71676	9.14090	-4.94121
24.72095	9.14090	-4.94121
24.72520	9.14090	-4.94121
24.72959	9.11893	-4.94121
24.73378	9.11893	-4.94121
24.73796	9.09696	-4.94121
24.74215	9.09696	-4.94121
24.74634	9.09696	-4.94121
24.75052	9.07498	-4.94121
24.75471	9.07498	-4.94121
24.75901	9.07498	-4.94121
24.76321	9.05301	-4.94121
24.76739	9.05301	-4.94121
24.77158	9.05301	-4.94121
24.77576	9.05301	-4.94121
24.77995	9.03104	-4.94121
24.78414	9.03104	-4.94121
24.78839	9.00907	-4.94121
24.79269	9.00907	-4.94121
24.79689	8.98709	-4.94121
24.80108	8.98709	-4.94121
24.80527	8.98709	-4.94121
24.80944	8.96512	-4.94121
24.81363	8.96512	-4.94121
24.81781	8.94315	-4.94121
24.82212	8.94315	-4.94121
24.82632	8.92118	-4.94121
24.83061	8.92118	-4.94121
24.83479	8.92118	-4.94121
24.83898	8.92118	-4.94121
24.84316	8.89920	-4.94121
24.84735	8.89920	-4.94121
24.85178	8.87723	-4.94121
24.85599	8.87723	-4.94121
24.86018	8.87723	-4.94121
24.86437	8.85526	-4.94121
24.86855	8.85526	-4.94121
24.87274	8.83328	-4.94121
24.87692	8.83328	-4.94121
24.88117	8.83328	-4.94121
24.88547	8.81131	-4.94121
24.88970	8.81131	-4.94121
24.89390	8.78934	-4.94121
24.89809	8.78934	-4.94121
24.90227	8.76737	-4.94121
24.90646	8.76737	-4.94121
24.91065	8.76737	-4.94121
24.91496	8.74539	-4.94121
24.91917	8.74539	-4.94121
24.92336	8.72342	-4.94121
24.92755	8.72342	-4.94121
24.93184	8.70145	-4.94121
24.93603	8.70145	-4.94121
24.94021	8.70145	-4.94121
24.94447	8.67948	-4.94121
24.94875	8.65750	-4.94121
24.95295	8.65750	-4.94121
24.95714	8.65750	-4.94121
24.96134	8.63553	-4.94121
24.96553	8.63553	-4.94121
24.96972	8.63553	-4.94121
24.97390	8.61356	-4.94121
24.97821	8.59159	-4.94121
24.98241	8.59159	-4.94121
24.98660	8.59159	-4.94121
24.99080	8.56961	-4.94121
24.99500	8.56961	-4.94121
24.99920	8.54764	-4.94121
25.00338	8.54764	-4.94121
25.00785	8.52567	-4.94121
25.01206	8.52567	-4.94121
25.01625	8.52567	-4.94121
25.02044	8.50369	-4.94121
25.02463	8.50369	-4.94121
25.02881	8.48172	-4.94121
25.03312	8.48172	-4.94121
25.03740	8.45975	-4.94121
25.04167	8.45975	-4.94121
25.04587	8.43778	-4.94121
25.05006	8.43778	-4.94121
25.05424	8.41580	-4.94121
25.05843	8.39383	-4.94121
25.06262	8.39383	-4.94121
25.06680	8.39383	-4.94121
25.07110	8.37186	-4.94121
25.07531	8.37186	-4.94121
25.07950	8.37186	-4.94121
25.08368	8.34989	-4.94121
25.08787	8.34989	-4.94121
25.09207	8.34989	-4.94121
25.09627	8.32791	-4.94121
25.10073	8.30594	-4.94121
25.10495	8.30594	-4.94121
25.10914	8.30594	-4.94121
25.11334	8.28397	-4.94121
25.11753	8.28397	-4.94121
25.12171	8.28397	-4.94121
25.12590	8.26200	-4.94121
25.13016	8.26200	-4.94121
25.13455	8.24002	-4.94121
25.13875	8.24002	-4.94121
25.14293	8.21805	-4.94121
25.14712	8.21805	-4.94121
25.15130	8.21805	-4.94121
25.15549	8.19608	-4.94121
25.15967	8.19608	-4.94121
25.16397	8.17411	-4.94121
25.16818	8.17411	-4.94121
25.17236	8.17411	-4.94121
25.17655	8.17411	-4.94121
25.18075	8.15213	-4.94121
25.18494	8.15213	-4.94121
25.18913	8.13016	-4.94121
25.19342	8.10819	-4.94121
25.19770	8.10819	-4.94121
25.20190	8.10819	-4.94121
25.20609	8.10819	-4.94121
25.21028	8.10819	-4.94121
25.21447	8.08621	-4.94121
25.21865	8.06424	-4.94121
25.22284	8.06424	-4.94121
25.22713	8.06424	-4.94121
25.23133	8.06424	-4.94121
25.23562	8.04227	-4.94121
25.23981	8.04227	-4.94121
25.24400	8.02030	-4.94121
25.24818	8.02030	-4.94121
25.25237	7.99832	-4.94121
25.25679	7.99832	-4.94121
25.26100	7.99832	-4.94121
25.26519	7.99832	-4.94121
25.26938	7.97635	-4.94121
25.27357	7.95438	-4.94121
25.27775	7.95438	-4.94121
25.28194	7.95438	-4.94121
25.28624	7.95438	-4.94121
25.29054	7.93241	-4.94121
25.29474	7.93241	-4.94121
25.29893	7.91043	-4.94121
25.30311	7.91043	-4.94121
25.30730	7.91043	-4.94121
25.31149	7.88846	-4.94121
25.31567	7.88846	-4.94121
25.31998	7.86649	-4.94121
25.32419	7.86649	-4.94121
25.32838	7.86649	-4.94121
25.33257	7.86649	-4.94121
25.33686	7.84452	-4.94121
25.34104	7.84452	-4.94121
25.34523	7.82254	-4.94121
25.34949	7.82254	-4.94121
25.35376	7.80057	-4.94121
25.35796	7.80057	-4.94121
25.36215	7.80057	-4.94121
25.36633	7.77860	-4.94121
25.37052	7.77860	-4.94121
25.37470	7.77860	-4.94121
25.37889	7.75662	-4.94121
25.38319	7.75662	-4.94121
25.38739	7.75662	-4.94121
25.39158	7.73465	-4.94121
25.39577	7.73465	-4.94121
25.39995	7.71268	-4.94121
25.40414	7.71268	-4.94121
25.40833	7.71268	-4.94121
25.41258	7.69071	-4.94121
25.41685	7.69071	-4.94121
25.42104	7.69071	-4.94121
25.42523	7.66873	-4.94121
25.42942	7.66873	-4.94121
25.43361	7.64676	-4.94121
25.43789	7.64676	-4.94121
25.44208	7.64676	-4.94121
25.44638	7.64676	-4.94121
25.45058	7.62479	-4.94121
25.45477	7.62479	-4.94121
25.45896	7.62479	-4.94121
25.46314	7.60282	-4.94121
25.46733	7.60282	-4.94121
25.47152	7.58084	-4.94121
25.47579	7.58084	-4.94121
25.48005	7.58084	-4.94121
25.48425	7.55887	-4.94121
25.48844	7.55887	-4.94121
25.49264	7.55887	-4.94121
25.49683	7.55887	-4.94121
25.50101	7.53690	-4.94121
25.50520	7.53690	-4.94121
25.50952	7.51493	-4.94121
25.51372	7.51493	-4.94121
25.51791	7.51493	-4.94121
25.52210	7.51493	-4.94121
25.52628	7.49295	-4.94121
25.53047	7.49295	-4.94121
25.53465	7.47098	-4.94121
25.53901	7.47098	-4.94121
25.54328	7.47098	-4.94121
25.54748	7.47098	-4.94121
25.55167	7.44901	-4.94121
25.55586	7.44901	-4.94121
25.56006	7.42703	-4.94121
25.56425	7.42703	-4.94121
25.56844	7.42703	-4.94121
25.57275	7.42703	-4.94121
25.57696	7.40506	-4.94121
25.58115	7.40506	-4.94121
25.58535	7.40506	-4.94121
25.58955	7.40506	-4.94121
25.59375	7.38309	-4.94121
25.59794	7.38309	-4.94121
25.60239	7.36112	-4.94121
25.60661	7.36112	-4.94121
25.61080	7.36112	-4.94121
25.61500	7.33914	-4.94121
25.61919	7.33914	-4.94121
25.62338	7.33914	-4.94121
25.62757	7.31717	-4.94121
25.63185	7.31717	-4.94121
25.63614	7.31717	-4.94121
25.64046	7.29520	-4.94121
25.64466	7.29520	-4.94121
25.64885	7.29520	-4.94121
25.65304	7.29520	-4.94121
25.65723	7.27323	-4.94121
25.66143	7.27323	-4.94121
25.66574	7.25125	-4.94121
25.66994	7.25125	-4.94121
25.67414	7.25125	-4.94121
25.67833	7.25125	-4.94121
25.68252	7.22928	-4.94121
25.68671	7.22928	-4.94121
25.69090	7.22928	-4.94121
25.69533	7.20731	-4.94121
25.69954	7.20731	-4.94121
25.70373	7.20731	-4.94121
25.70793	7.18534	-4.94121
25.71212	7.18534	-4.94121
25.71631	7.18534	-4.94121
25.72050	7.16336	-4.94121
25.72476	7.16336	-4.94121
25.72905	7.16336	-4.94121
25.73326	7.16336	-4.94121
25.73745	7.14139	-4.94121
25.74175	7.14139	-4.94121
25.74594	7.14139	-4.94121
25.75013	7.11942	-4.94121
25.75432	7.11942	-4.94121
25.75864	7.11942	-4.94121
25.76285	7.11942	-4.94121
25.76704	7.11942	-4.94121
25.77123	7.09744	-4.94121
25.77542	7.09744	-4.94121
25.77962	7.09744	-4.94121
25.78381	7.09744	-4.94121
25.78824	7.09744	-4.94121
25.79245	7.07547	-4.94121
25.79665	7.07547	-4.94121
25.80084	7.07547	-4.94121
25.80503	7.07547	-4.94121
25.80922	7.05350	-4.94121
25.81342	7.05350	-4.94121
25.81769	7.05350	-4.94121
25.82199	7.05350	-4.94121
25.82619	7.03153	-4.94121
25.83039	7.03153	-4.94121
25.83458	7.03153	-4.94121
25.83877	7.03153	-4.94121
25.84307	7.03153	-4.94121
25.84726	7.03153	-4.94121
25.85156	7.03153	-4.94121
25.85578	7.00955	-4.94121
25.85997	7.00955	-4.94121
25.86416	7.00955	-4.94121
25.86835	7.00955	-4.94121
25.87254	7.00955	-4.94121
25.87673	7.00955	-4.94121
25.88116	7.00955	-4.94121
25.88539	7.00955	-4.94121
25.88958	7.00955	-4.94121
25.89378	7.00955	-4.94121
25.89797	7.00955	-4.94121
25.90215	7.00955	-4.94121
25.90635	7.00955	-4.94121
25.91065	7.00955	-4.94121
25.91493	7.00955	-4.94121
25.91914	7.00955	-4.94121
25.92334	7.00955	-4.94121
25.92753	7.00955	-4.94121
25.93173	7.00955	-4.94121
25.93592	7.00955	-4.94121
25.94011	7.00955	-4.94121
25.94454	7.00955	-4.94121
25.94874	6.98758	-4.94121
25.95293	7.00955	-4.94121
25.95713	7.00955	-4.94121
25.96133	6.98758	-4.94121
25.96553	6.98758	-4.94121
25.96972	7.00955	-4.94121
25.97415	7.00955	-4.94121
25.97836	7.00955	-4.94121
25.98256	7.00955	-4.94121
25.98675	7.00955	-4.94121
25.99094	7.00955	-4.94121
25.99514	7.00955	-4.94121
25.99933	7.00955	-4.94121
26.00361	7.00955	-4.94121
26.00791	7.00955	-4.94121
26.01211	7.00955	-4.94121
26.01630	7.00955	-4.94121
26.02049	7.00955	-4.94121
26.02469	7.00955	-4.94121
26.02888	7.00955	-4.94121
26.03307	7.03153	-4.94121
26.03739	7.03153	-4.94121
26.04161	7.03153	-4.94121
26.04592	7.03153	-4.94121
26.05011	7.03153	-4.94121
26.05431	7.03153	-4.94121
26.05850	7.03153	-4.94121
26.06269	7.03153	-4.94121
26.06714	7.03153	-4.94121
26.07135	7.03153	-4.94121
26.07555	7.05350	-4.94121
26.07974	7.05350	-4.94121
26.08393	7.05350	-4.94121
26.08812	7.05350	-4.94121
26.09231	7.05350	-4.94121
26.09658	7.05350	-4.94121
26.10087	7.05350	-4.94121
26.10508	7.05350	-4.94121
26.10927	7.05350	-4.94121
26.11344	7.07547	-4.94121
26.11763	7.07547	-4.94121
26.12182	7.07547	-4.94121
26.12601	7.07547	-4.94121
26.13032	7.07547	-4.94121
26.13452	7.07547	-4.94121
26.13872	7.09744	-4.94121
26.14291	7.09744	-4.94121
26.14721	7.09744	-4.94121
26.15140	7.09744	-4.94121
26.15559	7.09744	-4.94121
26.16002	7.09744	-4.94121
26.16423	7.11942	-4.94121
26.16842	7.11942	-4.94121
26.17261	7.11942	-4.94121
26.17680	7.11942	-4.94121
26.18099	7.11942	-4.94121
26.18518	7.11942	-4.94121
26.18947	7.14139	-4.94121
26.19376	7.14139	-4.94121
26.19797	7.14139	-4.94121
26.20216	7.14139	-4.94121
26.20635	7.14139	-4.94121
26.21054	7.14139	-4.94121
26.21473	7.14139	-4.94121
26.21892	7.16336	-4.94121
26.22323	7.16336	-4.94121
26.22744	7.16336	-4.94121
26.23163	7.16336	-4.94121
26.23582	7.16336	-4.94121
26.24001	7.16336	-4.94121
26.24420	7.18534	-4.94121
26.24850	7.18534	-4.94121
26.25277	7.18534	-4.94121
26.25704	7.18534	-4.94121
26.26124	7.18534	-4.94121
26.26544	7.20731	-4.94121
26.26963	7.20731	-4.94121
26.27383	7.20731	-4.94121
26.27802	7.20731	-4.94121
26.28222	7.22928	-4.94121
26.28653	7.22928	-4.94121
26.29075	7.22928	-4.94121
26.29495	7.22928	-4.94121
26.29915	7.22928	-4.94121
26.30334	7.25125	-4.94121
26.30753	7.25125	-4.94121
26.31172	7.25125	-4.94121
26.31616	7.25125	-4.94121
26.32037	7.25125	-4.94121
26.32456	7.25125	-4.94121
26.32876	7.27323	-4.94121
26.33295	7.27323	-4.94121
26.33714	7.27323	-4.94121
26.34134	7.27323	-4.94121
26.34562	7.27323	-4.94121
26.35003	7.29520	-4.94121
26.35424	7.29520	-4.94121
26.35844	7.29520	-4.94121
26.36263	7.31717	-4.94121
26.36682	7.31717	-4.94121
26.37101	7.31717	-4.94121
26.37520	7.31717	-4.94121
26.37950	7.31717	-4.94121
26.38371	7.31717	-4.94121
26.38790	7.33914	-4.94121
26.39209	7.33914	-4.94121
26.39629	7.36112	-4.94121
26.40049	7.33914	-4.94121
26.40468	7.36112	-4.94121
26.40911	7.36112	-4.94121
26.41333	7.38309	-4.94121
26.41753	7.38309	-4.94121
26.42172	7.38309	-4.94121
26.42591	7.38309	-4.94121
26.43010	7.40506	-4.94121
26.43429	7.40506	-4.94121
26.43856	7.40506	-4.94121
26.44285	7.40506	-4.94121
26.44706	7.42703	-4.94121
26.45136	7.42703	-4.94121
26.45555	7.42703	-4.94121
26.45975	7.44901	-4.94121
26.46394	7.44901	-4.94121
26.46813	7.44901	-4.94121
26.47244	7.44901	-4.94121
26.47666	7.47098	-4.94121
26.48085	7.47098	-4.94121
26.48504	7.49295	-4.94121
26.48923	7.49295	-4.94121
26.49344	7.49295	-4.94121
26.49763	7.51493	-4.94121
26.50210	7.51493	-4.94121
26.50632	7.51493	-4.94121
26.51051	7.53690	-4.94121
26.51470	7.53690	-4.94121
26.51889	7.55887	-4.94121
26.52308	7.55887	-4.94121
26.52728	7.55887	-4.94121
26.53154	7.58084	-4.94121
26.53581	7.58084	-4.94121
26.54002	7.58084	-4.94121
26.54421	7.60282	-4.94121
26.54840	7.62479	-4.94121
26.55271	7.62479	-4.94121
26.55690	7.62479	-4.94121
26.56116	7.62479	-4.94121
26.56547	7.64676	-4.94121
26.56968	7.64676	-4.94121
26.57388	7.66873	-4.94121
26.57807	7.66873	-4.94121
26.58226	7.69071	-4.94121
26.58645	7.69071	-4.94121
26.59064	7.71268	-4.94121
26.59495	7.71268	-4.94121
26.59916	7.73465	-4.94121
26.60336	7.73465	-4.94121
26.60755	7.75662	-4.94121
26.61174	7.75662	-4.94121
26.61593	7.75662	-4.94121
26.62013	7.77860	-4.94121
26.62440	7.80057	-4.94121
26.62867	7.80057	-4.94121
26.63287	7.80057	-4.94121
26.63706	7.82254	-4.94121
26.64125	7.82254	-4.94121
26.64545	7.84452	-4.94121
26.64964	7.84452	-4.94121
26.65395	7.84452	-4.94121
26.65826	7.86649	-4.94121
26.66247	7.86649	-4.94121
26.66666	7.88846	-4.94121
26.67085	7.91043	-4.94121
26.67504	7.91043	-4.94121
26.67923	7.93241	-4.94121
26.68343	7.93241	-4.94121
26.68785	7.95438	-4.94121
26.69207	7.93241	-4.94121
26.69626	7.95438	-4.94121
26.70045	7.97635	-4.94121
26.70464	7.97635	-4.94121
26.70883	7.99832	-4.94121
26.71302	7.99832	-4.94121
26.71729	7.99832	-4.94121
26.72155	8.02030	-4.94121
26.72575	8.02030	-4.94121
26.72993	8.04227	-4.94121
26.73412	8.06424	-4.94121
26.73830	8.06424	-4.94121
26.74249	8.06424	-4.94121
26.74668	8.06424	-4.94121
26.75098	8.08621	-4.94121
26.75529	8.08621	-4.94121
26.75947	8.10819	-4.94121
26.76366	8.10819	-4.94121
26.76784	8.13016	-4.94121
26.77203	8.13016	-4.94121
26.77621	8.13016	-4.94121
26.78046	8.15213	-4.94121
26.78473	8.15213	-4.94121
26.78892	8.15213	-4.94121
26.79311	8.15213	-4.94121
26.79730	8.17411	-4.94121
26.80144	8.17411	-4.94121
26.80563	8.19608	-4.94121
26.80981	8.19608	-4.94121
26.81411	8.19608	-4.94121
26.81831	8.19608	-4.94121
26.82250	8.21805	-4.94121
26.82668	8.21805	-4.94121
26.83087	8.24002	-4.94121
26.83505	8.24002	-4.94121
26.83924	8.24002	-4.94121
26.84349	8.24002	-4.94121
26.84776	8.26200	-4.94121
26.85196	8.26200	-4.94121
26.85625	8.26200	-4.94121
26.86043	8.26200	-4.94121
26.86462	8.26200	-4.94121
26.86880	8.28397	-4.94121
26.87299	8.28397	-4.94121
26.87728	8.28397	-4.94121
26.88146	8.28397	-4.94121
26.88565	8.30594	-4.94121
26.88983	8.30594	-4.94121
26.89402	8.30594	-4.94121
26.89820	8.30594	-4.94121
26.90238	8.30594	-4.94121
26.90663	8.30594	-4.94121
26.91092	8.32791	-4.94121
26.91511	8.32791	-4.94121
26.91930	8.32791	-4.94121
26.92349	8.32791	-4.94121
26.92768	8.32791	-4.94121
26.93187	8.32791	-4.94121
26.93606	8.34989	-4.94121
26.94039	8.32791	-4.94121
26.94460	8.32791	-4.94121
26.94879	8.32791	-4.94121
26.95297	8.34989	-4.94121
26.95727	8.34989	-4.94121
26.96144	8.32791	-4.94121
26.96562	8.34989	-4.94121
26.97008	8.34989	-4.94121
26.97428	8.34989	-4.94121
26.97847	8.34989	-4.94121
26.98266	8.34989	-4.94121
26.98684	8.34989	-4.94121
26.99103	8.34989	-4.94121
26.99521	8.34989	-4.94121
26.99948	8.34989	-4.94121
27.00376	8.34989	-4.94121
27.00797	8.34989	-4.94121
27.01215	8.34989	-4.94121
27.01634	8.34989	-4.94121
27.02052	8.34989	-4.94121
27.02471	8.34989	-4.94121
27.02889	8.34989	-4.94121
27.03319	8.34989	-4.94121
27.03742	8.37186	-4.94121
27.04161	8.34989	-4.94121
27.04580	8.37186	-4.94121
27.05001	8.34989	-4.94121
27.05419	8.34989	-4.94121
27.05849	8.34989	-4.94121
27.06275	8.34989	-4.94121
27.06703	8.34989	-4.94121
27.07123	8.34989	-4.94121
27.07542	8.34989	-4.94121
27.07961	8.34989	-4.94121
27.08379	8.34989	-4.94121
27.08798	8.34989	-4.94121
27.09216	8.34989	-4.94121
27.09647	8.34989	-4.94121
27.10069	8.34989	-4.94121
27.10489	8.34989	-4.94121
27.10908	8.34989	-4.94121
27.11326	8.34989	-4.94121
27.11744	8.34989	-4.94121
27.12163	8.34989	-4.94121
27.12607	8.32791	-4.94121
27.13028	8.32791	-4.94121
27.13447	8.32791	-4.94121
27.13866	8.32791	-4.94121
27.14284	8.32791	-4.94121
27.14703	8.32791	-4.94121
27.15121	8.32791	-4.94121
27.15547	8.32791	-4.94121
27.15986	8.32791	-4.94121
27.16406	8.32791	-4.94121
27.16825	8.30594	-4.94121
27.17243	8.30594	-4.94121
27.17662	8.30594	-4.94121
27.18080	8.28397	-4.94121
27.18499	8.28397	-4.94121
27.18929	8.30594	-4.94121
27.19346	8.28397	-4.94121
27.19765	8.28397	-4.94121
27.20183	8.28397	-4.94121
27.20603	8.28397	-4.94121
27.21021	8.28397	-4.94121
27.21440	8.28397	-4.94121
27.21865	8.26200	-4.94121
27.22291	8.26200	-4.94121
27.22710	8.26200	-4.94121
27.23129	8.26200	-4.94121
27.23548	8.26200	-4.94121
27.23966	8.24002	-4.94121
27.24385	8.24002	-4.94121
27.24803	8.24002	-4.94121
27.25233	8.24002	-4.94121
27.25653	8.24002	-4.94121
27.26082	8.21805	-4.94121
27.26501	8.21805	-4.94121
27.26919	8.21805	-4.94121
27.27339	8.21805	-4.94121
27.27757	8.21805	-4.94121
27.28203	8.19608	-4.94121
27.28624	8.19608	-4.94121
27.29044	8.19608	-4.94121
27.29463	8.19608	-4.94121
27.29882	8.17411	-4.94121
27.30300	8.17411	-4.94121
27.30719	8.17411	-4.94121
27.31146	8.17411	-4.94121
27.31575	8.15213	-4.94121
27.31995	8.15213	-4.94121
27.32414	8.15213	-4.94121
27.32833	8.15213	-4.94121
27.33252	8.13016	-4.94121
27.33670	8.13016	-4.94121
27.34089	8.13016	-4.94121
27.34519	8.13016	-4.94121
27.34941	8.10819	-4.94121
27.35360	8.10819	-4.94121
27.35779	8.10819	-4.94121
27.36208	8.10819	-4.94121
27.36626	8.10819	-4.94121
27.37044	8.08621	-4.94121
27.37469	8.08621	-4.94121
27.37896	8.08621	-4.94121
27.38315	8.06424	-4.94121
27.38734	8.06424	-4.94121
27.39155	8.06424	-4.94121
27.39575	8.06424	-4.94121
27.39994	8.04227	-4.94121
27.40414	8.04227	-4.94121
27.40845	8.04227	-4.94121
27.41266	8.04227	-4.94121
27.41686	8.04227	-4.94121
27.42105	8.02030	-4.94121
27.42524	8.02030	-4.94121
27.42944	8.02030	-4.94121
27.43363	8.02030	-4.94121
27.43806	7.99832	-4.94121
27.44226	7.99832	-4.94121
27.44645	7.99832	-4.94121
27.45064	7.99832	-4.94121
27.45482	7.97635	-4.94121
27.45901	7.97635	-4.94121
27.46330	7.97635	-4.94121
27.46755	7.97635	-4.94121
27.47182	7.95438	-4.94121
27.47602	7.95438	-4.94121
27.48021	7.95438	-4.94121
27.48440	7.95438	-4.94121
27.48859	7.95438	-4.94121
27.49277	7.95438	-4.94121
27.49695	7.93241	-4.94121
27.50126	7.93241	-4.94121
27.50546	7.93241	-4.94121
27.50966	7.93241	-4.94121
27.51385	7.93241	-4.94121
27.51804	7.91043	-4.94121
27.52222	7.91043	-4.94121
27.52641	7.91043	-4.94121
27.53066	7.91043	-4.94121
27.53494	7.91043	-4.94121
27.53914	7.91043	-4.94121
27.54333	7.91043	-4.94121
27.54752	7.88846	-4.94121
27.55170	7.88846	-4.94121
27.55589	7.91043	-4.94121
27.56008	7.88846	-4.94121
27.56448	7.88846	-4.94121
27.56868	7.88846	-4.94121
27.57287	7.88846	-4.94121
27.57705	7.88846	-4.94121
27.58124	7.88846	-4.94121
27.58544	7.88846	-4.94121
27.58962	7.86649	-4.94121
27.59407	7.86649	-4.94121
27.59828	7.86649	-4.94121
27.60248	7.86649	-4.94121
27.60667	7.86649	-4.94121
27.61086	7.86649	-4.94121
27.61505	7.84452	-4.94121
27.61924	7.86649	-4.94121
27.62349	7.84452	-4.94121
27.62778	7.84452	-4.94121
27.63198	7.84452	-4.94121
27.63617	7.84452	-4.94121
27.64036	7.84452	-4.94121
27.64454	7.84452	-4.94121
27.64873	7.84452	-4.94121
27.65291	7.84452	-4.94121
27.65721	7.84452	-4.94121
27.66142	7.82254	-4.94121
27.66571	7.82254	-4.94121
27.66990	7.82254	-4.94121
27.67408	7.82254	-4.94121
27.67827	7.80057	-4.94121
27.68246	7.82254	-4.94121
27.68671	7.82254	-4.94121
27.69099	7.80057	-4.94121
27.69518	7.80057	-4.94121
27.69937	7.80057	-4.94121
27.70356	7.80057	-4.94121
27.70775	7.80057	-4.94121
27.71195	7.80057	-4.94121
27.71613	7.80057	-4.94121
27.72044	7.77860	-4.94121
27.72464	7.80057	-4.94121
27.72884	7.77860	-4.94121
27.73302	7.77860	-4.94121
27.73721	7.77860	-4.94121
27.74140	7.77860	-4.94121
27.74559	7.77860	-4.94121
27.75002	7.77860	-4.94121
27.75423	7.77860	-4.94121
27.75842	7.77860	-4.94121
27.76260	7.77860	-4.94121
27.76689	7.77860	-4.94121
27.77108	7.75662	-4.94121
27.77526	7.75662	-4.94121
27.77951	7.75662	-4.94121
27.78378	7.75662	-4.94121
27.78798	7.75662	-4.94121
27.79217	7.75662	-4.94121
27.79635	7.75662	-4.94121
27.80054	7.75662	-4.94121
27.80472	7.75662	-4.94121
27.80891	7.73465	-4.94121
27.81322	7.73465	-4.94121
27.81743	7.75662	-4.94121
27.82162	7.75662	-4.94121
27.82581	7.73465	-4.94121
27.82999	7.73465	-4.94121
27.83418	7.73465	-4.94121
27.83836	7.73465	-4.94121
27.84262	7.73465	-4.94121
27.84688	7.73465	-4.94121
27.85108	7.73465	-4.94121
27.85527	7.73465	-4.94121
27.85945	7.73465	-4.94121
27.86364	7.73465	-4.94121
27.86793	7.73465	-4.94121
27.87211	7.73465	-4.94121
27.87641	7.73465	-4.94121
27.88062	7.71268	-4.94121
27.88480	7.71268	-4.94121
27.88899	7.71268	-4.94121
27.89317	7.71268	-4.94121
27.89737	7.71268	-4.94121
27.90155	7.71268	-4.94121
27.90581	7.71268	-4.94121
27.91009	7.71268	-4.94121
27.91432	7.71268	-4.94121
27.91853	7.71268	-4.94121
27.92273	7.71268	-4.94121
27.92692	7.71268	-4.94121
27.93111	7.71268	-4.94121
27.93531	7.71268	-4.94121
27.93962	7.71268	-4.94121
27.94383	7.71268	-4.94121
27.94803	7.71268	-4.94121
27.95222	7.71268	-4.94121
27.95641	7.71268	-4.94121
27.96061	7.71268	-4.94121
27.96480	7.73465	-4.94121
27.96941	7.71268	-4.94121
27.97363	7.71268	-4.94121
27.97783	7.71268	-4.94121
27.98203	7.71268	-4.94121
27.98622	7.71268	-4.94121
27.99042	7.71268	-4.94121
27.99461	7.71268	-4.94121
27.99889	7.71268	-4.94121
28.00318	7.71268	-4.94121
28.00739	7.73465	-4.94121
28.01158	7.73465	-4.94121
28.01578	7.73465	-4.94121
28.01996	7.73465	-4.94121
28.02415	7.73465	-4.94121
28.02845	7.73465	-4.94121
28.03273	7.73465	-4.94121
28.03694	7.73465	-4.94121
28.04113	7.73465	-4.94121
28.04532	7.73465	-4.94121
28.04951	7.73465	-4.94121
28.05369	7.73465	-4.94121
28.05788	7.73465	-4.94121
28.06218	7.75662	-4.94121
28.06638	7.73465	-4.94121
28.07068	7.75662	-4.94121
28.07486	7.75662	-4.94121
28.07905	7.75662	-4.94121
28.08324	7.75662	-4.94121
28.08742	7.75662	-4.94121
28.09167	7.75662	-4.94121
28.09595	7.75662	-4.94121
28.10016	7.75662	-4.94121
28.10435	7.75662	-4.94121
28.10854	7.75662	-4.94121
28.11273	7.77860	-4.94121
28.11692	7.75662	-4.94121
28.12111	7.77860	-4.94121
28.12542	7.77860	-4.94121
28.12962	7.77860	-4.94121
28.13381	7.75662	-4.94121
28.13800	7.77860	-4.94121
28.14218	7.77860	-4.94121
28.14637	7.77860	-4.94121
28.15055	7.77860	-4.94121
28.15481	7.77860	-4.94121
28.15908	7.77860	-4.94121
28.16327	7.77860	-4.94121
28.16746	7.77860	-4.94121
28.17175	7.77860	-4.94121
28.17594	7.80057	-4.94121
28.18012	7.77860	-4.94121
28.18431	7.77860	-4.94121
28.18861	7.77860	-4.94121
28.19281	7.77860	-4.94121
28.19700	7.80057	-4.94121
28.20119	7.80057	-4.94121
28.20539	7.80057	-4.94121
28.20957	7.80057	-4.94121
28.21376	7.80057	-4.94121
28.21802	7.80057	-4.94121
28.22229	7.80057	-4.94121
28.22649	7.80057	-4.94121
28.23067	7.80057	-4.94121
28.23486	7.80057	-4.94121
28.23904	7.80057	-4.94121
28.24323	7.80057	-4.94121
28.24741	7.80057	-4.94121
28.25172	7.80057	-4.94121
28.25593	7.80057	-4.94121
28.26011	7.80057	-4.94121
28.26430	7.80057	-4.94121
28.26849	7.80057	-4.94121
28.27277	7.80057	-4.94121
28.27696	7.80057	-4.94121
28.28143	7.80057	-4.94121
28.28565	7.80057	-4.94121
28.28985	7.80057	-4.94121
28.29404	7.80057	-4.94121
28.29823	7.80057	-4.94121
28.30241	7.80057	-4.94121
28.30660	7.80057	-4.94121
28.31086	7.80057	-4.94121
28.31514	7.80057	-4.94121
28.31934	7.80057	-4.94121
28.32353	7.80057	-4.94121
28.32772	7.80057	-4.94121
28.33190	7.80057	-4.94121
28.33609	7.80057	-4.94121
28.34027	7.80057	-4.94121
28.34458	7.80057	-4.94121
28.34878	7.80057	-4.94121
28.35297	7.80057	-4.94121
28.35716	7.80057	-4.94121
28.36135	7.80057	-4.94121
28.36554	7.80057	-4.94121
28.36973	7.80057	-4.94121
28.37409	7.80057	-4.94121
28.37835	7.80057	-4.94121
28.38255	7.80057	-4.94121
28.38673	7.80057	-4.94121
28.39092	7.80057	-4.94121
28.39511	7.80057	-4.94121
28.39929	7.80057	-4.94121
28.40348	7.82254	-4.94121
28.40778	7.82254	-4.94121
28.41203	7.80057	-4.94121
28.41623	7.82254	-4.94121
28.42042	7.82254	-4.94121
28.42461	7.80057	-4.94121
28.42879	7.82254	-4.94121
28.43298	7.82254	-4.94121
28.43746	7.82254	-4.94121
28.44167	7.82254	-4.94121
28.44586	7.82254	-4.94121
28.45004	7.82254	-4.94121
28.45423	7.82254	-4.94121
28.45841	7.82254	-4.94121
28.46260	7.82254	-4.94121
28.46685	7.82254	-4.94121
28.47112	7.84452	-4.94121
28.47542	7.84452	-4.94121
28.47961	7.82254	-4.94121
28.48380	7.84452	-4.94121
28.48798	7.82254	-4.94121
28.49217	7.84452	-4.94121
28.49635	7.82254	-4.94121
28.50066	7.84452	-4.94121
28.50487	7.84452	-4.94121
28.50906	7.84452	-4.94121
28.51325	7.84452	-4.94121
28.51744	7.84452	-4.94121
28.52163	7.84452	-4.94121
28.52581	7.84452	-4.94121
28.53007	7.84452	-4.94121
28.53435	7.84452	-4.94121
28.53855	7.84452	-4.94121
28.54274	7.84452	-4.94121
28.54693	7.84452	-4.94121
28.55111	7.84452	-4.94121
28.55530	7.84452	-4.94121
28.55948	7.84452	-4.94121
28.56378	7.84452	-4.94121
28.56799	7.84452	-4.94121
28.57218	7.86649	-4.94121
28.57647	7.86649	-4.94121
28.58065	7.86649	-4.94121
28.58484	7.86649	-4.94121
28.58902	7.86649	-4.94121
28.59348	7.86649	-4.94121
28.59769	7.86649	-4.94121
28.60188	7.86649	-4.94121
28.60607	7.86649	-4.94121
28.61026	7.86649	-4.94121
28.61444	7.88846	-4.94121
28.61863	7.86649	-4.94121
28.62291	7.86649	-4.94121
28.62720	7.88846	-4.94121
28.63140	7.88846	-4.94121
28.63558	7.88846	-4.94121
28.63977	7.88846	-4.94121
28.64395	7.88846	-4.94121
28.64814	7.88846	-4.94121
28.65233	7.88846	-4.94121
28.65663	7.88846	-4.94121
28.66084	7.88846	-4.94121
28.66503	7.88846	-4.94121
28.66921	7.91043	-4.94121
28.67341	7.91043	-4.94121
28.67770	7.91043	-4.94121
28.68188	7.91043	-4.94121
28.68614	7.91043	-4.94121
28.69040	7.91043	-4.94121
28.69460	7.91043	-4.94121
28.69879	7.91043	-4.94121
28.70297	7.91043	-4.94121
28.70716	7.91043	-4.94121
28.71134	7.91043	-4.94121
28.71553	7.91043	-4.94121
28.71986	7.93241	-4.94121
28.72407	7.93241	-4.94121
28.72826	7.93241	-4.94121
28.73245	7.93241	-4.94121
28.73663	7.93241	-4.94121
28.74082	7.93241	-4.94121
28.74500	7.93241	-4.94121
28.74949	7.93241	-4.94121
28.75370	7.93241	-4.94121
28.75790	7.93241	-4.94121
28.76208	7.93241	-4.94121
28.76627	7.93241	-4.94121
28.77048	7.93241	-4.94121
28.77467	7.93241	-4.94121
28.77905	7.93241	-4.94121
28.78332	7.93241	-4.94121
28.78752	7.95438	-4.94121
28.79171	7.93241	-4.94121
28.79590	7.93241	-4.94121
28.80009	7.95438	-4.94121
28.80427	7.93241	-4.94121
28.80846	7.93241	-4.94121
28.81277	7.93241	-4.94121
28.81697	7.93241	-4.94121
28.82116	7.93241	-4.94121
28.82536	7.95438	-4.94121
28.82955	7.93241	-4.94121
28.83373	7.93241	-4.94121
28.83792	7.93241	-4.94121
28.84217	7.95438	-4.94121
28.84645	7.95438	-4.94121
28.85064	7.93241	-4.94121
28.85483	7.93241	-4.94121
28.85901	7.95438	-4.94121
28.86320	7.93241	-4.94121
28.86739	7.93241	-4.94121
28.87157	7.93241	-4.94121
28.87587	7.93241	-4.94121
28.88018	7.93241	-4.94121
28.88436	7.93241	-4.94121
28.88855	7.93241	-4.94121
28.89274	7.95438	-4.94121
28.89692	7.95438	-4.94121
28.90110	7.93241	-4.94121
28.90555	7.93241	-4.94121
28.90977	7.93241	-4.94121
28.91396	7.93241	-4.94121
28.91815	7.93241	-4.94121
28.92234	7.93241	-4.94121
28.92653	7.93241	-4.94121
28.93072	7.93241	-4.94121
28.93502	7.93241	-4.94121
28.93931	7.93241	-4.94121
28.94351	7.93241	-4.94121
28.94770	7.93241	-4.94121
28.95189	7.93241	-4.94121
28.95607	7.93241	-4.94121
28.96026	7.93241	-4.94121
28.96445	7.93241	-4.94121
28.96876	7.93241	-4.94121
28.97304	7.93241	-4.94121
28.97726	7.93241	-4.94121
28.98156	7.93241	-4.94121
28.98575	7.93241	-4.94121
28.98993	7.93241	-4.94121
28.99412	7.93241	-4.94121
28.99857	7.93241	-4.94121
29.00280	7.93241	-4.94121
29.00699	7.91043	-4.94121
29.01118	7.91043	-4.94121
29.01537	7.93241	-4.94121
29.01955	7.91043	-4.94121
29.02375	7.91043	-4.94121
29.02801	7.91043	-4.94121
29.03229	7.91043	-4.94121
29.03649	7.91043	-4.94121
29.04069	7.91043	-4.94121
29.04488	7.91043	-4.94121
29.04906	7.91043	-4.94121
29.05325	7.91043	-4.94121
29.05744	7.91043	-4.94121
29.06174	7.91043	-4.94121
29.06594	7.91043	-4.94121
29.07013	7.91043	-4.94121
29.07432	7.88846	-4.94121
29.07851	7.91043	-4.94121
29.08280	7.91043	-4.94121
29.08698	7.91043	-4.94121
29.09142	7.91043	-4.94121
29.09563	7.88846	-4.94121
29.09983	7.88846	-4.94121
29.10402	7.91043	-4.94121
29.10821	7.91043	-4.94121
29.11240	7.91043	-4.94121
29.11658	7.88846	-4.94121
29.12085	7.88846	-4.94121
29.12515	7.88846	-4.94121
29.12936	7.91043	-4.94121
29.13355	7.88846	-4.94121
29.13774	7.88846	-4.94121
29.14193	7.88846	-4.94121
29.14611	7.88846	-4.94121
29.15030	7.88846	-4.94121
29.15460	7.88846	-4.94121
29.15880	7.88846	-4.94121
29.16299	7.88846	-4.94121
29.16717	7.88846	-4.94121
29.17136	7.88846	-4.94121
29.17554	7.88846	-4.94121
29.17973	7.88846	-4.94121
29.18409	7.88846	-4.94121
29.18836	7.88846	-4.94121
29.19255	7.88846	-4.94121
29.19673	7.88846	-4.94121
29.20092	7.88846	-4.94121
29.20511	7.88846	-4.94121
29.20929	7.88846	-4.94121
29.21344	7.88846	-4.94121
29.21774	7.88846	-4.94121
29.22195	7.88846	-4.94121
29.22615	7.88846	-4.94121
29.23034	7.88846	-4.94121
29.23452	7.91043	-4.94121
29.23871	7.91043	-4.94121
29.24289	7.91043	-4.94121
29.24733	7.91043	-4.94121
29.25153	7.91043	-4.94121
29.25572	7.88846	-4.94121
29.25991	7.91043	-4.94121
29.26409	7.91043	-4.94121
29.26828	7.91043	-4.94121
29.27246	7.91043	-4.94121
29.27671	7.91043	-4.94121
29.28099	7.91043	-4.94121
29.28532	7.91043	-4.94121
29.28952	7.93241	-4.94121
29.29371	7.93241	-4.94121
29.29789	7.93241	-4.94121
29.30208	7.93241	-4.94121
29.30626	7.93241	-4.94121
29.31057	7.93241	-4.94121
29.31478	7.93241	-4.94121
29.31897	7.93241	-4.94121
29.32318	7.93241	-4.94121
29.32739	7.93241	-4.94121
29.33158	7.95438	-4.94121
29.33577	7.93241	-4.94121
29.34003	7.95438	-4.94121
29.34436	7.95438	-4.94121
29.34857	7.95438	-4.94121
29.35277	7.95438	-4.94121
29.35697	7.95438	-4.94121
29.36117	7.97635	-4.94121
29.36536	7.97635	-4.94121
29.36955	7.97635	-4.94121
29.37391	7.97635	-4.94121
29.37813	7.97635	-4.94121
29.38233	7.97635	-4.94121
29.38664	7.97635	-4.94121
29.39083	7.99832	-4.94121
29.39501	7.99832	-4.94121
29.39920	7.99832	-4.94121
29.40359	7.99832	-4.94121
29.40782	7.99832	-4.94121
29.41200	7.99832	-4.94121
29.41619	8.02030	-4.94121
29.42037	8.02030	-4.94121
29.42456	8.02030	-4.94121
29.42875	8.02030	-4.94121
29.43300	8.02030	-4.94121
29.43729	8.04227	-4.94121
29.44145	8.04227	-4.94121
29.44564	8.04227	-4.94121
29.44982	8.04227	-4.94121
29.45401	8.04227	-4.94121
29.45819	8.04227	-4.94121
29.46237	8.04227	-4.94121
29.46677	8.06424	-4.94121
29.47099	8.06424	-4.94121
29.47518	8.06424	-4.94121
29.47936	8.06424	-4.94121
29.48355	8.06424	-4.94121
29.48784	8.08621	-4.94121
29.49202	8.08621	-4.94121
29.49627	8.08621	-4.94121
29.50056	8.08621	-4.94121
29.50476	8.08621	-4.94121
29.50895	8.08621	-4.94121
29.51313	8.10819	-4.94121
29.51734	8.10819	-4.94121
29.52152	8.10819	-4.94121
29.52571	8.10819	-4.94121
29.53002	8.13016	-4.94121
29.53422	8.13016	-4.94121
29.53841	8.13016	-4.94121
29.54259	8.13016	-4.94121
29.54678	8.13016	-4.94121
29.55096	8.13016	-4.94121
29.55514	8.13016	-4.94121
29.55940	8.13016	-4.94121
29.56367	8.13016	-4.94121
29.56786	8.15213	-4.94121
29.57205	8.15213	-4.94121
29.57623	8.15213	-4.94121
29.58042	8.17411	-4.94121
29.58460	8.17411	-4.94121
29.58889	8.15213	-4.94121
29.59319	8.17411	-4.94121
29.59740	8.17411	-4.94121
29.60159	8.17411	-4.94121
29.60577	8.17411	-4.94121
29.60996	8.17411	-4.94121
29.61414	8.17411	-4.94121
29.61832	8.17411	-4.94121
29.62273	8.17411	-4.94121
29.62694	8.19608	-4.94121
29.63114	8.19608	-4.94121
29.63532	8.19608	-4.94121
29.63951	8.19608	-4.94121
29.64369	8.19608	-4.94121
29.64788	8.19608	-4.94121
29.65213	8.19608	-4.94121
29.65642	8.21805	-4.94121
29.66063	8.21805	-4.94121
29.66481	8.21805	-4.94121
29.66900	8.21805	-4.94121
29.67318	8.21805	-4.94121
29.67737	8.21805	-4.94121
29.68156	8.21805	-4.94121
29.68586	8.21805	-4.94121
29.69017	8.21805	-4.94121
29.69436	8.21805	-4.94121
29.69854	8.21805	-4.94121
29.70273	8.21805	-4.94121
29.70691	8.21805	-4.94121
29.71110	8.21805	-4.94121
29.71535	8.21805	-4.94121
29.71962	8.21805	-4.94121
29.72382	8.21805	-4.94121
29.72800	8.24002	-4.94121
29.73219	8.24002	-4.94121
29.73637	8.24002	-4.94121
29.74056	8.24002	-4.94121
29.74474	8.24002	-4.94121
29.74903	8.24002	-4.94121
29.75324	8.24002	-4.94121
29.75744	8.24002	-4.94121
29.76162	8.24002	-4.94121
29.76580	8.24002	-4.94121
29.76999	8.24002	-4.94121
29.77417	8.24002	-4.94121
29.77842	8.24002	-4.94121
29.78269	8.24002	-4.94121
29.78689	8.24002	-4.94121
29.79118	8.26200	-4.94121
29.79537	8.26200	-4.94121
29.79955	8.24002	-4.94121
29.80373	8.24002	-4.94121
29.80792	8.24002	-4.94121
29.81222	8.26200	-4.94121
29.81642	8.26200	-4.94121
29.82060	8.26200	-4.94121
29.82479	8.26200	-4.94121
29.82898	8.26200	-4.94121
29.83317	8.26200	-4.94121
29.83737	8.26200	-4.94121
29.84162	8.26200	-4.94121
29.84589	8.26200	-4.94121
29.85009	8.26200	-4.94121
29.85427	8.26200	-4.94121
29.85846	8.26200	-4.94121
29.86264	8.26200	-4.94121
29.86682	8.26200	-4.94121
29.87101	8.26200	-4.94121
29.87530	8.26200	-4.94121
29.87950	8.26200	-4.94121
29.88369	8.26200	-4.94121
29.88787	8.26200	-4.94121
29.89216	8.26200	-4.94121
29.89634	8.26200	-4.94121
29.90053	8.26200	-4.94121
29.90489	8.26200	-4.94121
29.90914	8.26200	-4.94121
29.91337	8.26200	-4.94121
29.91759	8.26200	-4.94121
29.92180	8.26200	-4.94121
29.92600	8.26200	-4.94121
29.93021	8.26200	-4.94121
29.93527	8.26200	-4.94121
29.93958	8.26200	-4.94121
29.94380	8.26200	-4.94121
29.94801	8.26200	-4.94121
29.95223	8.26200	-4.94121
29.95643	8.26200	-4.94121
29.96065	8.26200	-4.94121
29.96561	8.26200	-4.94121
29.96991	8.26200	-4.94121
29.97412	8.26200	-4.94121
29.97831	8.26200	-4.94121
29.98251	8.26200	-4.94121
29.98670	8.26200	-4.94121
29.99089	8.26200	-4.94121
29.99519	8.26200	-4.94121
29.99949	8.26200	-4.94121
