Time (s)   roll (deg)   Delta
0.00037	2.59305	11.27051
0.00464	2.59305	11.27051
0.00885	2.59305	11.27051
0.01305	2.59305	11.27051
0.01734	2.59305	11.27051
0.02163	2.59305	11.27051
0.02583	2.59305	11.27051
0.03002	2.59305	11.27051
0.03421	2.59305	11.27051
0.03841	2.59305	11.27051
0.04261	2.61502	11.27051
0.04689	2.59305	11.27051
0.05115	2.61502	11.27051
0.05538	2.61502	11.27051
0.05960	2.61502	11.27051
0.06379	2.61502	11.27051
0.06798	2.61502	11.27051
0.07217	2.61502	11.27051
0.07636	2.59305	11.27051
0.08062	2.59305	11.27051
0.08484	2.59305	11.27051
0.08904	2.59305	11.27051
0.09322	2.59305	11.27051
0.09739	2.57108	11.27051
0.10166	2.57108	11.27051
0.10584	2.54911	11.27051
0.11011	2.54911	11.27051
0.11433	2.54911	11.27051
0.11851	2.52713	11.27051
0.12269	2.52713	11.27051
0.12686	2.50516	11.27051
0.13103	2.48319	11.27051
0.13522	2.48319	11.27051
0.13955	2.46121	11.27051
0.14379	2.46121	11.27051
0.14799	2.43924	11.27051
0.15216	2.41727	11.27051
0.15634	2.37332	11.27051
0.16051	2.35135	11.27051
0.16469	2.35135	11.27051
0.16885	2.32938	11.27051
0.17313	2.28543	11.27051
0.17736	2.26346	11.27051
0.18156	2.24149	11.27051
0.18575	2.21952	11.27051
0.18994	2.17557	11.27051
0.19413	2.17557	11.27051
0.19832	2.13162	11.27051
0.20268	2.08768	11.27051
0.20694	2.04373	11.27051
0.21115	2.02176	11.27051
0.21533	1.97782	11.27051
0.21951	1.97782	11.27051
0.22371	1.93387	11.27051
0.22790	1.86795	11.27051
0.23210	1.82401	11.27051
0.23640	1.78006	11.27051
0.24065	1.73612	11.27051
0.24485	1.73612	11.27051
0.24908	1.67020	11.27051
0.25337	1.62625	11.27051
0.25758	1.56034	11.27051
0.26178	1.49442	11.27051
0.26607	1.45047	11.27051
0.27042	1.38455	11.27051
0.27462	1.38455	11.27051
0.27881	1.31864	11.27051
0.28300	1.25272	11.27051
0.28718	1.18680	11.27051
0.29132	1.12088	11.27051
0.29559	1.03299	11.27051
0.29987	1.03299	11.27051
0.30418	0.96707	11.27051
0.30837	0.87918	11.27051
0.31255	0.81327	11.27051
0.31674	0.74735	11.27051
0.32092	0.68143	11.27051
0.32510	0.59354	11.27051
0.32940	0.59354	11.27051
0.33361	0.50565	11.27051
0.33780	0.41776	11.27051
0.34198	0.32987	11.27051
0.34617	0.24198	11.27051
0.35035	0.24198	11.27051
0.35453	0.13211	11.27051
0.35879	0.06619	11.27051
0.36305	-0.04367	11.27051
0.36725	-0.13156	11.27051
0.37143	-0.24142	11.27051
0.37562	-0.24142	11.27051
0.37980	-0.32931	11.27051
0.38398	-0.43918	11.27051
0.38817	-0.54904	11.27051
0.39246	-0.65890	11.27051
0.39666	-0.72482	11.27051
0.40085	-0.83468	11.27051
0.40515	-0.83468	11.27051
0.40934	-0.94455	11.27051
0.41352	-1.05441	11.27051
0.41770	-1.18625	11.27051
0.42204	-1.27414	11.27051
0.42626	-1.40597	11.27051
0.43045	-1.40597	11.27051
0.43463	-1.51584	11.27051
0.43883	-1.62570	11.27051
0.44302	-1.73556	11.27051
0.44721	-1.86740	11.27051
0.45149	-1.97726	11.27051
0.45577	-1.97726	11.27051
0.46000	-2.10910	11.27051
0.46419	-2.24093	11.27051
0.46838	-2.35080	11.27051
0.47257	-2.48263	11.27051
0.47675	-2.61447	11.27051
0.48094	-2.72433	11.27051
0.48524	-2.72433	11.27051
0.48950	-2.85617	11.27051
0.49369	-2.98800	11.27051
0.49788	-3.11984	11.27051
0.50207	-3.25168	11.27051
0.50636	-3.38351	11.27051
0.51055	-3.38351	11.27051
0.51501	-3.53732	11.27051
0.51923	-3.66916	11.27051
0.52342	-3.77902	11.27051
0.52760	-3.93283	11.27051
0.53180	-4.06466	11.27051
0.53599	-4.21847	11.27051
0.54017	-4.21847	11.27051
0.54443	-4.35031	11.27051
0.54871	-4.50412	11.27051
0.55290	-4.63595	11.27051
0.55711	-4.78976	11.27051
0.56130	-4.78976	11.27051
0.56554	-5.05343	11.27051
0.56978	-5.05343	11.27051
0.57410	-5.20724	11.27051
0.57844	-5.36105	11.27051
0.58265	-5.51486	11.27051
0.58686	-5.66867	11.27051
0.59105	-5.66867	11.27051
0.59527	-5.82248	11.27051
0.59946	-5.97629	11.27051
0.60365	-6.13009	11.27051
0.60812	-6.28390	11.27051
0.61232	-6.43771	11.27051
0.61650	-6.43771	11.27051
0.62071	-6.59152	11.27051
0.62490	-6.76730	11.27051
0.62909	-6.89914	11.27051
0.63327	-7.07492	11.27051
0.63780	-7.22873	11.27051
0.64207	-7.22873	11.27051
0.64631	-7.38254	11.27051
0.65053	-7.55832	11.27051
0.65474	-7.69015	11.27051
0.65894	-7.84396	11.27051
0.66314	-8.01974	11.27051
0.66743	-8.17355	11.27051
0.67172	-8.17355	11.27051
0.67595	-8.32736	11.27051
0.68016	-8.50314	11.27051
0.68436	-8.65695	11.27051
0.68855	-8.83273	11.27051
0.69275	-8.96457	11.27051
0.69694	-9.11838	11.27051
0.70125	-9.11838	11.27051
0.70546	-9.29416	11.27051
0.70977	-9.46994	11.27051
0.71395	-9.62375	11.27051
0.71814	-9.79953	11.27051
0.72232	-9.95334	11.27051
0.72650	-9.95334	11.27051
0.73091	-10.12912	11.27051
0.73513	-10.28293	11.27051
0.73935	-10.43673	11.27051
0.74354	-10.59054	11.27051
0.74773	-10.76632	11.27051
0.75192	-10.92013	11.27051
0.75611	-10.92013	11.27051
0.76038	-11.09591	11.27051
0.76467	-11.27170	11.27051
0.76887	-11.42550	11.27051
0.77306	-11.60129	11.27051
0.77725	-11.73312	11.27051
0.78144	-11.73312	11.27051
0.78563	-11.90890	11.27051
0.78982	-12.06271	11.27051
0.79412	-12.23849	11.27051
0.79833	-12.39230	11.27051
0.80252	-12.54611	11.27051
0.80671	-12.54611	11.27051
0.81101	-12.72189	11.27051
0.81520	-12.89767	11.27051
0.81939	-13.07345	11.27051
0.82381	-13.20529	11.27051
0.82802	-13.35910	11.27051
0.83221	-13.53488	11.27051
0.83646	-13.53488	11.27051
0.84068	-13.68869	11.27051
0.84487	-13.86447	11.27051
0.84906	-14.01828	11.27051
0.85336	-14.19406	11.27051
0.85765	-14.34787	11.27051
0.86185	-14.34787	11.27051
0.86604	-14.52365	11.27051
0.87026	-14.67746	11.27051
0.87446	-14.83127	11.27051
0.87865	-15.00705	11.27051
0.88285	-15.00705	11.27051
0.88716	-15.18283	11.27051
0.89135	-15.33664	11.27051
0.89554	-15.49045	11.27051
0.89973	-15.66623	11.27051
0.90392	-15.82004	11.27051
0.90811	-15.95187	11.27051
0.91241	-15.95187	11.27051
0.91684	-16.12765	11.27051
0.92105	-16.28146	11.27051
0.92524	-16.43527	11.27051
0.92943	-16.61105	11.27051
0.93361	-16.74289	11.27051
0.93779	-16.74289	11.27051
0.94198	-16.91867	11.27051
0.94624	-17.07248	11.27051
0.95052	-17.20431	11.27051
0.95472	-17.35812	11.27051
0.95890	-17.51193	11.27051
0.96309	-17.66574	11.27051
0.96730	-17.66574	11.27051
0.97149	-17.81955	11.27051
0.97568	-17.97336	11.27051
0.98000	-18.12716	11.27051
0.98422	-18.28097	11.27051
0.98841	-18.43478	11.27051
0.99260	-18.54464	11.27051
0.99679	-18.54464	11.27051
1.00097	-18.69845	11.27051
1.00515	-18.85226	11.27051
1.00961	-18.98410	11.27051
1.01395	-19.13791	11.27051
1.01815	-19.29172	11.27051
1.02234	-19.29172	11.27051
1.02653	-19.44552	11.27051
1.03072	-19.57736	11.27051
1.03491	-19.68722	11.27051
1.03920	-19.84103	11.27051
1.04348	-19.97287	11.27051
1.04767	-19.97287	11.27051
1.05186	-20.12668	11.27051
1.05606	-20.25851	11.27051
1.06025	-20.39035	11.27051
1.06444	-20.52218	11.27051
1.06863	-20.67599	11.27051
1.07293	-20.67599	11.27051
1.07714	-20.78586	11.27051
1.08132	-20.89572	11.27051
1.08552	-21.02756	11.27051
1.08971	-21.13742	11.27051
1.09390	-21.24728	11.27051
1.09809	-21.35714	11.27051
1.10250	-21.35714	11.27051
1.10672	-21.44504	11.27051
1.11091	-21.53293	11.27051
1.11522	-21.62082	11.27051
1.11941	-21.68673	11.27051
1.12360	-21.75265	11.27051
1.12779	-21.75265	11.27051
1.13205	-21.79660	11.27051
1.13633	-21.84054	11.27051
1.14052	-21.86252	11.27051
1.14470	-21.88449	11.27051
1.14889	-21.88449	11.27051
1.15307	-21.88449	11.27051
1.15725	-21.88449	11.27051
1.16144	-21.86252	11.27051
1.16573	-21.84054	11.27051
1.16993	-21.81857	11.27051
1.17414	-21.77463	11.27051
1.17833	-21.77463	11.27051
1.18251	-21.70871	11.27051
1.18670	-21.64279	11.27051
1.19088	-21.57687	11.27051
1.19532	-21.51095	11.27051
1.19953	-21.42306	11.27051
1.20372	-21.35714	11.27051
1.20791	-21.35714	11.27051
1.21210	-21.26925	11.27051
1.21640	-21.18136	11.27051
1.22061	-21.09347	11.27051
1.22488	-20.98361	11.27051
1.22915	-20.89572	11.27051
1.23334	-20.89572	11.27051
1.23755	-20.78586	11.27051
1.24175	-20.69797	11.27051
1.24594	-20.56613	11.27051
1.25013	-20.50021	11.27051
1.25478	-20.39035	11.27051
1.25907	-20.30246	11.27051
1.26329	-20.30246	11.27051
1.26749	-20.19259	11.27051
1.27170	-20.08273	11.27051
1.27589	-19.97287	11.27051
1.28009	-19.86300	11.27051
1.28428	-19.86300	11.27051
1.28858	-19.66525	11.27051
1.29279	-19.66525	11.27051
1.29698	-19.57736	11.27051
1.30117	-19.46750	11.27051
1.30537	-19.35763	11.27051
1.30955	-19.24777	11.27051
1.31374	-19.24777	11.27051
1.31816	-19.13791	11.27051
1.32240	-19.02804	11.27051
1.32659	-18.91818	11.27051
1.33079	-18.83029	11.27051
1.33497	-18.74240	11.27051
1.33917	-18.63254	11.27051
1.34333	-18.63254	11.27051
1.34764	-18.52267	11.27051
1.35190	-18.41281	11.27051
1.35613	-18.30295	11.27051
1.36032	-18.19308	11.27051
1.36451	-18.08322	11.27051
1.36870	-18.08322	11.27051
1.37289	-17.97336	11.27051
1.37708	-17.88547	11.27051
1.38137	-17.77560	11.27051
1.38558	-17.66574	11.27051
1.38979	-17.66574	11.27051
1.39398	-17.55588	11.27051
1.39817	-17.46798	11.27051
1.40236	-17.35812	11.27051
1.40655	-17.24826	11.27051
1.41085	-17.13839	11.27051
1.41506	-17.13839	11.27051
1.41938	-17.02853	11.27051
1.42359	-16.96261	11.27051
1.42779	-16.85275	11.27051
1.43198	-16.74289	11.27051
1.43621	-16.65500	11.27051
1.44049	-16.54513	11.27051
1.44474	-16.54513	11.27051
1.44894	-16.43527	11.27051
1.45316	-16.34738	11.27051
1.45735	-16.23752	11.27051
1.46155	-16.17160	11.27051
1.46574	-16.06173	11.27051
1.46995	-15.95187	11.27051
1.47424	-15.95187	11.27051
1.47846	-15.86398	11.27051
1.48265	-15.77609	11.27051
1.48685	-15.66623	11.27051
1.49106	-15.57834	11.27051
1.49526	-15.57834	11.27051
1.49945	-15.46847	11.27051
1.50382	-15.38058	11.27051
1.50805	-15.29269	11.27051
1.51225	-15.20480	11.27051
1.51644	-15.11691	11.27051
1.52074	-15.00705	11.27051
1.52493	-15.00705	11.27051
1.52912	-14.91916	11.27051
1.53338	-14.83127	11.27051
1.53764	-14.74338	11.27051
1.54187	-14.63351	11.27051
1.54605	-14.58957	11.27051
1.55024	-14.47970	11.27051
1.55444	-14.47970	11.27051
1.55863	-14.39181	11.27051
1.56282	-14.30392	11.27051
1.56709	-14.21603	11.27051
1.57137	-14.12814	11.27051
1.57556	-14.04025	11.27051
1.57975	-14.04025	11.27051
1.58393	-13.95236	11.27051
1.58818	-13.88644	11.27051
1.59238	-13.79855	11.27051
1.59666	-13.73263	11.27051
1.60088	-13.64474	11.27051
1.60515	-13.57882	11.27051
1.60935	-13.57882	11.27051
1.61353	-13.49093	11.27051
1.61772	-13.40304	11.27051
1.62204	-13.33713	11.27051
1.62632	-13.24923	11.27051
1.63055	-13.18332	11.27051
1.63524	-13.18332	11.27051
1.63949	-13.09543	11.27051
1.64370	-13.02951	11.27051
1.64789	-12.94162	11.27051
1.65209	-12.87570	11.27051
1.65643	-12.80978	11.27051
1.66069	-12.80978	11.27051
1.66490	-12.74386	11.27051
1.66910	-12.65597	11.27051
1.67334	-12.59006	11.27051
1.67754	-12.54611	11.27051
1.68172	-12.48019	11.27051
1.68593	-12.41427	11.27051
1.69025	-12.41427	11.27051
1.69447	-12.34836	11.27051
1.69866	-12.28244	11.27051
1.70291	-12.21652	11.27051
1.70710	-12.15060	11.27051
1.71130	-12.15060	11.27051
1.71549	-12.08468	11.27051
1.71991	-12.04074	11.27051
1.72427	-11.97482	11.27051
1.72847	-11.93088	11.27051
1.73266	-11.86496	11.27051
1.73686	-11.79904	11.27051
1.74106	-11.79904	11.27051
1.74525	-11.75509	11.27051
1.74953	-11.71115	11.27051
1.75382	-11.64523	11.27051
1.75802	-11.57931	11.27051
1.76221	-11.53537	11.27051
1.76641	-11.49142	11.27051
1.77060	-11.49142	11.27051
1.77479	-11.44748	11.27051
1.77898	-11.38156	11.27051
1.78328	-11.33761	11.27051
1.78755	-11.29367	11.27051
1.79175	-11.24972	11.27051
1.79593	-11.24972	11.27051
1.80012	-11.20578	11.27051
1.80431	-11.16183	11.27051
1.80850	-11.11789	11.27051
1.81276	-11.07394	11.27051
1.81704	-11.03000	11.27051
1.82124	-10.98605	11.27051
1.82553	-10.98605	11.27051
1.82971	-10.94211	11.27051
1.83389	-10.89816	11.27051
1.83807	-10.85422	11.27051
1.84231	-10.83224	11.27051
1.84660	-10.78830	11.27051
1.85080	-10.76632	11.27051
1.85499	-10.76632	11.27051
1.85917	-10.72238	11.27051
1.86332	-10.70041	11.27051
1.86750	-10.65646	11.27051
1.87169	-10.63449	11.27051
1.87607	-10.63449	11.27051
1.88030	-10.59054	11.27051
1.88448	-10.56857	11.27051
1.88867	-10.52463	11.27051
1.89285	-10.50265	11.27051
1.89703	-10.48068	11.27051
1.90121	-10.48068	11.27051
1.90545	-10.45871	11.27051
1.90980	-10.41476	11.27051
1.91401	-10.39279	11.27051
1.91820	-10.37082	11.27051
1.92241	-10.34884	11.27051
1.92670	-10.34884	11.27051
1.93089	-10.32687	11.27051
1.93507	-10.30490	11.27051
1.93943	-10.30490	11.27051
1.94363	-10.28293	11.27051
1.94783	-10.23898	11.27051
1.95201	-10.23898	11.27051
1.95625	-10.23898	11.27051
1.96045	-10.21701	11.27051
1.96464	-10.21701	11.27051
1.96897	-10.17306	11.27051
1.97325	-10.17306	11.27051
1.97744	-10.17306	11.27051
1.98163	-10.17306	11.27051
1.98582	-10.15109	11.27051
1.99001	-10.15109	11.27051
1.99419	-10.12912	11.27051
1.99846	-10.12912	11.27051
2.00275	-10.10714	11.27051
2.00695	-10.10714	11.27051
2.01114	-10.10714	11.27051
2.01533	-10.10714	11.27051
2.01951	-10.08517	11.27051
2.02369	-10.10714	11.27051
2.02798	-10.08517	11.27051
2.03227	-10.08517	11.27051
2.03652	-10.08517	11.27051
2.04072	-10.08517	11.27051
2.04492	-10.08517	11.27051
2.04911	-10.10714	11.27051
2.05330	-10.08517	11.27051
2.05748	-10.08517	11.27051
2.06174	-10.08517	11.27051
2.06602	-10.08517	11.27051
2.07022	-10.08517	11.27051
2.07440	-10.10714	11.27051
2.07859	-10.10714	11.27051
2.08281	-10.12912	11.27051
2.08703	-10.12912	11.27051
2.09123	-10.10714	11.27051
2.09554	-10.12912	11.27051
2.09978	-10.12912	11.27051
2.10399	-10.12912	11.27051
2.10818	-10.17306	11.27051
2.11237	-10.15109	11.27051
2.11657	-10.15109	11.27051
2.12076	-10.19504	11.27051
2.12506	-10.17306	11.27051
2.12941	-10.21701	11.27051
2.13363	-10.21701	11.27051
2.13785	-10.23898	11.27051
2.14204	-10.23898	11.27051
2.14627	-10.26095	11.27051
2.15047	-10.26095	11.27051
2.15478	-10.28293	11.27051
2.15904	-10.30490	11.27051
2.16330	-10.32687	11.27051
2.16749	-10.32687	11.27051
2.17169	-10.34884	11.27051
2.17589	-10.34884	11.27051
2.18009	-10.39279	11.27051
2.18428	-10.41476	11.27051
2.18857	-10.41476	11.27051
2.19277	-10.45871	11.27051
2.19697	-10.45871	11.27051
2.20116	-10.48068	11.27051
2.20535	-10.50265	11.27051
2.20953	-10.52463	11.27051
2.21372	-10.56857	11.27051
2.21799	-10.56857	11.27051
2.22225	-10.59054	11.27051
2.22647	-10.61252	11.27051
2.23075	-10.63449	11.27051
2.23493	-10.65646	11.27051
2.23911	-10.70041	11.27051
2.24331	-10.72238	11.27051
2.24760	-10.72238	11.27051
2.25184	-10.76632	11.27051
2.25611	-10.78830	11.27051
2.26031	-10.81027	11.27051
2.26450	-10.87619	11.27051
2.26869	-10.87619	11.27051
2.27288	-10.92013	11.27051
2.27707	-10.92013	11.27051
2.28135	-10.94211	11.27051
2.28557	-10.98605	11.27051
2.28983	-11.03000	11.27051
2.29404	-11.05197	11.27051
2.29822	-11.09591	11.27051
2.30241	-11.09591	11.27051
2.30663	-11.13986	11.27051
2.31099	-11.16183	11.27051
2.31530	-11.20578	11.27051
2.31955	-11.22775	11.27051
2.32377	-11.29367	11.27051
2.32798	-11.31564	11.27051
2.33230	-11.31564	11.27051
2.33650	-11.38156	11.27051
2.34078	-11.40353	11.27051
2.34502	-11.44748	11.27051
2.34922	-11.49142	11.27051
2.35343	-11.49142	11.27051
2.35763	-11.57931	11.27051
2.36182	-11.57931	11.27051
2.36601	-11.62326	11.27051
2.37020	-11.66720	11.27051
2.37451	-11.71115	11.27051
2.37872	-11.75509	11.27051
2.38292	-11.75509	11.27051
2.38711	-11.82101	11.27051
2.39132	-11.84298	11.27051
2.39550	-11.90890	11.27051
2.39969	-11.95285	11.27051
2.40412	-11.99679	11.27051
2.40834	-11.99679	11.27051
2.41253	-12.04074	11.27051
2.41672	-12.08468	11.27051
2.42091	-12.15060	11.27051
2.42510	-12.19455	11.27051
2.42929	-12.26047	11.27051
2.43370	-12.26047	11.27051
2.43801	-12.30441	11.27051
2.44223	-12.34836	11.27051
2.44643	-12.39230	11.27051
2.45062	-12.43625	11.27051
2.45481	-12.50216	11.27051
2.45900	-12.54611	11.27051
2.46320	-12.54611	11.27051
2.46754	-12.61203	11.27051
2.47179	-12.65597	11.27051
2.47598	-12.69992	11.27051
2.48018	-12.76584	11.27051
2.48438	-12.80978	11.27051
2.48858	-12.80978	11.27051
2.49278	-12.87570	11.27051
2.49722	-12.91964	11.27051
2.50147	-12.96359	11.27051
2.50569	-13.02951	11.27051
2.50989	-13.09543	11.27051
2.51408	-13.09543	11.27051
2.51830	-13.16134	11.27051
2.52250	-13.20529	11.27051
2.52680	-13.27121	11.27051
2.53106	-13.31515	11.27051
2.53539	-13.35910	11.27051
2.53960	-13.42502	11.27051
2.54380	-13.42502	11.27051
2.54800	-13.46896	11.27051
2.55220	-13.53488	11.27051
2.55657	-13.60080	11.27051
2.56084	-13.66672	11.27051
2.56508	-13.73263	11.27051
2.56935	-13.75461	11.27051
2.57355	-13.75461	11.27051
2.57774	-13.84250	11.27051
2.58195	-13.88644	11.27051
2.58617	-13.95236	11.27051
2.59047	-14.01828	11.27051
2.59473	-14.06222	11.27051
2.59893	-14.06222	11.27051
2.60315	-14.15011	11.27051
2.60734	-14.19406	11.27051
2.61153	-14.25998	11.27051
2.61571	-14.30392	11.27051
2.62014	-14.36984	11.27051
2.62435	-14.43576	11.27051
2.62854	-14.43576	11.27051
2.63273	-14.50168	11.27051
2.63705	-14.56759	11.27051
2.64124	-14.61154	11.27051
2.64547	-14.67746	11.27051
2.64976	-14.74338	11.27051
2.65404	-14.74338	11.27051
2.65824	-14.80929	11.27051
2.66244	-14.87521	11.27051
2.66664	-14.91916	11.27051
2.67083	-15.00705	11.27051
2.67503	-15.05099	11.27051
2.67924	-15.05099	11.27051
2.68352	-15.11691	11.27051
2.68779	-15.18283	11.27051
2.69200	-15.24875	11.27051
2.69619	-15.31466	11.27051
2.70038	-15.35861	11.27051
2.70457	-15.35861	11.27051
2.70876	-15.42453	11.27051
2.71304	-15.49045	11.27051
2.71726	-15.55636	11.27051
2.72147	-15.62228	11.27051
2.72567	-15.66623	11.27051
2.72986	-15.66623	11.27051
2.73405	-15.73214	11.27051
2.73837	-15.79806	11.27051
2.74267	-15.84201	11.27051
2.74693	-15.90793	11.27051
2.75113	-15.97384	11.27051
2.75536	-16.03976	11.27051
2.75955	-16.03976	11.27051
2.76374	-16.08371	11.27051
2.76792	-16.14963	11.27051
2.77212	-16.19357	11.27051
2.77640	-16.25949	11.27051
2.78061	-16.32541	11.27051
2.78480	-16.36935	11.27051
2.78901	-16.36935	11.27051
2.79321	-16.43527	11.27051
2.79739	-16.50119	11.27051
2.80158	-16.56711	11.27051
2.80586	-16.61105	11.27051
2.81010	-16.61105	11.27051
2.81430	-16.67697	11.27051
2.81849	-16.74289	11.27051
2.82270	-16.78683	11.27051
2.82688	-16.83078	11.27051
2.83107	-16.89670	11.27051
2.83534	-16.94064	11.27051
2.83979	-16.94064	11.27051
2.84400	-17.00656	11.27051
2.84819	-17.07248	11.27051
2.85264	-17.11642	11.27051
2.85686	-17.16037	11.27051
2.86106	-17.22629	11.27051
2.86526	-17.22629	11.27051
2.86964	-17.33615	11.27051
2.87388	-17.33615	11.27051
2.87810	-17.38009	11.27051
2.88230	-17.42404	11.27051
2.88649	-17.48996	11.27051
2.89068	-17.53390	11.27051
2.89487	-17.53390	11.27051
2.89934	-17.59982	11.27051
2.90356	-17.64377	11.27051
2.90775	-17.68771	11.27051
2.91193	-17.75363	11.27051
2.91614	-17.79757	11.27051
2.92033	-17.79757	11.27051
2.92452	-17.84152	11.27051
2.92879	-17.90744	11.27051
2.93308	-17.92941	11.27051
2.93732	-17.99533	11.27051
2.94163	-18.03927	11.27051
2.94581	-18.03927	11.27051
2.95000	-18.08322	11.27051
2.95420	-18.12716	11.27051
2.95851	-18.17111	11.27051
2.96286	-18.19308	11.27051
2.96707	-18.25900	11.27051
2.97131	-18.30295	11.27051
2.97550	-18.30295	11.27051
2.97970	-18.34689	11.27051
2.98388	-18.39084	11.27051
2.98808	-18.41281	11.27051
2.99236	-18.45675	11.27051
2.99659	-18.47873	11.27051
3.00078	-18.52267	11.27051
3.00498	-18.52267	11.27051
3.00917	-18.56662	11.27051
3.01336	-18.61056	11.27051
3.01755	-18.63254	11.27051
3.02187	-18.67648	11.27051
3.02610	-18.67648	11.27051
3.03029	-18.69845	11.27051
3.03448	-18.74240	11.27051
3.03871	-18.76437	11.27051
3.04304	-18.80832	11.27051
3.04724	-18.83029	11.27051
3.05152	-18.85226	11.27051
3.05580	-18.85226	11.27051
3.06004	-18.89621	11.27051
3.06424	-18.91818	11.27051
3.06843	-18.96213	11.27051
3.07263	-18.98410	11.27051
3.07683	-19.00607	11.27051
3.08102	-19.02804	11.27051
3.08530	-19.02804	11.27051
3.08955	-19.05002	11.27051
3.09374	-19.07199	11.27051
3.09793	-19.09396	11.27051
3.10211	-19.11593	11.27051
3.10630	-19.13791	11.27051
3.11051	-19.13791	11.27051
3.11477	-19.15988	11.27051
3.11912	-19.18185	11.27051
3.12335	-19.20382	11.27051
3.12754	-19.22580	11.27051
3.13172	-19.24777	11.27051
3.13593	-19.26974	11.27051
3.14014	-19.26974	11.27051
3.14458	-19.26974	11.27051
3.14883	-19.29172	11.27051
3.15307	-19.33566	11.27051
3.15727	-19.31369	11.27051
3.16146	-19.35763	11.27051
3.16565	-19.35763	11.27051
3.16984	-19.35763	11.27051
3.17407	-19.37961	11.27051
3.17827	-19.37961	11.27051
3.18246	-19.40158	11.27051
3.18673	-19.40158	11.27051
3.19098	-19.40158	11.27051
3.19518	-19.40158	11.27051
3.19933	-19.42355	11.27051
3.20353	-19.44552	11.27051
3.20782	-19.44552	11.27051
3.21203	-19.44552	11.27051
3.21622	-19.44552	11.27051
3.22041	-19.44552	11.27051
3.22460	-19.46750	11.27051
3.22878	-19.46750	11.27051
3.23296	-19.48947	11.27051
3.23728	-19.46750	11.27051
3.24149	-19.46750	11.27051
3.24579	-19.46750	11.27051
3.24998	-19.48947	11.27051
3.25430	-19.46750	11.27051
3.25855	-19.48947	11.27051
3.26275	-19.46750	11.27051
3.26696	-19.46750	11.27051
3.27132	-19.46750	11.27051
3.27555	-19.46750	11.27051
3.27974	-19.48947	11.27051
3.28393	-19.48947	11.27051
3.28813	-19.46750	11.27051
3.29232	-19.46750	11.27051
3.29651	-19.46750	11.27051
3.30080	-19.46750	11.27051
3.30506	-19.46750	11.27051
3.30926	-19.46750	11.27051
3.31344	-19.44552	11.27051
3.31763	-19.44552	11.27051
3.32182	-19.44552	11.27051
3.32601	-19.44552	11.27051
3.33030	-19.44552	11.27051
3.33456	-19.42355	11.27051
3.33884	-19.42355	11.27051
3.34304	-19.42355	11.27051
3.34735	-19.40158	11.27051
3.35154	-19.40158	11.27051
3.35572	-19.40158	11.27051
3.35991	-19.37961	11.27051
3.36422	-19.37961	11.27051
3.36842	-19.35763	11.27051
3.37263	-19.33566	11.27051
3.37682	-19.33566	11.27051
3.38100	-19.33566	11.27051
3.38519	-19.31369	11.27051
3.38937	-19.31369	11.27051
3.39380	-19.31369	11.27051
3.39801	-19.26974	11.27051
3.40221	-19.26974	11.27051
3.40639	-19.26974	11.27051
3.41058	-19.24777	11.27051
3.41476	-19.24777	11.27051
3.41895	-19.22580	11.27051
3.42322	-19.20382	11.27051
3.42751	-19.20382	11.27051
3.43170	-19.18185	11.27051
3.43589	-19.15988	11.27051
3.44009	-19.15988	11.27051
3.44428	-19.13791	11.27051
3.44857	-19.11593	11.27051
3.45276	-19.11593	11.27051
3.45705	-19.09396	11.27051
3.46126	-19.07199	11.27051
3.46545	-19.05002	11.27051
3.46963	-19.05002	11.27051
3.47382	-19.02804	11.27051
3.47800	-18.98410	11.27051
3.48219	-18.98410	11.27051
3.48643	-18.98410	11.27051
3.49070	-18.96213	11.27051
3.49489	-18.91818	11.27051
3.49908	-18.91818	11.27051
3.50327	-18.91818	11.27051
3.50746	-18.89621	11.27051
3.51165	-18.87423	11.27051
3.51583	-18.85226	11.27051
3.52013	-18.83029	11.27051
3.52434	-18.80832	11.27051
3.52852	-18.76437	11.27051
3.53271	-18.76437	11.27051
3.53689	-18.74240	11.27051
3.54109	-18.72043	11.27051
3.54528	-18.69845	11.27051
3.54982	-18.67648	11.27051
3.55402	-18.65451	11.27051
3.55821	-18.63254	11.27051
3.56242	-18.63254	11.27051
3.56661	-18.58859	11.27051
3.57080	-18.56662	11.27051
3.57499	-18.54464	11.27051
3.57927	-18.52267	11.27051
3.58354	-18.50070	11.27051
3.58775	-18.50070	11.27051
3.59193	-18.47873	11.27051
3.59612	-18.45675	11.27051
3.60031	-18.41281	11.27051
3.60449	-18.39084	11.27051
3.60867	-18.36886	11.27051
3.61297	-18.36886	11.27051
3.61717	-18.34689	11.27051
3.62136	-18.30295	11.27051
3.62555	-18.28097	11.27051
3.62973	-18.25900	11.27051
3.63392	-18.21506	11.27051
3.63812	-18.19308	11.27051
3.64256	-18.19308	11.27051
3.64678	-18.17111	11.27051
3.65107	-18.14914	11.27051
3.65527	-18.12716	11.27051
3.65946	-18.08322	11.27051
3.66364	-18.06125	11.27051
3.66783	-18.06125	11.27051
3.67208	-18.03927	11.27051
3.67635	-17.99533	11.27051
3.68055	-17.97336	11.27051
3.68474	-17.95138	11.27051
3.68892	-17.92941	11.27051
3.69311	-17.92941	11.27051
3.69729	-17.88547	11.27051
3.70147	-17.86349	11.27051
3.70577	-17.81955	11.27051
3.70997	-17.79757	11.27051
3.71415	-17.79757	11.27051
3.71834	-17.77560	11.27051
3.72252	-17.73166	11.27051
3.72671	-17.73166	11.27051
3.73089	-17.68771	11.27051
3.73514	-17.66574	11.27051
3.73943	-17.64377	11.27051
3.74363	-17.64377	11.27051
3.74782	-17.59982	11.27051
3.75211	-17.57785	11.27051
3.75630	-17.55588	11.27051
3.76048	-17.53390	11.27051
3.76467	-17.48996	11.27051
3.76896	-17.46798	11.27051
3.77316	-17.46798	11.27051
3.77734	-17.44601	11.27051
3.78153	-17.40207	11.27051
3.78571	-17.38009	11.27051
3.78990	-17.35812	11.27051
3.79408	-17.35812	11.27051
3.79832	-17.33615	11.27051
3.80258	-17.29220	11.27051
3.80678	-17.27023	11.27051
3.81096	-17.24826	11.27051
3.81515	-17.22629	11.27051
3.81933	-17.20431	11.27051
3.82351	-17.20431	11.27051
3.82769	-17.16037	11.27051
3.83199	-17.13839	11.27051
3.83620	-17.11642	11.27051
3.84040	-17.09445	11.27051
3.84460	-17.05050	11.27051
3.84879	-17.02853	11.27051
3.85308	-17.02853	11.27051
3.85726	-17.00656	11.27051
3.86169	-16.98459	11.27051
3.86590	-16.96261	11.27051
3.87009	-16.91867	11.27051
3.87427	-16.89670	11.27051
3.87846	-16.89670	11.27051
3.88264	-16.87472	11.27051
3.88683	-16.85275	11.27051
3.89110	-16.83078	11.27051
3.89539	-16.80881	11.27051
3.89960	-16.78683	11.27051
3.90378	-16.78683	11.27051
3.90797	-16.74289	11.27051
3.91216	-16.72091	11.27051
3.91634	-16.69894	11.27051
3.92053	-16.67697	11.27051
3.92483	-16.65500	11.27051
3.92903	-16.65500	11.27051
3.93322	-16.63302	11.27051
3.93741	-16.58908	11.27051
3.94160	-16.56711	11.27051
3.94579	-16.54513	11.27051
3.94998	-16.54513	11.27051
3.95433	-16.52316	11.27051
3.95860	-16.50119	11.27051
3.96283	-16.47922	11.27051
3.96702	-16.45724	11.27051
3.97122	-16.41330	11.27051
3.97541	-16.41330	11.27051
3.97959	-16.39132	11.27051
3.98378	-16.36935	11.27051
3.98808	-16.36935	11.27051
3.99228	-16.32541	11.27051
3.99647	-16.30343	11.27051
4.00066	-16.28146	11.27051
4.00485	-16.28146	11.27051
4.00904	-16.25949	11.27051
4.01322	-16.23752	11.27051
4.01747	-16.21554	11.27051
4.02174	-16.19357	11.27051
4.02597	-16.19357	11.27051
4.03016	-16.14963	11.27051
4.03435	-16.14963	11.27051
4.03857	-16.12765	11.27051
4.04277	-16.10568	11.27051
4.04697	-16.08371	11.27051
4.05130	-16.06173	11.27051
4.05562	-16.03976	11.27051
4.05981	-16.03976	11.27051
4.06401	-16.01779	11.27051
4.06820	-15.99582	11.27051
4.07240	-15.97384	11.27051
4.07658	-15.95187	11.27051
4.08106	-15.92990	11.27051
4.08527	-15.90793	11.27051
4.08946	-15.90793	11.27051
4.09364	-15.88595	11.27051
4.09783	-15.86398	11.27051
4.10201	-15.84201	11.27051
4.10620	-15.84201	11.27051
4.11046	-15.79806	11.27051
4.11474	-15.79806	11.27051
4.11895	-15.79806	11.27051
4.12314	-15.77609	11.27051
4.12733	-15.75412	11.27051
4.13151	-15.73214	11.27051
4.13570	-15.71017	11.27051
4.13990	-15.71017	11.27051
4.14421	-15.68820	11.27051
4.14842	-15.66623	11.27051
4.15261	-15.66623	11.27051
4.15690	-15.64425	11.27051
4.16108	-15.60031	11.27051
4.16527	-15.60031	11.27051
4.16945	-15.60031	11.27051
4.17370	-15.57834	11.27051
4.17796	-15.55636	11.27051
4.18216	-15.53439	11.27051
4.18634	-15.51242	11.27051
4.19053	-15.51242	11.27051
4.19471	-15.51242	11.27051
4.19889	-15.49045	11.27051
4.20309	-15.46847	11.27051
4.20740	-15.44650	11.27051
4.21161	-15.44650	11.27051
4.21579	-15.44650	11.27051
4.21998	-15.42453	11.27051
4.22417	-15.40256	11.27051
4.22835	-15.40256	11.27051
4.23253	-15.38058	11.27051
4.23696	-15.35861	11.27051
4.24119	-15.33664	11.27051
4.24539	-15.33664	11.27051
4.24957	-15.33664	11.27051
4.25376	-15.31466	11.27051
4.25805	-15.29269	11.27051
4.26223	-15.29269	11.27051
4.26649	-15.27072	11.27051
4.27076	-15.27072	11.27051
4.27496	-15.27072	11.27051
4.27914	-15.24875	11.27051
4.28333	-15.22677	11.27051
4.28751	-15.22677	11.27051
4.29170	-15.22677	11.27051
4.29588	-15.22677	11.27051
4.30017	-15.20480	11.27051
4.30439	-15.18283	11.27051
4.30859	-15.18283	11.27051
4.31278	-15.16086	11.27051
4.31697	-15.16086	11.27051
4.32115	-15.16086	11.27051
4.32535	-15.16086	11.27051
4.32963	-15.13888	11.27051
4.33385	-15.13888	11.27051
4.33806	-15.11691	11.27051
4.34227	-15.11691	11.27051
4.34646	-15.11691	11.27051
4.35065	-15.11691	11.27051
4.35486	-15.09494	11.27051
4.35933	-15.09494	11.27051
4.36358	-15.07297	11.27051
4.36778	-15.07297	11.27051
4.37201	-15.07297	11.27051
4.37620	-15.05099	11.27051
4.38039	-15.05099	11.27051
4.38457	-15.05099	11.27051
4.38877	-15.05099	11.27051
4.39305	-15.05099	11.27051
4.39726	-15.02902	11.27051
4.40145	-15.02902	11.27051
4.40566	-15.02902	11.27051
4.40984	-15.02902	11.27051
4.41403	-15.00705	11.27051
4.41821	-15.02902	11.27051
4.42258	-15.00705	11.27051
4.42680	-15.00705	11.27051
4.43099	-15.00705	11.27051
4.43524	-15.00705	11.27051
4.43946	-15.00705	11.27051
4.44366	-15.00705	11.27051
4.44785	-14.98507	11.27051
4.45210	-15.00705	11.27051
4.45639	-15.00705	11.27051
4.46076	-14.98507	11.27051
4.46495	-14.98507	11.27051
4.46916	-14.98507	11.27051
4.47335	-14.98507	11.27051
4.47754	-14.98507	11.27051
4.48172	-14.98507	11.27051
4.48605	-14.98507	11.27051
4.49025	-14.98507	11.27051
4.49444	-14.98507	11.27051
4.49863	-14.98507	11.27051
4.50283	-14.98507	11.27051
4.50702	-14.98507	11.27051
4.51122	-14.98507	11.27051
4.51549	-14.98507	11.27051
4.51977	-14.98507	11.27051
4.52397	-14.98507	11.27051
4.52815	-14.98507	11.27051
4.53234	-14.98507	11.27051
4.53653	-14.98507	11.27051
4.54074	-15.00705	11.27051
4.54493	-14.98507	11.27051
4.54921	-15.00705	11.27051
4.55347	-15.00705	11.27051
4.55766	-15.00705	11.27051
4.56199	-15.00705	11.27051
4.56618	-15.00705	11.27051
4.57037	-15.00705	11.27051
4.57455	-15.02902	11.27051
4.57898	-15.02902	11.27051
4.58318	-15.02902	11.27051
4.58737	-15.02902	11.27051
4.59156	-15.02902	11.27051
4.59576	-15.05099	11.27051
4.59995	-15.05099	11.27051
4.60413	-15.05099	11.27051
4.60841	-15.07297	11.27051
4.61270	-15.07297	11.27051
4.61690	-15.09494	11.27051
4.62110	-15.09494	11.27051
4.62529	-15.09494	11.27051
4.62948	-15.09494	11.27051
4.63367	-15.11691	11.27051
4.63786	-15.11691	11.27051
4.64216	-15.11691	11.27051
4.64640	-15.13888	11.27051
4.65059	-15.13888	11.27051
4.65479	-15.13888	11.27051
4.65898	-15.16086	11.27051
4.66329	-15.16086	11.27051
4.66747	-15.18283	11.27051
4.67190	-15.18283	11.27051
4.67612	-15.18283	11.27051
4.68031	-15.18283	11.27051
4.68450	-15.20480	11.27051
4.68869	-15.20480	11.27051
4.69287	-15.22677	11.27051
4.69705	-15.22677	11.27051
4.70133	-15.24875	11.27051
4.70560	-15.27072	11.27051
4.70983	-15.27072	11.27051
4.71402	-15.29269	11.27051
4.71820	-15.29269	11.27051
4.72241	-15.29269	11.27051
4.72661	-15.29269	11.27051
4.73080	-15.33664	11.27051
4.73517	-15.33664	11.27051
4.73941	-15.35861	11.27051
4.74361	-15.35861	11.27051
4.74780	-15.38058	11.27051
4.75200	-15.38058	11.27051
4.75619	-15.38058	11.27051
4.76038	-15.40256	11.27051
4.76477	-15.42453	11.27051
4.76906	-15.42453	11.27051
4.77325	-15.42453	11.27051
4.77743	-15.44650	11.27051
4.78162	-15.46847	11.27051
4.78580	-15.46847	11.27051
4.78999	-15.49045	11.27051
4.79425	-15.49045	11.27051
4.79853	-15.53439	11.27051
4.80285	-15.53439	11.27051
4.80705	-15.53439	11.27051
4.81126	-15.55636	11.27051
4.81545	-15.57834	11.27051
4.81964	-15.57834	11.27051
4.82383	-15.60031	11.27051
4.82811	-15.60031	11.27051
4.83232	-15.60031	11.27051
4.83654	-15.62228	11.27051
4.84074	-15.64425	11.27051
4.84493	-15.66623	11.27051
4.84912	-15.68820	11.27051
4.85331	-15.71017	11.27051
4.85760	-15.71017	11.27051
4.86182	-15.73214	11.27051
4.86611	-15.73214	11.27051
4.87032	-15.75412	11.27051
4.87451	-15.77609	11.27051
4.87869	-15.79806	11.27051
4.88288	-15.79806	11.27051
4.88725	-15.82004	11.27051
4.89150	-15.82004	11.27051
4.89570	-15.84201	11.27051
4.89989	-15.86398	11.27051
4.90409	-15.88595	11.27051
4.90827	-15.88595	11.27051
4.91246	-15.90793	11.27051
4.91665	-15.90793	11.27051
4.92094	-15.92990	11.27051
4.92516	-15.95187	11.27051
4.92935	-15.97384	11.27051
4.93354	-15.99582	11.27051
4.93773	-15.99582	11.27051
4.94194	-15.99582	11.27051
4.94614	-16.01779	11.27051
4.95044	-16.03976	11.27051
4.95471	-16.08371	11.27051
4.95890	-16.08371	11.27051
4.96312	-16.08371	11.27051
4.96743	-16.10568	11.27051
4.97163	-16.12765	11.27051
4.97582	-16.14963	11.27051
4.98008	-16.17160	11.27051
4.98432	-16.17160	11.27051
4.98855	-16.17160	11.27051
4.99274	-16.21554	11.27051
4.99693	-16.21554	11.27051
5.00112	-16.23752	11.27051
5.00532	-16.25949	11.27051
5.00950	-16.28146	11.27051
5.01379	-16.28146	11.27051
5.01800	-16.30343	11.27051
5.02221	-16.32541	11.27051
5.02643	-16.34738	11.27051
5.03068	-16.36935	11.27051
5.03492	-16.39132	11.27051
5.03914	-16.39132	11.27051
5.04347	-16.41330	11.27051
5.04769	-16.41330	11.27051
5.05195	-16.45724	11.27051
5.05617	-16.45724	11.27051
5.06038	-16.47922	11.27051
5.06460	-16.50119	11.27051
5.06893	-16.50119	11.27051
5.07322	-16.52316	11.27051
5.07746	-16.54513	11.27051
5.08166	-16.56711	11.27051
5.08586	-16.58908	11.27051
5.09005	-16.61105	11.27051
5.09424	-16.61105	11.27051
5.09842	-16.61105	11.27051
5.10261	-16.65500	11.27051
5.10691	-16.65500	11.27051
5.11111	-16.69894	11.27051
5.11531	-16.69894	11.27051
5.11949	-16.72091	11.27051
5.12369	-16.72091	11.27051
5.12788	-16.74289	11.27051
5.13207	-16.74289	11.27051
5.13652	-16.78683	11.27051
5.14078	-16.80881	11.27051
5.14498	-16.83078	11.27051
5.14917	-16.85275	11.27051
5.15337	-16.85275	11.27051
5.15756	-16.85275	11.27051
5.16176	-16.87472	11.27051
5.16603	-16.89670	11.27051
5.17041	-16.91867	11.27051
5.17461	-16.94064	11.27051
5.17879	-16.94064	11.27051
5.18298	-16.94064	11.27051
5.18716	-16.98459	11.27051
5.19133	-16.98459	11.27051
5.19551	-17.02853	11.27051
5.19981	-17.02853	11.27051
5.20405	-17.02853	11.27051
5.20824	-17.05050	11.27051
5.21244	-17.07248	11.27051
5.21662	-17.09445	11.27051
5.22081	-17.11642	11.27051
5.22500	-17.11642	11.27051
5.22928	-17.11642	11.27051
5.23350	-17.13839	11.27051
5.23773	-17.16037	11.27051
5.24194	-17.18234	11.27051
5.24614	-17.20431	11.27051
5.25033	-17.20431	11.27051
5.25452	-17.20431	11.27051
5.25881	-17.22629	11.27051
5.26311	-17.22629	11.27051
5.26732	-17.24826	11.27051
5.27161	-17.27023	11.27051
5.27579	-17.29220	11.27051
5.27998	-17.29220	11.27051
5.28416	-17.31418	11.27051
5.28834	-17.31418	11.27051
5.29265	-17.33615	11.27051
5.29684	-17.35812	11.27051
5.30103	-17.35812	11.27051
5.30521	-17.38009	11.27051
5.30940	-17.38009	11.27051
5.31359	-17.38009	11.27051
5.31777	-17.42404	11.27051
5.32203	-17.42404	11.27051
5.32631	-17.44601	11.27051
5.33051	-17.44601	11.27051
5.33469	-17.44601	11.27051
5.33888	-17.46798	11.27051
5.34310	-17.48996	11.27051
5.34729	-17.48996	11.27051
5.35148	-17.51193	11.27051
5.35578	-17.51193	11.27051
5.35998	-17.51193	11.27051
5.36416	-17.53390	11.27051
5.36835	-17.55588	11.27051
5.37263	-17.55588	11.27051
5.37682	-17.57785	11.27051
5.38100	-17.57785	11.27051
5.38539	-17.59982	11.27051
5.38961	-17.59982	11.27051
5.39379	-17.59982	11.27051
5.39797	-17.62179	11.27051
5.40216	-17.62179	11.27051
5.40634	-17.64377	11.27051
5.41052	-17.64377	11.27051
5.41476	-17.64377	11.27051
5.41904	-17.66574	11.27051
5.42325	-17.66574	11.27051
5.42743	-17.68771	11.27051
5.43162	-17.68771	11.27051
5.43580	-17.70968	11.27051
5.44001	-17.70968	11.27051
5.44420	-17.70968	11.27051
5.44851	-17.70968	11.27051
5.45272	-17.70968	11.27051
5.45690	-17.73166	11.27051
5.46109	-17.73166	11.27051
5.46528	-17.73166	11.27051
5.46947	-17.73166	11.27051
5.47375	-17.75363	11.27051
5.47801	-17.73166	11.27051
5.48227	-17.75363	11.27051
5.48647	-17.75363	11.27051
5.49065	-17.75363	11.27051
5.49484	-17.75363	11.27051
5.49902	-17.77560	11.27051
5.50321	-17.77560	11.27051
5.50740	-17.79757	11.27051
5.51169	-17.77560	11.27051
5.51589	-17.77560	11.27051
5.52007	-17.77560	11.27051
5.52425	-17.79757	11.27051
5.52844	-17.79757	11.27051
5.53262	-17.79757	11.27051
5.53680	-17.79757	11.27051
5.54107	-17.79757	11.27051
5.54536	-17.79757	11.27051
5.54955	-17.79757	11.27051
5.55374	-17.79757	11.27051
5.55792	-17.81955	11.27051
5.56212	-17.79757	11.27051
5.56632	-17.79757	11.27051
5.57050	-17.79757	11.27051
5.57491	-17.79757	11.27051
5.57910	-17.79757	11.27051
5.58330	-17.81955	11.27051
5.58749	-17.79757	11.27051
5.59167	-17.79757	11.27051
5.59585	-17.79757	11.27051
5.60004	-17.79757	11.27051
5.60445	-17.79757	11.27051
5.60866	-17.79757	11.27051
5.61285	-17.79757	11.27051
5.61704	-17.79757	11.27051
5.62123	-17.79757	11.27051
5.62541	-17.77560	11.27051
5.62959	-17.79757	11.27051
5.63383	-17.77560	11.27051
5.63812	-17.77560	11.27051
5.64234	-17.77560	11.27051
5.64653	-17.75363	11.27051
5.65072	-17.75363	11.27051
5.65491	-17.77560	11.27051
5.65909	-17.75363	11.27051
5.66328	-17.75363	11.27051
5.66759	-17.73166	11.27051
5.67178	-17.75363	11.27051
5.67607	-17.75363	11.27051
5.68026	-17.73166	11.27051
5.68445	-17.70968	11.27051
5.68864	-17.73166	11.27051
5.69282	-17.70968	11.27051
5.69707	-17.70968	11.27051
5.70135	-17.70968	11.27051
5.70554	-17.70968	11.27051
5.70973	-17.68771	11.27051
5.71391	-17.68771	11.27051
5.71809	-17.66574	11.27051
5.72228	-17.66574	11.27051
5.72646	-17.66574	11.27051
5.73075	-17.64377	11.27051
5.73496	-17.64377	11.27051
5.73914	-17.64377	11.27051
5.74335	-17.62179	11.27051
5.74754	-17.62179	11.27051
5.75173	-17.62179	11.27051
5.75591	-17.59982	11.27051
5.76016	-17.59982	11.27051
5.76442	-17.57785	11.27051
5.76862	-17.57785	11.27051
5.77280	-17.57785	11.27051
5.77709	-17.55588	11.27051
5.78127	-17.55588	11.27051
5.78546	-17.55588	11.27051
5.78964	-17.53390	11.27051
5.79393	-17.53390	11.27051
5.79813	-17.51193	11.27051
5.80232	-17.51193	11.27051
5.80650	-17.48996	11.27051
5.81068	-17.48996	11.27051
5.81486	-17.48996	11.27051
5.81905	-17.46798	11.27051
5.82331	-17.44601	11.27051
5.82758	-17.44601	11.27051
5.83177	-17.44601	11.27051
5.83595	-17.42404	11.27051
5.84014	-17.40207	11.27051
5.84433	-17.40207	11.27051
5.84852	-17.38009	11.27051
5.85271	-17.38009	11.27051
5.85700	-17.35812	11.27051
5.86121	-17.35812	11.27051
5.86540	-17.35812	11.27051
5.86958	-17.33615	11.27051
5.87377	-17.31418	11.27051
5.87805	-17.31418	11.27051
5.88224	-17.31418	11.27051
5.88667	-17.29220	11.27051
5.89088	-17.29220	11.27051
5.89507	-17.27023	11.27051
5.89926	-17.24826	11.27051
5.90345	-17.24826	11.27051
5.90764	-17.22629	11.27051
5.91183	-17.22629	11.27051
5.91606	-17.20431	11.27051
5.92035	-17.20431	11.27051
5.92454	-17.18234	11.27051
5.92872	-17.18234	11.27051
5.93291	-17.16037	11.27051
5.93709	-17.16037	11.27051
5.94129	-17.13839	11.27051
5.94548	-17.11642	11.27051
5.94980	-17.11642	11.27051
5.95401	-17.09445	11.27051
5.95819	-17.09445	11.27051
5.96240	-17.07248	11.27051
5.96660	-17.07248	11.27051
5.97078	-17.05050	11.27051
5.97497	-17.05050	11.27051
5.97934	-17.02853	11.27051
5.98360	-17.00656	11.27051
5.98780	-17.00656	11.27051
5.99198	-17.00656	11.27051
5.99617	-16.98459	11.27051
6.00035	-16.96261	11.27051
6.00453	-16.94064	11.27051
6.00871	-16.94064	11.27051
6.01301	-16.94064	11.27051
6.01720	-16.91867	11.27051
6.02140	-16.91867	11.27051
6.02558	-16.89670	11.27051
6.02976	-16.87472	11.27051
6.03395	-16.87472	11.27051
6.03813	-16.85275	11.27051
6.04240	-16.85275	11.27051
6.04670	-16.83078	11.27051
6.05089	-16.83078	11.27051
6.05508	-16.80881	11.27051
6.05927	-16.80881	11.27051
6.06347	-16.80881	11.27051
6.06767	-16.78683	11.27051
6.07185	-16.76486	11.27051
6.07615	-16.76486	11.27051
6.08045	-16.74289	11.27051
6.08464	-16.72091	11.27051
6.08882	-16.69894	11.27051
6.09300	-16.69894	11.27051
6.09719	-16.69894	11.27051
6.10137	-16.67697	11.27051
6.10578	-16.67697	11.27051
6.10999	-16.65500	11.27051
6.11417	-16.63302	11.27051
6.11836	-16.63302	11.27051
6.12255	-16.63302	11.27051
6.12673	-16.61105	11.27051
6.13091	-16.61105	11.27051
6.13522	-16.58908	11.27051
6.13952	-16.56711	11.27051
6.14374	-16.56711	11.27051
6.14793	-16.56711	11.27051
6.15213	-16.56711	11.27051
6.15631	-16.54513	11.27051
6.16050	-16.52316	11.27051
6.16468	-16.52316	11.27051
6.16899	-16.50119	11.27051
6.17319	-16.50119	11.27051
6.17737	-16.47922	11.27051
6.18166	-16.47922	11.27051
6.18584	-16.45724	11.27051
6.19003	-16.45724	11.27051
6.19421	-16.43527	11.27051
6.19846	-16.43527	11.27051
6.20274	-16.43527	11.27051
6.20694	-16.41330	11.27051
6.21112	-16.41330	11.27051
6.21531	-16.39132	11.27051
6.21950	-16.39132	11.27051
6.22368	-16.36935	11.27051
6.22786	-16.36935	11.27051
6.23216	-16.36935	11.27051
6.23636	-16.34738	11.27051
6.24054	-16.32541	11.27051
6.24474	-16.32541	11.27051
6.24894	-16.32541	11.27051
6.25313	-16.32541	11.27051
6.25731	-16.30343	11.27051
6.26165	-16.28146	11.27051
6.26589	-16.28146	11.27051
6.27013	-16.25949	11.27051
6.27432	-16.25949	11.27051
6.27850	-16.25949	11.27051
6.28280	-16.25949	11.27051
6.28700	-16.25949	11.27051
6.29128	-16.23752	11.27051
6.29553	-16.23752	11.27051
6.29974	-16.21554	11.27051
6.30395	-16.21554	11.27051
6.30815	-16.21554	11.27051
6.31233	-16.19357	11.27051
6.31652	-16.19357	11.27051
6.32071	-16.19357	11.27051
6.32500	-16.17160	11.27051
6.32921	-16.17160	11.27051
6.33340	-16.17160	11.27051
6.33760	-16.14963	11.27051
6.34183	-16.14963	11.27051
6.34603	-16.14963	11.27051
6.35022	-16.12765	11.27051
6.35458	-16.12765	11.27051
6.35883	-16.12765	11.27051
6.36304	-16.10568	11.27051
6.36723	-16.10568	11.27051
6.37146	-16.10568	11.27051
6.37565	-16.08371	11.27051
6.37983	-16.08371	11.27051
6.38422	-16.08371	11.27051
6.38852	-16.08371	11.27051
6.39274	-16.06173	11.27051
6.39693	-16.06173	11.27051
6.40113	-16.06173	11.27051
6.40533	-16.03976	11.27051
6.40953	-16.03976	11.27051
6.41372	-16.03976	11.27051
6.41816	-16.03976	11.27051
6.42238	-16.03976	11.27051
6.42657	-16.01779	11.27051
6.43076	-16.01779	11.27051
6.43495	-16.01779	11.27051
6.43914	-16.01779	11.27051
6.44335	-16.01779	11.27051
6.44764	-15.99582	11.27051
6.45191	-15.99582	11.27051
6.45611	-15.99582	11.27051
6.46029	-15.97384	11.27051
6.46448	-15.97384	11.27051
6.46866	-15.97384	11.27051
6.47285	-15.97384	11.27051
6.47711	-15.97384	11.27051
6.48139	-15.95187	11.27051
6.48569	-15.97384	11.27051
6.48988	-15.95187	11.27051
6.49406	-15.95187	11.27051
6.49824	-15.95187	11.27051
6.50243	-15.95187	11.27051
6.50661	-15.95187	11.27051
6.51091	-15.95187	11.27051
6.51511	-15.95187	11.27051
6.51931	-15.92990	11.27051
6.52349	-15.92990	11.27051
6.52769	-15.92990	11.27051
6.53187	-15.92990	11.27051
6.53606	-15.92990	11.27051
6.54031	-15.92990	11.27051
6.54460	-15.92990	11.27051
6.54880	-15.92990	11.27051
6.55299	-15.90793	11.27051
6.55718	-15.92990	11.27051
6.56138	-15.90793	11.27051
6.56558	-15.90793	11.27051
6.56977	-15.90793	11.27051
6.57408	-15.90793	11.27051
6.57828	-15.90793	11.27051
6.58247	-15.90793	11.27051
6.58676	-15.90793	11.27051
6.59095	-15.90793	11.27051
6.59513	-15.90793	11.27051
6.59932	-15.90793	11.27051
6.60377	-15.90793	11.27051
6.60797	-15.90793	11.27051
6.61216	-15.90793	11.27051
6.61634	-15.90793	11.27051
6.62053	-15.90793	11.27051
6.62471	-15.90793	11.27051
6.62890	-15.90793	11.27051
6.63315	-15.90793	11.27051
6.63745	-15.90793	11.27051
6.64167	-15.90793	11.27051
6.64586	-15.90793	11.27051
6.65006	-15.90793	11.27051
6.65425	-15.90793	11.27051
6.65844	-15.90793	11.27051
6.66263	-15.90793	11.27051
6.66693	-15.90793	11.27051
6.67114	-15.90793	11.27051
6.67533	-15.90793	11.27051
6.67952	-15.90793	11.27051
6.68370	-15.92990	11.27051
6.68799	-15.92990	11.27051
6.69217	-15.92990	11.27051
6.69642	-15.92990	11.27051
6.70069	-15.92990	11.27051
6.70489	-15.92990	11.27051
6.70907	-15.92990	11.27051
6.71325	-15.92990	11.27051
6.71744	-15.92990	11.27051
6.72162	-15.92990	11.27051
6.72581	-15.95187	11.27051
6.73011	-15.95187	11.27051
6.73432	-15.95187	11.27051
6.73850	-15.95187	11.27051
6.74271	-15.95187	11.27051
6.74690	-15.97384	11.27051
6.75109	-15.97384	11.27051
6.75529	-15.97384	11.27051
6.75976	-15.97384	11.27051
6.76397	-15.97384	11.27051
6.76815	-15.99582	11.27051
6.77234	-15.99582	11.27051
6.77652	-15.99582	11.27051
6.78071	-15.99582	11.27051
6.78489	-16.01779	11.27051
6.78926	-16.01779	11.27051
6.79356	-16.01779	11.27051
6.79776	-16.01779	11.27051
6.80195	-16.01779	11.27051
6.80613	-16.03976	11.27051
6.81032	-16.03976	11.27051
6.81450	-16.03976	11.27051
6.81869	-16.06173	11.27051
6.82298	-16.06173	11.27051
6.82720	-16.08371	11.27051
6.83139	-16.08371	11.27051
6.83557	-16.08371	11.27051
6.83976	-16.08371	11.27051
6.84396	-16.10568	11.27051
6.84815	-16.10568	11.27051
6.85242	-16.12765	11.27051
6.85670	-16.12765	11.27051
6.86090	-16.12765	11.27051
6.86509	-16.14963	11.27051
6.86927	-16.14963	11.27051
6.87346	-16.14963	11.27051
6.87764	-16.17160	11.27051
6.88182	-16.17160	11.27051
6.88612	-16.19357	11.27051
6.89043	-16.19357	11.27051
6.89462	-16.19357	11.27051
6.89880	-16.19357	11.27051
6.90298	-16.21554	11.27051
6.90717	-16.21554	11.27051
6.91133	-16.21554	11.27051
6.91576	-16.23752	11.27051
6.91997	-16.23752	11.27051
6.92416	-16.25949	11.27051
6.92834	-16.28146	11.27051
6.93254	-16.28146	11.27051
6.93672	-16.30343	11.27051
6.94090	-16.30343	11.27051
6.94518	-16.30343	11.27051
6.94948	-16.30343	11.27051
6.95369	-16.32541	11.27051
6.95788	-16.32541	11.27051
6.96209	-16.34738	11.27051
6.96628	-16.34738	11.27051
6.97047	-16.34738	11.27051
6.97466	-16.36935	11.27051
6.97896	-16.39132	11.27051
6.98317	-16.39132	11.27051
6.98733	-16.41330	11.27051
6.99162	-16.41330	11.27051
6.99581	-16.41330	11.27051
6.99999	-16.43527	11.27051
7.00417	-16.43527	11.27051
7.00842	-16.45724	11.27051
7.01269	-16.45724	11.27051
7.01688	-16.45724	11.27051
7.02107	-16.47922	11.27051
7.02526	-16.50119	11.27051
7.02944	-16.50119	11.27051
7.03363	-16.52316	11.27051
7.03781	-16.52316	11.27051
7.04220	-16.52316	11.27051
7.04642	-16.54513	11.27051
7.05061	-16.56711	11.27051
7.05480	-16.56711	11.27051
7.05898	-16.58908	11.27051
7.06317	-16.58908	11.27051
7.06733	-16.61105	11.27051
7.07179	-16.61105	11.27051
7.07599	-16.61105	11.27051
7.08017	-16.63302	11.27051
7.08436	-16.65500	11.27051
7.08854	-16.65500	11.27051
7.09283	-16.67697	11.27051
7.09701	-16.67697	11.27051
7.10126	-16.67697	11.27051
7.10554	-16.69894	11.27051
7.10974	-16.69894	11.27051
7.11392	-16.72091	11.27051
7.11811	-16.74289	11.27051
7.12230	-16.74289	11.27051
7.12648	-16.74289	11.27051
7.13067	-16.76486	11.27051
7.13497	-16.76486	11.27051
7.13918	-16.78683	11.27051
7.14335	-16.80881	11.27051
7.14755	-16.80881	11.27051
7.15174	-16.80881	11.27051
7.15592	-16.83078	11.27051
7.16011	-16.83078	11.27051
7.16436	-16.85275	11.27051
7.16863	-16.85275	11.27051
7.17282	-16.87472	11.27051
7.17701	-16.89670	11.27051
7.18119	-16.89670	11.27051
7.18538	-16.89670	11.27051
7.18956	-16.91867	11.27051
7.19385	-16.91867	11.27051
7.19814	-16.94064	11.27051
7.20235	-16.94064	11.27051
7.20653	-16.94064	11.27051
7.21072	-16.96261	11.27051
7.21490	-16.96261	11.27051
7.21908	-16.98459	11.27051
7.22328	-17.00656	11.27051
7.22773	-17.00656	11.27051
7.23193	-17.00656	11.27051
7.23612	-17.00656	11.27051
7.24031	-17.02853	11.27051
7.24451	-17.02853	11.27051
7.24871	-17.05050	11.27051
7.25290	-17.05050	11.27051
7.25716	-17.05050	11.27051
7.26146	-17.07248	11.27051
7.26566	-17.07248	11.27051
7.26985	-17.09445	11.27051
7.27404	-17.09445	11.27051
7.27822	-17.09445	11.27051
7.28240	-17.09445	11.27051
7.28659	-17.11642	11.27051
7.29089	-17.11642	11.27051
7.29521	-17.13839	11.27051
7.29940	-17.11642	11.27051
7.30359	-17.11642	11.27051
7.30777	-17.13839	11.27051
7.31195	-17.16037	11.27051
7.31614	-17.13839	11.27051
7.32038	-17.18234	11.27051
7.32466	-17.16037	11.27051
7.32885	-17.18234	11.27051
7.33304	-17.18234	11.27051
7.33723	-17.18234	11.27051
7.34141	-17.18234	11.27051
7.34561	-17.20431	11.27051
7.34981	-17.20431	11.27051
7.35411	-17.20431	11.27051
7.35831	-17.22629	11.27051
7.36250	-17.22629	11.27051
7.36669	-17.22629	11.27051
7.37087	-17.22629	11.27051
7.37506	-17.22629	11.27051
7.37928	-17.24826	11.27051
7.38354	-17.24826	11.27051
7.38782	-17.24826	11.27051
7.39201	-17.24826	11.27051
7.39631	-17.24826	11.27051
7.40049	-17.24826	11.27051
7.40469	-17.27023	11.27051
7.40888	-17.24826	11.27051
7.41308	-17.24826	11.27051
7.41736	-17.27023	11.27051
7.42160	-17.27023	11.27051
7.42578	-17.29220	11.27051
7.42997	-17.29220	11.27051
7.43415	-17.29220	11.27051
7.43834	-17.29220	11.27051
7.44256	-17.29220	11.27051
7.44695	-17.29220	11.27051
7.45133	-17.31418	11.27051
7.45552	-17.31418	11.27051
7.45971	-17.29220	11.27051
7.46390	-17.31418	11.27051
7.46809	-17.31418	11.27051
7.47227	-17.31418	11.27051
7.47654	-17.31418	11.27051
7.48079	-17.31418	11.27051
7.48503	-17.31418	11.27051
7.48921	-17.31418	11.27051
7.49340	-17.31418	11.27051
7.49769	-17.31418	11.27051
7.50188	-17.33615	11.27051
7.50607	-17.31418	11.27051
7.51034	-17.31418	11.27051
7.51455	-17.31418	11.27051
7.51877	-17.31418	11.27051
7.52296	-17.31418	11.27051
7.52715	-17.31418	11.27051
7.53132	-17.31418	11.27051
7.53552	-17.31418	11.27051
7.53978	-17.31418	11.27051
7.54403	-17.31418	11.27051
7.54824	-17.31418	11.27051
7.55245	-17.31418	11.27051
7.55663	-17.31418	11.27051
7.56082	-17.31418	11.27051
7.56500	-17.31418	11.27051
7.56919	-17.31418	11.27051
7.57349	-17.31418	11.27051
7.57769	-17.31418	11.27051
7.58188	-17.29220	11.27051
7.58607	-17.31418	11.27051
7.59026	-17.29220	11.27051
7.59444	-17.29220	11.27051
7.59873	-17.29220	11.27051
7.60316	-17.29220	11.27051
7.60735	-17.29220	11.27051
7.61153	-17.29220	11.27051
7.61572	-17.29220	11.27051
7.61990	-17.29220	11.27051
7.62409	-17.29220	11.27051
7.62827	-17.27023	11.27051
7.63251	-17.29220	11.27051
7.63680	-17.27023	11.27051
7.64099	-17.27023	11.27051
7.64520	-17.27023	11.27051
7.64939	-17.24826	11.27051
7.65358	-17.24826	11.27051
7.65776	-17.27023	11.27051
7.66195	-17.24826	11.27051
7.66625	-17.24826	11.27051
7.67046	-17.22629	11.27051
7.67464	-17.22629	11.27051
7.67883	-17.22629	11.27051
7.68302	-17.22629	11.27051
7.68722	-17.22629	11.27051
7.69141	-17.22629	11.27051
7.69566	-17.22629	11.27051
7.70003	-17.22629	11.27051
7.70422	-17.20431	11.27051
7.70841	-17.20431	11.27051
7.71259	-17.20431	11.27051
7.71678	-17.20431	11.27051
7.72096	-17.18234	11.27051
7.72514	-17.18234	11.27051
7.72944	-17.18234	11.27051
7.73366	-17.18234	11.27051
7.73787	-17.18234	11.27051
7.74206	-17.16037	11.27051
7.74626	-17.16037	11.27051
7.75045	-17.16037	11.27051
7.75463	-17.16037	11.27051
7.75910	-17.16037	11.27051
7.76332	-17.16037	11.27051
7.76751	-17.13839	11.27051
7.77170	-17.13839	11.27051
7.77588	-17.13839	11.27051
7.78007	-17.11642	11.27051
7.78425	-17.11642	11.27051
7.78851	-17.11642	11.27051
7.79280	-17.11642	11.27051
7.79700	-17.11642	11.27051
7.80128	-17.09445	11.27051
7.80547	-17.09445	11.27051
7.80965	-17.09445	11.27051
7.81383	-17.09445	11.27051
7.81802	-17.07248	11.27051
7.82232	-17.09445	11.27051
7.82652	-17.07248	11.27051
7.83071	-17.07248	11.27051
7.83489	-17.07248	11.27051
7.83909	-17.07248	11.27051
7.84329	-17.05050	11.27051
7.84748	-17.07248	11.27051
7.85174	-17.05050	11.27051
7.85603	-17.05050	11.27051
7.86022	-17.05050	11.27051
7.86441	-17.05050	11.27051
7.86859	-17.02853	11.27051
7.87278	-17.02853	11.27051
7.87696	-17.02853	11.27051
7.88114	-17.02853	11.27051
7.88544	-17.02853	11.27051
7.88964	-17.02853	11.27051
7.89382	-17.00656	11.27051
7.89800	-17.00656	11.27051
7.90229	-16.98459	11.27051
7.90647	-17.00656	11.27051
7.91066	-16.98459	11.27051
7.91507	-16.98459	11.27051
7.91929	-16.98459	11.27051
7.92348	-16.98459	11.27051
7.92766	-16.98459	11.27051
7.93185	-16.96261	11.27051
7.93604	-16.96261	11.27051
7.94022	-16.96261	11.27051
7.94451	-16.96261	11.27051
7.94881	-16.94064	11.27051
7.95302	-16.96261	11.27051
7.95720	-16.94064	11.27051
7.96139	-16.91867	11.27051
7.96560	-16.94064	11.27051
7.96979	-16.94064	11.27051
7.97398	-16.91867	11.27051
7.97830	-16.91867	11.27051
7.98250	-16.91867	11.27051
7.98669	-16.91867	11.27051
7.99088	-16.91867	11.27051
7.99507	-16.89670	11.27051
7.99927	-16.89670	11.27051
8.00357	-16.89670	11.27051
8.00801	-16.87472	11.27051
8.01222	-16.87472	11.27051
8.01641	-16.87472	11.27051
8.02062	-16.85275	11.27051
8.02482	-16.85275	11.27051
8.02901	-16.87472	11.27051
8.03320	-16.85275	11.27051
8.03747	-16.85275	11.27051
8.04177	-16.83078	11.27051
8.04599	-16.83078	11.27051
8.05019	-16.85275	11.27051
8.05438	-16.83078	11.27051
8.05857	-16.83078	11.27051
8.06276	-16.83078	11.27051
8.06694	-16.80881	11.27051
8.07126	-16.80881	11.27051
8.07546	-16.80881	11.27051
8.07965	-16.80881	11.27051
8.08383	-16.80881	11.27051
8.08802	-16.78683	11.27051
8.09220	-16.78683	11.27051
8.09638	-16.78683	11.27051
8.10064	-16.78683	11.27051
8.10501	-16.76486	11.27051
8.10921	-16.78683	11.27051
8.11339	-16.76486	11.27051
8.11757	-16.76486	11.27051
8.12176	-16.76486	11.27051
8.12594	-16.76486	11.27051
8.13012	-16.74289	11.27051
8.13442	-16.74289	11.27051
8.13865	-16.74289	11.27051
8.14284	-16.74289	11.27051
8.14703	-16.74289	11.27051
8.15124	-16.74289	11.27051
8.15542	-16.72091	11.27051
8.15962	-16.72091	11.27051
8.16403	-16.72091	11.27051
8.16825	-16.72091	11.27051
8.17244	-16.72091	11.27051
8.17662	-16.69894	11.27051
8.18081	-16.69894	11.27051
8.18499	-16.69894	11.27051
8.18917	-16.67697	11.27051
8.19341	-16.69894	11.27051
8.19770	-16.67697	11.27051
8.20190	-16.67697	11.27051
8.20619	-16.67697	11.27051
8.21037	-16.67697	11.27051
8.21455	-16.67697	11.27051
8.21874	-16.67697	11.27051
8.22292	-16.65500	11.27051
8.22723	-16.65500	11.27051
8.23143	-16.65500	11.27051
8.23562	-16.65500	11.27051
8.23980	-16.65500	11.27051
8.24400	-16.65500	11.27051
8.24820	-16.63302	11.27051
8.25239	-16.65500	11.27051
8.25664	-16.63302	11.27051
8.26092	-16.63302	11.27051
8.26511	-16.63302	11.27051
8.26930	-16.63302	11.27051
8.27348	-16.63302	11.27051
8.27767	-16.63302	11.27051
8.28185	-16.61105	11.27051
8.28603	-16.61105	11.27051
8.29033	-16.63302	11.27051
8.29453	-16.61105	11.27051
8.29872	-16.61105	11.27051
8.30290	-16.61105	11.27051
8.30719	-16.61105	11.27051
8.31138	-16.61105	11.27051
8.31556	-16.61105	11.27051
8.31996	-16.58908	11.27051
8.32417	-16.61105	11.27051
8.32836	-16.58908	11.27051
8.33254	-16.58908	11.27051
8.33672	-16.58908	11.27051
8.34091	-16.58908	11.27051
8.34510	-16.56711	11.27051
8.34937	-16.58908	11.27051
8.35365	-16.56711	11.27051
8.35785	-16.56711	11.27051
8.36202	-16.56711	11.27051
8.36620	-16.56711	11.27051
8.37037	-16.54513	11.27051
8.37456	-16.56711	11.27051
8.37874	-16.54513	11.27051
8.38303	-16.54513	11.27051
8.38723	-16.54513	11.27051
8.39141	-16.54513	11.27051
8.39559	-16.54513	11.27051
8.39976	-16.54513	11.27051
8.40394	-16.52316	11.27051
8.40821	-16.54513	11.27051
8.41246	-16.54513	11.27051
8.41672	-16.52316	11.27051
8.42091	-16.52316	11.27051
8.42508	-16.52316	11.27051
8.42926	-16.52316	11.27051
8.43343	-16.52316	11.27051
8.43761	-16.50119	11.27051
8.44179	-16.50119	11.27051
8.44610	-16.50119	11.27051
8.45031	-16.50119	11.27051
8.45449	-16.50119	11.27051
8.45869	-16.50119	11.27051
8.46287	-16.47922	11.27051
8.46705	-16.47922	11.27051
8.47124	-16.47922	11.27051
8.47569	-16.47922	11.27051
8.47988	-16.47922	11.27051
8.48406	-16.47922	11.27051
8.48824	-16.45724	11.27051
8.49241	-16.45724	11.27051
8.49659	-16.45724	11.27051
8.50077	-16.45724	11.27051
8.50500	-16.45724	11.27051
8.50938	-16.45724	11.27051
8.51356	-16.45724	11.27051
8.51774	-16.43527	11.27051
8.52192	-16.43527	11.27051
8.52609	-16.43527	11.27051
8.53026	-16.43527	11.27051
8.53444	-16.41330	11.27051
8.53873	-16.43527	11.27051
8.54292	-16.41330	11.27051
8.54712	-16.41330	11.27051
8.55132	-16.41330	11.27051
8.55551	-16.41330	11.27051
8.55969	-16.39132	11.27051
8.56388	-16.39132	11.27051
8.56814	-16.39132	11.27051
8.57241	-16.39132	11.27051
8.57660	-16.39132	11.27051
8.58079	-16.39132	11.27051
8.58497	-16.36935	11.27051
8.58916	-16.36935	11.27051
8.59334	-16.36935	11.27051
8.59752	-16.36935	11.27051
8.60182	-16.36935	11.27051
8.60602	-16.34738	11.27051
8.61031	-16.34738	11.27051
8.61449	-16.34738	11.27051
8.61868	-16.34738	11.27051
8.62286	-16.34738	11.27051
8.62705	-16.34738	11.27051
8.63147	-16.32541	11.27051
8.63569	-16.32541	11.27051
8.63988	-16.32541	11.27051
8.64411	-16.32541	11.27051
8.64830	-16.32541	11.27051
8.65248	-16.32541	11.27051
8.65668	-16.30343	11.27051
8.66093	-16.30343	11.27051
8.66521	-16.30343	11.27051
8.66942	-16.30343	11.27051
8.67360	-16.28146	11.27051
8.67780	-16.28146	11.27051
8.68199	-16.28146	11.27051
8.68617	-16.28146	11.27051
8.69035	-16.25949	11.27051
8.69466	-16.28146	11.27051
8.69886	-16.25949	11.27051
8.70304	-16.25949	11.27051
8.70724	-16.25949	11.27051
8.71153	-16.25949	11.27051
8.71571	-16.23752	11.27051
8.71989	-16.25949	11.27051
8.72414	-16.23752	11.27051
8.72841	-16.23752	11.27051
8.73260	-16.23752	11.27051
8.73679	-16.23752	11.27051
8.74097	-16.23752	11.27051
8.74517	-16.21554	11.27051
8.74937	-16.21554	11.27051
8.75356	-16.21554	11.27051
8.75786	-16.21554	11.27051
8.76206	-16.21554	11.27051
8.76625	-16.21554	11.27051
8.77045	-16.19357	11.27051
8.77464	-16.19357	11.27051
8.77882	-16.19357	11.27051
8.78301	-16.19357	11.27051
8.78727	-16.19357	11.27051
8.79154	-16.19357	11.27051
8.79573	-16.17160	11.27051
8.79992	-16.19357	11.27051
8.80410	-16.17160	11.27051
8.80829	-16.17160	11.27051
8.81258	-16.17160	11.27051
8.81676	-16.17160	11.27051
8.82106	-16.14963	11.27051
8.82526	-16.14963	11.27051
8.82944	-16.14963	11.27051
8.83362	-16.14963	11.27051
8.83781	-16.14963	11.27051
8.84199	-16.14963	11.27051
8.84619	-16.12765	11.27051
8.85045	-16.14963	11.27051
8.85474	-16.12765	11.27051
8.85894	-16.12765	11.27051
8.86312	-16.12765	11.27051
8.86731	-16.12765	11.27051
8.87150	-16.12765	11.27051
8.87568	-16.12765	11.27051
8.87986	-16.10568	11.27051
8.88415	-16.10568	11.27051
8.88835	-16.10568	11.27051
8.89253	-16.10568	11.27051
8.89671	-16.10568	11.27051
8.90090	-16.08371	11.27051
8.90508	-16.08371	11.27051
8.90926	-16.08371	11.27051
8.91362	-16.08371	11.27051
8.91794	-16.08371	11.27051
8.92215	-16.08371	11.27051
8.92635	-16.06173	11.27051
8.93054	-16.08371	11.27051
8.93473	-16.06173	11.27051
8.93892	-16.06173	11.27051
8.94317	-16.06173	11.27051
8.94743	-16.06173	11.27051
8.95164	-16.06173	11.27051
8.95583	-16.06173	11.27051
8.96001	-16.03976	11.27051
8.96420	-16.03976	11.27051
8.96838	-16.03976	11.27051
8.97257	-16.03976	11.27051
8.97687	-16.03976	11.27051
8.98108	-16.03976	11.27051
8.98527	-16.01779	11.27051
8.98945	-16.03976	11.27051
8.99364	-16.03976	11.27051
8.99782	-16.03976	11.27051
9.00201	-16.01779	11.27051
9.00626	-16.01779	11.27051
9.01053	-16.01779	11.27051
9.01483	-16.01779	11.27051
9.01902	-16.01779	11.27051
9.02321	-16.01779	11.27051
9.02740	-16.01779	11.27051
9.03158	-15.99582	11.27051
9.03577	-15.99582	11.27051
9.04007	-15.99582	11.27051
9.04427	-15.99582	11.27051
9.04845	-15.99582	11.27051
9.05264	-15.99582	11.27051
9.05682	-15.99582	11.27051
9.06101	-15.99582	11.27051
9.06524	-15.99582	11.27051
9.06971	-15.99582	11.27051
9.07392	-15.97384	11.27051
9.07811	-15.99582	11.27051
9.08231	-15.97384	11.27051
9.08650	-15.97384	11.27051
9.09069	-15.97384	11.27051
9.09488	-15.97384	11.27051
9.09915	-15.97384	11.27051
9.10345	-15.97384	11.27051
9.10766	-15.97384	11.27051
9.11185	-15.97384	11.27051
9.11615	-15.97384	11.27051
9.12034	-15.97384	11.27051
9.12453	-15.97384	11.27051
9.12872	-15.97384	11.27051
9.13303	-15.95187	11.27051
9.13726	-15.97384	11.27051
9.14145	-15.95187	11.27051
9.14564	-15.97384	11.27051
9.14983	-15.97384	11.27051
9.15402	-15.95187	11.27051
9.15821	-15.95187	11.27051
9.16265	-15.95187	11.27051
9.16687	-15.97384	11.27051
9.17107	-15.95187	11.27051
9.17527	-15.95187	11.27051
9.17946	-15.95187	11.27051
9.18365	-15.97384	11.27051
9.18784	-15.95187	11.27051
9.19210	-15.95187	11.27051
9.19638	-15.95187	11.27051
9.20059	-15.95187	11.27051
9.20478	-15.95187	11.27051
9.20897	-15.97384	11.27051
9.21316	-15.95187	11.27051
9.21746	-15.95187	11.27051
9.22165	-15.95187	11.27051
9.22595	-15.95187	11.27051
9.23016	-15.97384	11.27051
9.23435	-15.97384	11.27051
9.23853	-15.95187	11.27051
9.24271	-15.95187	11.27051
9.24690	-15.95187	11.27051
9.25108	-15.97384	11.27051
9.25534	-15.97384	11.27051
9.25961	-15.95187	11.27051
9.26384	-15.95187	11.27051
9.26804	-15.95187	11.27051
9.27222	-15.95187	11.27051
9.27641	-15.97384	11.27051
9.28059	-15.95187	11.27051
9.28477	-15.95187	11.27051
9.28907	-15.95187	11.27051
9.29327	-15.97384	11.27051
9.29746	-15.95187	11.27051
9.30164	-15.97384	11.27051
9.30583	-15.95187	11.27051
9.31001	-15.95187	11.27051
9.31419	-15.97384	11.27051
9.31856	-15.97384	11.27051
9.32282	-15.97384	11.27051
9.32701	-15.97384	11.27051
9.33121	-15.97384	11.27051
9.33539	-15.97384	11.27051
9.33958	-15.97384	11.27051
9.34376	-15.97384	11.27051
9.34794	-15.97384	11.27051
9.35224	-15.97384	11.27051
9.35644	-15.97384	11.27051
9.36062	-15.97384	11.27051
9.36480	-15.97384	11.27051
9.36899	-15.97384	11.27051
9.37317	-15.97384	11.27051
9.37736	-15.97384	11.27051
9.38161	-15.97384	11.27051
9.38587	-15.97384	11.27051
9.39007	-15.97384	11.27051
9.39425	-15.97384	11.27051
9.39844	-15.97384	11.27051
9.40262	-15.97384	11.27051
9.40680	-15.99582	11.27051
9.41099	-15.99582	11.27051
9.41530	-15.97384	11.27051
9.41961	-15.97384	11.27051
9.42380	-15.99582	11.27051
9.42798	-15.97384	11.27051
9.43217	-15.99582	11.27051
9.43635	-15.99582	11.27051
9.44053	-15.97384	11.27051
9.44498	-15.99582	11.27051
9.44918	-15.99582	11.27051
9.45337	-15.99582	11.27051
9.45756	-15.99582	11.27051
9.46174	-15.99582	11.27051
9.46592	-15.99582	11.27051
9.47010	-15.99582	11.27051
9.47436	-15.99582	11.27051
9.47865	-15.99582	11.27051
9.48285	-15.99582	11.27051
9.48704	-16.01779	11.27051
9.49123	-16.01779	11.27051
9.49544	-16.01779	11.27051
9.49963	-15.99582	11.27051
9.50382	-16.01779	11.27051
9.50811	-15.99582	11.27051
9.51231	-16.01779	11.27051
9.51649	-16.01779	11.27051
9.52078	-16.01779	11.27051
9.52497	-16.01779	11.27051
9.52915	-16.01779	11.27051
9.53334	-16.01779	11.27051
9.53758	-16.01779	11.27051
9.54185	-16.01779	11.27051
9.54605	-16.01779	11.27051
9.55024	-16.01779	11.27051
9.55443	-16.01779	11.27051
9.55861	-16.01779	11.27051
9.56279	-16.03976	11.27051
9.56700	-16.01779	11.27051
9.57133	-16.01779	11.27051
9.57554	-16.01779	11.27051
9.57974	-16.01779	11.27051
9.58393	-16.01779	11.27051
9.58811	-16.03976	11.27051
9.59230	-16.03976	11.27051
9.59649	-16.01779	11.27051
9.60092	-16.03976	11.27051
9.60512	-16.03976	11.27051
9.60931	-16.03976	11.27051
9.61349	-16.03976	11.27051
9.61768	-16.03976	11.27051
9.62196	-16.03976	11.27051
9.62615	-16.03976	11.27051
9.63040	-16.03976	11.27051
9.63467	-16.03976	11.27051
9.63886	-16.03976	11.27051
9.64305	-16.03976	11.27051
9.64725	-16.03976	11.27051
9.65143	-16.06173	11.27051
9.65562	-16.06173	11.27051
9.65980	-16.06173	11.27051
9.66410	-16.06173	11.27051
9.66830	-16.06173	11.27051
9.67249	-16.06173	11.27051
9.67668	-16.06173	11.27051
9.68086	-16.06173	11.27051
9.68505	-16.06173	11.27051
9.68923	-16.06173	11.27051
9.69348	-16.06173	11.27051
9.69774	-16.06173	11.27051
9.70194	-16.06173	11.27051
9.70612	-16.06173	11.27051
9.71031	-16.08371	11.27051
9.71449	-16.06173	11.27051
9.71868	-16.08371	11.27051
9.72296	-16.08371	11.27051
9.72727	-16.08371	11.27051
9.73147	-16.08371	11.27051
9.73566	-16.08371	11.27051
9.73984	-16.08371	11.27051
9.74403	-16.10568	11.27051
9.74821	-16.08371	11.27051
9.75240	-16.10568	11.27051
9.75684	-16.10568	11.27051
9.76105	-16.10568	11.27051
9.76524	-16.08371	11.27051
9.76943	-16.10568	11.27051
9.77363	-16.10568	11.27051
9.77781	-16.10568	11.27051
9.78200	-16.10568	11.27051
9.78627	-16.10568	11.27051
9.79056	-16.10568	11.27051
9.79476	-16.10568	11.27051
9.79896	-16.10568	11.27051
9.80315	-16.10568	11.27051
9.80733	-16.10568	11.27051
9.81152	-16.10568	11.27051
9.81571	-16.10568	11.27051
9.82002	-16.10568	11.27051
9.82433	-16.10568	11.27051
9.82852	-16.12765	11.27051
9.83271	-16.12765	11.27051
9.83690	-16.10568	11.27051
9.84109	-16.12765	11.27051
9.84528	-16.10568	11.27051
9.84955	-16.12765	11.27051
9.85382	-16.12765	11.27051
9.85802	-16.12765	11.27051
9.86222	-16.12765	11.27051
9.86641	-16.12765	11.27051
9.87059	-16.12765	11.27051
9.87478	-16.12765	11.27051
9.87897	-16.12765	11.27051
9.88330	-16.12765	11.27051
9.88751	-16.12765	11.27051
9.89170	-16.12765	11.27051
9.89589	-16.12765	11.27051
9.90008	-16.14963	11.27051
9.90426	-16.12765	11.27051
9.90845	-16.14963	11.27051
9.91287	-16.14963	11.27051
9.91709	-16.12765	11.27051
9.92129	-16.12765	11.27051
9.92559	-16.14963	11.27051
9.92978	-16.12765	11.27051
9.93397	-16.14963	11.27051
9.93816	-16.14963	11.27051
9.94242	-16.12765	11.27051
9.94670	-16.14963	11.27051
9.95091	-16.14963	11.27051
9.95510	-16.12765	11.27051
9.95930	-16.14963	11.27051
9.96349	-16.12765	11.27051
9.96768	-16.12765	11.27051
9.97187	-16.14963	11.27051
9.97616	-16.14963	11.27051
9.98037	-16.14963	11.27051
9.98456	-16.14963	11.27051
9.98876	-16.14963	11.27051
9.99294	-16.14963	11.27051
9.99713	-16.14963	11.27051
10.00132	-16.14963	11.27051
10.00559	-16.14963	11.27051
10.00983	-16.14963	11.27051
10.01403	-16.14963	11.27051
10.01823	-16.14963	11.27051
10.02242	-16.14963	11.27051
10.02672	-16.14963	11.27051
10.03091	-16.17160	11.27051
10.03509	-16.14963	11.27051
10.03940	-16.14963	11.27051
10.04361	-16.17160	11.27051
10.04780	-16.17160	11.27051
10.05198	-16.14963	11.27051
10.05617	-16.17160	11.27051
10.06035	-16.17160	11.27051
10.06453	-16.17160	11.27051
10.06900	-16.17160	11.27051
10.07322	-16.17160	11.27051
10.07742	-16.17160	11.27051
10.08161	-16.17160	11.27051
10.08580	-16.17160	11.27051
10.09002	-16.17160	11.27051
10.09421	-16.17160	11.27051
10.09848	-16.17160	11.27051
10.10276	-16.17160	11.27051
10.10697	-16.17160	11.27051
10.11116	-16.17160	11.27051
10.11533	-16.17160	11.27051
10.11952	-16.17160	11.27051
10.12371	-16.17160	11.27051
10.12802	-16.19357	11.27051
10.13231	-16.17160	11.27051
10.13654	-16.19357	11.27051
10.14074	-16.19357	11.27051
10.14493	-16.19357	11.27051
10.14913	-16.19357	11.27051
10.15332	-16.19357	11.27051
10.15751	-16.19357	11.27051
10.16191	-16.19357	11.27051
10.16613	-16.19357	11.27051
10.17033	-16.19357	11.27051
10.17452	-16.21554	11.27051
10.17870	-16.21554	11.27051
10.18289	-16.19357	11.27051
10.18708	-16.19357	11.27051
10.19135	-16.19357	11.27051
10.19562	-16.21554	11.27051
10.19983	-16.19357	11.27051
10.20402	-16.19357	11.27051
10.20821	-16.21554	11.27051
10.21240	-16.21554	11.27051
10.21658	-16.19357	11.27051
10.22076	-16.21554	11.27051
10.22505	-16.21554	11.27051
10.22936	-16.21554	11.27051
10.23355	-16.21554	11.27051
10.23774	-16.23752	11.27051
10.24192	-16.21554	11.27051
10.24611	-16.23752	11.27051
10.25030	-16.21554	11.27051
10.25526	-16.23752	11.27051
10.25957	-16.21554	11.27051
10.26383	-16.21554	11.27051
10.26805	-16.23752	11.27051
10.27224	-16.23752	11.27051
10.27644	-16.23752	11.27051
10.28063	-16.23752	11.27051
10.28493	-16.23752	11.27051
10.28921	-16.23752	11.27051
10.29341	-16.23752	11.27051
10.29760	-16.25949	11.27051
10.30179	-16.23752	11.27051
10.30598	-16.25949	11.27051
10.31017	-16.23752	11.27051
10.31436	-16.23752	11.27051
10.31867	-16.23752	11.27051
10.32288	-16.25949	11.27051
10.32707	-16.25949	11.27051
10.33137	-16.25949	11.27051
10.33556	-16.25949	11.27051
10.33974	-16.25949	11.27051
10.34393	-16.28146	11.27051
10.34819	-16.25949	11.27051
10.35246	-16.28146	11.27051
10.35666	-16.25949	11.27051
10.36085	-16.28146	11.27051
10.36503	-16.28146	11.27051
10.36922	-16.28146	11.27051
10.37340	-16.28146	11.27051
10.37759	-16.30343	11.27051
10.38188	-16.28146	11.27051
10.38609	-16.28146	11.27051
10.39028	-16.30343	11.27051
10.39447	-16.30343	11.27051
10.39865	-16.28146	11.27051
10.40284	-16.30343	11.27051
10.40702	-16.30343	11.27051
10.41130	-16.30343	11.27051
10.41555	-16.30343	11.27051
10.41975	-16.30343	11.27051
10.42394	-16.30343	11.27051
10.42812	-16.32541	11.27051
10.43241	-16.32541	11.27051
10.43659	-16.32541	11.27051
10.44077	-16.32541	11.27051
10.44506	-16.32541	11.27051
10.44928	-16.34738	11.27051
10.45347	-16.34738	11.27051
10.45766	-16.34738	11.27051
10.46184	-16.34738	11.27051
10.46603	-16.34738	11.27051
10.47021	-16.36935	11.27051
10.47446	-16.36935	11.27051
10.47871	-16.34738	11.27051
10.48291	-16.34738	11.27051
10.48710	-16.36935	11.27051
10.49129	-16.36935	11.27051
10.49548	-16.36935	11.27051
10.49967	-16.39132	11.27051
10.50386	-16.36935	11.27051
10.50815	-16.39132	11.27051
10.51236	-16.39132	11.27051
10.51655	-16.39132	11.27051
10.52074	-16.39132	11.27051
10.52492	-16.39132	11.27051
10.52910	-16.39132	11.27051
10.53339	-16.41330	11.27051
10.53779	-16.41330	11.27051
10.54200	-16.41330	11.27051
10.54619	-16.41330	11.27051
10.55038	-16.41330	11.27051
10.55456	-16.41330	11.27051
10.55875	-16.43527	11.27051
10.56293	-16.41330	11.27051
10.56720	-16.43527	11.27051
10.57148	-16.43527	11.27051
10.57568	-16.43527	11.27051
10.57987	-16.43527	11.27051
10.58406	-16.43527	11.27051
10.58824	-16.43527	11.27051
10.59243	-16.45724	11.27051
10.59661	-16.43527	11.27051
10.60090	-16.43527	11.27051
10.60511	-16.45724	11.27051
10.60930	-16.45724	11.27051
10.61348	-16.45724	11.27051
10.61767	-16.47922	11.27051
10.62185	-16.45724	11.27051
10.62603	-16.45724	11.27051
10.63028	-16.47922	11.27051
10.63467	-16.45724	11.27051
10.63887	-16.47922	11.27051
10.64306	-16.47922	11.27051
10.64727	-16.45724	11.27051
10.65145	-16.47922	11.27051
10.65564	-16.47922	11.27051
10.65982	-16.47922	11.27051
10.66412	-16.47922	11.27051
10.66834	-16.47922	11.27051
10.67252	-16.47922	11.27051
10.67671	-16.50119	11.27051
10.68089	-16.50119	11.27051
10.68508	-16.47922	11.27051
10.68926	-16.50119	11.27051
10.69351	-16.47922	11.27051
10.69777	-16.50119	11.27051
10.70197	-16.50119	11.27051
10.70616	-16.50119	11.27051
10.71035	-16.50119	11.27051
10.71453	-16.50119	11.27051
10.71871	-16.50119	11.27051
10.72290	-16.52316	11.27051
10.72720	-16.52316	11.27051
10.73141	-16.50119	11.27051
10.73571	-16.50119	11.27051
10.73989	-16.52316	11.27051
10.74408	-16.52316	11.27051
10.74826	-16.54513	11.27051
10.75244	-16.52316	11.27051
10.75685	-16.52316	11.27051
10.76107	-16.52316	11.27051
10.76525	-16.52316	11.27051
10.76944	-16.52316	11.27051
10.77362	-16.54513	11.27051
10.77781	-16.52316	11.27051
10.78199	-16.54513	11.27051
10.78625	-16.54513	11.27051
10.79051	-16.52316	11.27051
10.79472	-16.54513	11.27051
10.79891	-16.54513	11.27051
10.80309	-16.54513	11.27051
10.80729	-16.54513	11.27051
10.81147	-16.54513	11.27051
10.81566	-16.54513	11.27051
10.81995	-16.54513	11.27051
10.82416	-16.54513	11.27051
10.82834	-16.54513	11.27051
10.83253	-16.56711	11.27051
10.83683	-16.54513	11.27051
10.84102	-16.54513	11.27051
10.84520	-16.56711	11.27051
10.84946	-16.54513	11.27051
10.85372	-16.56711	11.27051
10.85791	-16.56711	11.27051
10.86210	-16.56711	11.27051
10.86630	-16.56711	11.27051
10.87048	-16.56711	11.27051
10.87467	-16.56711	11.27051
10.87885	-16.56711	11.27051
10.88315	-16.56711	11.27051
10.88735	-16.56711	11.27051
10.89154	-16.56711	11.27051
10.89572	-16.56711	11.27051
10.89991	-16.56711	11.27051
10.90409	-16.56711	11.27051
10.90827	-16.56711	11.27051
10.91252	-16.56711	11.27051
10.91676	-16.56711	11.27051
10.92096	-16.56711	11.27051
10.92515	-16.56711	11.27051
10.92933	-16.58908	11.27051
10.93351	-16.56711	11.27051
10.93780	-16.58908	11.27051
10.94198	-16.58908	11.27051
10.94627	-16.56711	11.27051
10.95049	-16.56711	11.27051
10.95468	-16.58908	11.27051
10.95887	-16.56711	11.27051
10.96305	-16.58908	11.27051
10.96725	-16.58908	11.27051
10.97143	-16.56711	11.27051
10.97586	-16.56711	11.27051
10.98008	-16.56711	11.27051
10.98427	-16.56711	11.27051
10.98846	-16.58908	11.27051
10.99264	-16.56711	11.27051
10.99682	-16.56711	11.27051
11.00100	-16.58908	11.27051
11.00525	-16.56711	11.27051
11.00951	-16.56711	11.27051
11.01372	-16.56711	11.27051
11.01791	-16.56711	11.27051
11.02209	-16.56711	11.27051
11.02631	-16.56711	11.27051
11.03052	-16.56711	11.27051
11.03471	-16.56711	11.27051
11.03912	-16.56711	11.27051
11.04335	-16.56711	11.27051
11.04756	-16.56711	11.27051
11.05176	-16.56711	11.27051
11.05594	-16.56711	11.27051
11.06013	-16.56711	11.27051
11.06432	-16.54513	11.27051
11.06874	-16.56711	11.27051
11.07296	-16.54513	11.27051
11.07715	-16.54513	11.27051
11.08133	-16.54513	11.27051
11.08552	-16.54513	11.27051
11.08970	-16.54513	11.27051
11.09388	-16.54513	11.27051
11.09815	-16.54513	11.27051
11.10242	-16.54513	11.27051
11.10662	-16.54513	11.27051
11.11081	-16.54513	11.27051
11.11499	-16.52316	11.27051
11.11918	-16.52316	11.27051
11.12332	-16.52316	11.27051
11.12751	-16.52316	11.27051
11.13180	-16.52316	11.27051
11.13602	-16.52316	11.27051
11.14036	-16.52316	11.27051
11.14456	-16.52316	11.27051
11.14875	-16.50119	11.27051
11.15294	-16.50119	11.27051
11.15712	-16.52316	11.27051
11.16156	-16.50119	11.27051
11.16577	-16.52316	11.27051
11.16996	-16.50119	11.27051
11.17415	-16.50119	11.27051
11.17833	-16.50119	11.27051
11.18252	-16.50119	11.27051
11.18670	-16.50119	11.27051
11.19097	-16.50119	11.27051
11.19526	-16.50119	11.27051
11.19947	-16.50119	11.27051
11.20367	-16.47922	11.27051
11.20785	-16.47922	11.27051
11.21204	-16.47922	11.27051
11.21623	-16.50119	11.27051
11.22041	-16.47922	11.27051
11.22470	-16.47922	11.27051
11.22892	-16.47922	11.27051
11.23311	-16.47922	11.27051
11.23730	-16.47922	11.27051
11.24158	-16.47922	11.27051
11.24577	-16.45724	11.27051
11.24995	-16.47922	11.27051
11.25421	-16.45724	11.27051
11.25846	-16.45724	11.27051
11.26266	-16.45724	11.27051
11.26685	-16.45724	11.27051
11.27104	-16.45724	11.27051
11.27524	-16.45724	11.27051
11.27943	-16.45724	11.27051
11.28361	-16.45724	11.27051
11.28791	-16.45724	11.27051
11.29212	-16.45724	11.27051
11.29631	-16.43527	11.27051
11.30050	-16.43527	11.27051
11.30468	-16.43527	11.27051
11.30887	-16.43527	11.27051
11.31305	-16.43527	11.27051
11.31731	-16.43527	11.27051
11.32156	-16.43527	11.27051
11.32576	-16.43527	11.27051
11.32994	-16.43527	11.27051
11.33413	-16.43527	11.27051
11.33832	-16.43527	11.27051
11.34261	-16.41330	11.27051
11.34679	-16.43527	11.27051
11.35108	-16.41330	11.27051
11.35531	-16.41330	11.27051
11.35949	-16.43527	11.27051
11.36368	-16.43527	11.27051
11.36786	-16.41330	11.27051
11.37205	-16.41330	11.27051
11.37623	-16.41330	11.27051
11.38049	-16.41330	11.27051
11.38474	-16.41330	11.27051
11.38893	-16.41330	11.27051
11.39311	-16.41330	11.27051
11.39730	-16.41330	11.27051
11.40148	-16.39132	11.27051
11.40567	-16.41330	11.27051
11.40985	-16.41330	11.27051
11.41414	-16.41330	11.27051
11.41836	-16.41330	11.27051
11.42254	-16.41330	11.27051
11.42673	-16.41330	11.27051
11.43091	-16.41330	11.27051
11.43510	-16.39132	11.27051
11.43929	-16.39132	11.27051
11.44365	-16.41330	11.27051
11.44791	-16.39132	11.27051
11.45210	-16.39132	11.27051
11.45629	-16.39132	11.27051
11.46047	-16.39132	11.27051
11.46466	-16.41330	11.27051
11.46884	-16.41330	11.27051
11.47303	-16.39132	11.27051
11.47732	-16.39132	11.27051
11.48153	-16.39132	11.27051
11.48572	-16.39132	11.27051
11.48991	-16.39132	11.27051
11.49409	-16.39132	11.27051
11.49827	-16.39132	11.27051
11.50246	-16.39132	11.27051
11.50671	-16.39132	11.27051
11.51096	-16.39132	11.27051
11.51515	-16.39132	11.27051
11.51933	-16.39132	11.27051
11.52351	-16.39132	11.27051
11.52770	-16.39132	11.27051
11.53188	-16.39132	11.27051
11.53607	-16.39132	11.27051
11.54036	-16.39132	11.27051
11.54467	-16.39132	11.27051
11.54886	-16.39132	11.27051
11.55304	-16.39132	11.27051
11.55723	-16.39132	11.27051
11.56141	-16.39132	11.27051
11.56560	-16.39132	11.27051
11.57003	-16.39132	11.27051
11.57424	-16.39132	11.27051
11.57843	-16.39132	11.27051
11.58262	-16.39132	11.27051
11.58681	-16.39132	11.27051
11.59099	-16.39132	11.27051
11.59518	-16.39132	11.27051
11.59942	-16.39132	11.27051
11.60368	-16.39132	11.27051
11.60789	-16.39132	11.27051
11.61207	-16.39132	11.27051
11.61626	-16.39132	11.27051
11.62044	-16.39132	11.27051
11.62463	-16.39132	11.27051
11.62881	-16.39132	11.27051
11.63310	-16.39132	11.27051
11.63731	-16.36935	11.27051
11.64149	-16.36935	11.27051
11.64578	-16.39132	11.27051
11.64996	-16.39132	11.27051
11.65415	-16.36935	11.27051
11.65833	-16.36935	11.27051
11.66258	-16.36935	11.27051
11.66684	-16.36935	11.27051
11.67103	-16.36935	11.27051
11.67523	-16.36935	11.27051
11.67941	-16.36935	11.27051
11.68360	-16.36935	11.27051
11.68778	-16.36935	11.27051
11.69196	-16.36935	11.27051
11.69625	-16.34738	11.27051
11.70046	-16.36935	11.27051
11.70465	-16.36935	11.27051
11.70883	-16.34738	11.27051
11.71302	-16.34738	11.27051
11.71720	-16.34738	11.27051
11.72138	-16.34738	11.27051
11.72563	-16.34738	11.27051
11.72988	-16.34738	11.27051
11.73408	-16.34738	11.27051
11.73826	-16.34738	11.27051
11.74245	-16.34738	11.27051
11.74673	-16.32541	11.27051
11.75092	-16.32541	11.27051
11.75510	-16.32541	11.27051
11.75940	-16.32541	11.27051
11.76361	-16.32541	11.27051
11.76780	-16.32541	11.27051
11.77198	-16.32541	11.27051
11.77617	-16.32541	11.27051
11.78035	-16.32541	11.27051
11.78453	-16.32541	11.27051
11.78878	-16.32541	11.27051
11.79303	-16.30343	11.27051
11.79722	-16.32541	11.27051
11.80141	-16.30343	11.27051
11.80560	-16.30343	11.27051
11.80978	-16.30343	11.27051
11.81396	-16.32541	11.27051
11.81815	-16.30343	11.27051
11.82244	-16.30343	11.27051
11.82665	-16.30343	11.27051
11.83084	-16.30343	11.27051
11.83503	-16.30343	11.27051
11.83922	-16.30343	11.27051
11.84340	-16.30343	11.27051
11.84769	-16.30343	11.27051
11.85211	-16.30343	11.27051
11.85632	-16.30343	11.27051
11.86051	-16.30343	11.27051
11.86469	-16.30343	11.27051
11.86888	-16.30343	11.27051
11.87306	-16.30343	11.27051
11.87725	-16.30343	11.27051
11.88149	-16.30343	11.27051
11.88576	-16.30343	11.27051
11.88996	-16.28146	11.27051
11.89415	-16.30343	11.27051
11.89833	-16.28146	11.27051
11.90252	-16.30343	11.27051
11.90670	-16.30343	11.27051
11.91089	-16.28146	11.27051
11.91518	-16.28146	11.27051
11.91936	-16.30343	11.27051
11.92354	-16.28146	11.27051
11.92773	-16.30343	11.27051
11.93191	-16.30343	11.27051
11.93610	-16.30343	11.27051
11.94028	-16.30343	11.27051
11.94453	-16.30343	11.27051
11.94889	-16.30343	11.27051
11.95308	-16.30343	11.27051
11.95727	-16.30343	11.27051
11.96145	-16.30343	11.27051
11.96566	-16.30343	11.27051
11.96986	-16.30343	11.27051
11.97405	-16.30343	11.27051
11.97835	-16.30343	11.27051
11.98259	-16.32541	11.27051
11.98678	-16.32541	11.27051
11.99097	-16.32541	11.27051
11.99515	-16.32541	11.27051
11.99932	-16.32541	11.27051
12.00351	-16.32541	11.27051
12.00791	-16.32541	11.27051
12.01212	-16.34738	11.27051
12.01631	-16.34738	11.27051
12.02050	-16.34738	11.27051
12.02468	-16.34738	11.27051
12.02887	-16.34738	11.27051
12.03305	-16.34738	11.27051
12.03732	-16.34738	11.27051
12.04159	-16.34738	11.27051
12.04579	-16.34738	11.27051
12.05009	-16.36935	11.27051
12.05427	-16.36935	11.27051
12.05846	-16.36935	11.27051
12.06264	-16.36935	11.27051
12.06682	-16.39132	11.27051
12.07112	-16.39132	11.27051
12.07534	-16.39132	11.27051
12.07953	-16.39132	11.27051
12.08371	-16.41330	11.27051
12.08790	-16.39132	11.27051
12.09208	-16.41330	11.27051
12.09626	-16.41330	11.27051
12.10052	-16.41330	11.27051
12.10478	-16.41330	11.27051
12.10898	-16.41330	11.27051
12.11317	-16.41330	11.27051
12.11736	-16.43527	11.27051
12.12154	-16.43527	11.27051
12.12573	-16.43527	11.27051
12.12991	-16.43527	11.27051
12.13420	-16.43527	11.27051
12.13847	-16.45724	11.27051
12.14267	-16.45724	11.27051
12.14685	-16.45724	11.27051
12.15114	-16.45724	11.27051
12.15533	-16.45724	11.27051
12.15951	-16.47922	11.27051
12.16393	-16.47922	11.27051
12.16815	-16.47922	11.27051
12.17234	-16.47922	11.27051
12.17653	-16.47922	11.27051
12.18071	-16.50119	11.27051
12.18489	-16.50119	11.27051
12.18908	-16.52316	11.27051
12.19333	-16.52316	11.27051
12.19759	-16.52316	11.27051
12.20180	-16.52316	11.27051
12.20598	-16.52316	11.27051
12.21017	-16.54513	11.27051
12.21435	-16.54513	11.27051
12.21854	-16.54513	11.27051
12.22272	-16.56711	11.27051
12.22701	-16.56711	11.27051
12.23123	-16.56711	11.27051
12.23542	-16.56711	11.27051
12.23960	-16.56711	11.27051
12.24379	-16.58908	11.27051
12.24797	-16.56711	11.27051
12.25226	-16.56711	11.27051
12.25651	-16.58908	11.27051
12.26076	-16.58908	11.27051
12.26496	-16.58908	11.27051
12.26915	-16.61105	11.27051
12.27334	-16.61105	11.27051
12.27752	-16.61105	11.27051
12.28171	-16.63302	11.27051
12.28589	-16.63302	11.27051
12.29018	-16.63302	11.27051
12.29440	-16.65500	11.27051
12.29859	-16.63302	11.27051
12.30278	-16.65500	11.27051
12.30696	-16.65500	11.27051
12.31114	-16.65500	11.27051
12.31533	-16.67697	11.27051
12.31958	-16.67697	11.27051
12.32383	-16.67697	11.27051
12.32803	-16.67697	11.27051
12.33222	-16.67697	11.27051
12.33641	-16.69894	11.27051
12.34059	-16.69894	11.27051
12.34477	-16.69894	11.27051
12.34896	-16.72091	11.27051
12.35336	-16.72091	11.27051
12.35757	-16.72091	11.27051
12.36175	-16.72091	11.27051
12.36594	-16.72091	11.27051
12.37013	-16.74289	11.27051
12.37431	-16.74289	11.27051
12.37849	-16.76486	11.27051
12.38274	-16.76486	11.27051
12.38699	-16.76486	11.27051
12.39120	-16.76486	11.27051
12.39538	-16.76486	11.27051
12.39957	-16.78683	11.27051
12.40375	-16.78683	11.27051
12.40794	-16.78683	11.27051
12.41212	-16.78683	11.27051
12.41641	-16.80881	11.27051
12.42061	-16.80881	11.27051
12.42480	-16.80881	11.27051
12.42898	-16.83078	11.27051
12.43317	-16.83078	11.27051
12.43735	-16.83078	11.27051
12.44153	-16.83078	11.27051
12.44578	-16.83078	11.27051
12.45003	-16.85275	11.27051
12.45433	-16.85275	11.27051
12.45852	-16.85275	11.27051
12.46270	-16.87472	11.27051
12.46689	-16.87472	11.27051
12.47107	-16.87472	11.27051
12.47526	-16.89670	11.27051
12.47955	-16.89670	11.27051
12.48377	-16.89670	11.27051
12.48796	-16.89670	11.27051
12.49214	-16.91867	11.27051
12.49632	-16.91867	11.27051
12.50051	-16.91867	11.27051
12.50469	-16.94064	11.27051
12.50894	-16.94064	11.27051
12.51319	-16.94064	11.27051
12.51739	-16.94064	11.27051
12.52157	-16.96261	11.27051
12.52576	-16.96261	11.27051
12.52994	-16.96261	11.27051
12.53413	-16.98459	11.27051
12.53831	-16.98459	11.27051
12.54259	-16.98459	11.27051
12.54680	-16.98459	11.27051
12.55099	-16.98459	11.27051
12.55529	-17.00656	11.27051
12.55948	-17.00656	11.27051
12.56366	-17.00656	11.27051
12.56784	-17.00656	11.27051
12.57226	-17.02853	11.27051
12.57648	-17.02853	11.27051
12.58067	-17.05050	11.27051
12.58485	-17.02853	11.27051
12.58904	-17.05050	11.27051
12.59322	-17.05050	11.27051
12.59740	-17.05050	11.27051
12.60166	-17.05050	11.27051
12.60593	-17.07248	11.27051
12.61013	-17.05050	11.27051
12.61432	-17.07248	11.27051
12.61850	-17.07248	11.27051
12.62269	-17.07248	11.27051
12.62687	-17.09445	11.27051
12.63106	-17.09445	11.27051
12.63537	-17.09445	11.27051
12.63957	-17.09445	11.27051
12.64376	-17.09445	11.27051
12.64795	-17.09445	11.27051
12.65213	-17.11642	11.27051
12.65642	-17.11642	11.27051
12.66060	-17.11642	11.27051
12.66485	-17.11642	11.27051
12.66910	-17.11642	11.27051
12.67329	-17.11642	11.27051
12.67748	-17.13839	11.27051
12.68166	-17.13839	11.27051
12.68585	-17.13839	11.27051
12.69003	-17.13839	11.27051
12.69422	-17.13839	11.27051
12.69850	-17.13839	11.27051
12.70272	-17.13839	11.27051
12.70691	-17.13839	11.27051
12.71109	-17.16037	11.27051
12.71529	-17.16037	11.27051
12.71947	-17.16037	11.27051
12.72366	-17.16037	11.27051
12.72792	-17.16037	11.27051
12.73216	-17.16037	11.27051
12.73637	-17.16037	11.27051
12.74055	-17.16037	11.27051
12.74473	-17.16037	11.27051
12.74893	-17.16037	11.27051
12.75311	-17.16037	11.27051
12.75740	-17.18234	11.27051
12.76167	-17.18234	11.27051
12.76589	-17.18234	11.27051
12.77008	-17.18234	11.27051
12.77426	-17.18234	11.27051
12.77844	-17.18234	11.27051
12.78263	-17.18234	11.27051
12.78681	-17.18234	11.27051
12.79123	-17.18234	11.27051
12.79544	-17.18234	11.27051
12.79963	-17.18234	11.27051
12.80381	-17.18234	11.27051
12.80799	-17.18234	11.27051
12.81218	-17.18234	11.27051
12.81636	-17.18234	11.27051
12.82062	-17.18234	11.27051
12.82488	-17.18234	11.27051
12.82908	-17.18234	11.27051
12.83327	-17.18234	11.27051
12.83746	-17.18234	11.27051
12.84164	-17.18234	11.27051
12.84582	-17.18234	11.27051
12.85001	-17.18234	11.27051
12.85429	-17.18234	11.27051
12.85862	-17.18234	11.27051
12.86281	-17.18234	11.27051
12.86699	-17.18234	11.27051
12.87118	-17.18234	11.27051
12.87532	-17.18234	11.27051
12.87951	-17.18234	11.27051
12.88376	-17.18234	11.27051
12.88801	-17.18234	11.27051
12.89221	-17.18234	11.27051
12.89640	-17.16037	11.27051
12.90058	-17.18234	11.27051
12.90477	-17.18234	11.27051
12.90895	-17.18234	11.27051
12.91313	-17.18234	11.27051
12.91742	-17.16037	11.27051
12.92163	-17.16037	11.27051
12.92582	-17.16037	11.27051
12.93000	-17.16037	11.27051
12.93418	-17.16037	11.27051
12.93837	-17.16037	11.27051
12.94255	-17.16037	11.27051
12.94681	-17.16037	11.27051
12.95106	-17.16037	11.27051
12.95526	-17.16037	11.27051
12.95955	-17.13839	11.27051
12.96374	-17.13839	11.27051
12.96792	-17.13839	11.27051
12.97210	-17.16037	11.27051
12.97629	-17.13839	11.27051
12.98058	-17.13839	11.27051
12.98479	-17.13839	11.27051
12.98898	-17.13839	11.27051
12.99316	-17.11642	11.27051
12.99734	-17.13839	11.27051
13.00153	-17.11642	11.27051
13.00571	-17.11642	11.27051
13.00996	-17.11642	11.27051
13.01420	-17.11642	11.27051
13.01840	-17.11642	11.27051
13.02258	-17.09445	11.27051
13.02676	-17.09445	11.27051
13.03095	-17.09445	11.27051
13.03513	-17.09445	11.27051
13.03932	-17.09445	11.27051
13.04360	-17.09445	11.27051
13.04781	-17.09445	11.27051
13.05200	-17.07248	11.27051
13.05618	-17.07248	11.27051
13.06047	-17.07248	11.27051
13.06465	-17.07248	11.27051
13.06883	-17.07248	11.27051
13.07325	-17.05050	11.27051
13.07746	-17.07248	11.27051
13.08164	-17.05050	11.27051
13.08583	-17.05050	11.27051
13.09001	-17.05050	11.27051
13.09420	-17.02853	11.27051
13.09838	-17.02853	11.27051
13.10263	-17.02853	11.27051
13.10689	-17.02853	11.27051
13.11109	-17.02853	11.27051
13.11529	-17.02853	11.27051
13.11948	-17.02853	11.27051
13.12366	-17.02853	11.27051
13.12785	-17.02853	11.27051
13.13203	-17.00656	11.27051
13.13632	-17.00656	11.27051
13.14057	-17.00656	11.27051
13.14477	-16.98459	11.27051
13.14897	-17.00656	11.27051
13.15316	-16.98459	11.27051
13.15734	-16.98459	11.27051
13.16163	-16.98459	11.27051
13.16605	-16.98459	11.27051
13.17027	-16.96261	11.27051
13.17445	-16.98459	11.27051
13.17864	-16.96261	11.27051
13.18282	-16.96261	11.27051
13.18701	-16.96261	11.27051
13.19120	-16.96261	11.27051
13.19546	-16.94064	11.27051
13.19974	-16.94064	11.27051
13.20394	-16.94064	11.27051
13.20813	-16.94064	11.27051
13.21232	-16.94064	11.27051
13.21650	-16.94064	11.27051
13.22068	-16.94064	11.27051
13.22487	-16.91867	11.27051
13.22915	-16.91867	11.27051
13.23336	-16.91867	11.27051
13.23755	-16.91867	11.27051
13.24174	-16.91867	11.27051
13.24592	-16.91867	11.27051
13.25010	-16.91867	11.27051
13.25429	-16.89670	11.27051
13.25854	-16.89670	11.27051
13.26289	-16.89670	11.27051
13.26710	-16.89670	11.27051
13.27130	-16.89670	11.27051
13.27548	-16.87472	11.27051
13.27967	-16.87472	11.27051
13.28385	-16.87472	11.27051
13.28804	-16.87472	11.27051
13.29233	-16.87472	11.27051
13.29654	-16.85275	11.27051
13.30073	-16.85275	11.27051
13.30491	-16.85275	11.27051
13.30910	-16.85275	11.27051
13.31328	-16.85275	11.27051
13.31747	-16.83078	11.27051
13.32172	-16.83078	11.27051
13.32597	-16.83078	11.27051
13.33017	-16.83078	11.27051
13.33435	-16.80881	11.27051
13.33854	-16.80881	11.27051
13.34272	-16.80881	11.27051
13.34692	-16.80881	11.27051
13.35111	-16.80881	11.27051
13.35543	-16.80881	11.27051
13.35964	-16.78683	11.27051
13.36393	-16.78683	11.27051
13.36812	-16.78683	11.27051
13.37230	-16.76486	11.27051
13.37649	-16.76486	11.27051
13.38067	-16.76486	11.27051
13.38509	-16.76486	11.27051
13.38930	-16.74289	11.27051
13.39349	-16.74289	11.27051
13.39767	-16.74289	11.27051
13.40187	-16.74289	11.27051
13.40606	-16.74289	11.27051
13.41024	-16.72091	11.27051
13.41452	-16.72091	11.27051
13.41878	-16.72091	11.27051
13.42299	-16.69894	11.27051
13.42718	-16.69894	11.27051
13.43132	-16.69894	11.27051
13.43551	-16.69894	11.27051
13.43969	-16.69894	11.27051
13.44388	-16.67697	11.27051
13.44817	-16.67697	11.27051
13.45239	-16.67697	11.27051
13.45658	-16.67697	11.27051
13.46076	-16.67697	11.27051
13.46505	-16.65500	11.27051
13.46923	-16.65500	11.27051
13.47341	-16.65500	11.27051
13.47767	-16.65500	11.27051
13.48192	-16.63302	11.27051
13.48612	-16.63302	11.27051
13.49031	-16.63302	11.27051
13.49449	-16.63302	11.27051
13.49868	-16.63302	11.27051
13.50287	-16.61105	11.27051
13.50705	-16.61105	11.27051
13.51135	-16.61105	11.27051
13.51557	-16.61105	11.27051
13.51975	-16.61105	11.27051
13.52394	-16.58908	11.27051
13.52812	-16.58908	11.27051
13.53230	-16.58908	11.27051
13.53649	-16.56711	11.27051
13.54074	-16.56711	11.27051
13.54499	-16.56711	11.27051
13.54919	-16.56711	11.27051
13.55338	-16.56711	11.27051
13.55756	-16.56711	11.27051
13.56175	-16.54513	11.27051
13.56603	-16.54513	11.27051
13.57021	-16.54513	11.27051
13.57453	-16.54513	11.27051
13.57875	-16.54513	11.27051
13.58294	-16.54513	11.27051
13.58712	-16.54513	11.27051
13.59132	-16.52316	11.27051
13.59550	-16.52316	11.27051
13.59968	-16.52316	11.27051
13.60409	-16.52316	11.27051
13.60830	-16.50119	11.27051
13.61249	-16.50119	11.27051
13.61668	-16.52316	11.27051
13.62086	-16.50119	11.27051
13.62504	-16.50119	11.27051
13.62923	-16.50119	11.27051
13.63349	-16.50119	11.27051
13.63776	-16.50119	11.27051
13.64197	-16.50119	11.27051
13.64615	-16.47922	11.27051
13.65034	-16.47922	11.27051
13.65452	-16.47922	11.27051
13.65871	-16.47922	11.27051
13.66289	-16.47922	11.27051
13.66730	-16.47922	11.27051
13.67150	-16.47922	11.27051
13.67569	-16.47922	11.27051
13.67987	-16.45724	11.27051
13.68406	-16.45724	11.27051
13.68824	-16.45724	11.27051
13.69243	-16.45724	11.27051
13.69668	-16.45724	11.27051
13.70094	-16.45724	11.27051
13.70514	-16.45724	11.27051
13.70932	-16.45724	11.27051
13.71351	-16.43527	11.27051
13.71769	-16.43527	11.27051
13.72188	-16.45724	11.27051
13.72606	-16.43527	11.27051
13.73035	-16.43527	11.27051
13.73457	-16.43527	11.27051
13.73875	-16.43527	11.27051
13.74294	-16.43527	11.27051
13.74712	-16.43527	11.27051
13.75131	-16.43527	11.27051
13.75549	-16.43527	11.27051
13.75975	-16.41330	11.27051
13.76400	-16.41330	11.27051
13.76830	-16.41330	11.27051
13.77249	-16.43527	11.27051
13.77667	-16.41330	11.27051
13.78086	-16.41330	11.27051
13.78504	-16.41330	11.27051
13.78922	-16.41330	11.27051
13.79351	-16.41330	11.27051
13.79772	-16.41330	11.27051
13.80191	-16.41330	11.27051
13.80609	-16.41330	11.27051
13.81027	-16.41330	11.27051
13.81446	-16.41330	11.27051
13.81864	-16.41330	11.27051
13.82289	-16.41330	11.27051
13.82714	-16.39132	11.27051
13.83134	-16.39132	11.27051
13.83552	-16.39132	11.27051
13.83971	-16.39132	11.27051
13.84389	-16.39132	11.27051
13.84808	-16.39132	11.27051
13.85226	-16.39132	11.27051
13.85655	-16.39132	11.27051
13.86076	-16.39132	11.27051
13.86495	-16.39132	11.27051
13.86924	-16.39132	11.27051
13.87342	-16.39132	11.27051
13.87760	-16.39132	11.27051
13.88179	-16.39132	11.27051
13.88619	-16.39132	11.27051
13.89040	-16.39132	11.27051
13.89459	-16.36935	11.27051
13.89877	-16.36935	11.27051
13.90296	-16.36935	11.27051
13.90714	-16.36935	11.27051
13.91132	-16.36935	11.27051
13.91559	-16.36935	11.27051
13.91985	-16.36935	11.27051
13.92405	-16.36935	11.27051
13.92824	-16.36935	11.27051
13.93243	-16.36935	11.27051
13.93661	-16.36935	11.27051
13.94079	-16.36935	11.27051
13.94497	-16.36935	11.27051
13.94926	-16.36935	11.27051
13.95348	-16.36935	11.27051
13.95767	-16.36935	11.27051
13.96185	-16.34738	11.27051
13.96603	-16.36935	11.27051
13.97032	-16.34738	11.27051
13.97450	-16.34738	11.27051
13.97875	-16.34738	11.27051
13.98300	-16.36935	11.27051
13.98721	-16.34738	11.27051
13.99140	-16.34738	11.27051
13.99558	-16.36935	11.27051
13.99977	-16.36935	11.27051
14.00395	-16.34738	11.27051
14.00813	-16.36935	11.27051
14.01242	-16.34738	11.27051
14.01664	-16.34738	11.27051
14.02083	-16.34738	11.27051
14.02502	-16.34738	11.27051
14.02920	-16.34738	11.27051
14.03338	-16.34738	11.27051
14.03757	-16.34738	11.27051
14.04182	-16.34738	11.27051
14.04609	-16.34738	11.27051
14.05030	-16.34738	11.27051
14.05449	-16.34738	11.27051
14.05867	-16.34738	11.27051
14.06286	-16.34738	11.27051
14.06705	-16.34738	11.27051
14.07136	-16.34738	11.27051
14.07565	-16.36935	11.27051
14.07985	-16.36935	11.27051
14.08405	-16.36935	11.27051
14.08824	-16.34738	11.27051
14.09243	-16.34738	11.27051
14.09661	-16.34738	11.27051
14.10079	-16.36935	11.27051
14.10523	-16.34738	11.27051
14.10944	-16.34738	11.27051
14.11363	-16.36935	11.27051
14.11782	-16.34738	11.27051
14.12200	-16.36935	11.27051
14.12619	-16.36935	11.27051
14.13037	-16.36935	11.27051
14.13463	-16.36935	11.27051
14.13895	-16.36935	11.27051
14.14315	-16.36935	11.27051
14.14733	-16.36935	11.27051
14.15152	-16.36935	11.27051
14.15570	-16.36935	11.27051
14.15988	-16.36935	11.27051
14.16407	-16.36935	11.27051
14.16837	-16.39132	11.27051
14.17269	-16.39132	11.27051
14.17688	-16.39132	11.27051
14.18106	-16.39132	11.27051
14.18525	-16.39132	11.27051
14.18944	-16.39132	11.27051
14.19362	-16.39132	11.27051
14.19804	-16.39132	11.27051
14.20225	-16.39132	11.27051
14.20644	-16.41330	11.27051
14.21063	-16.41330	11.27051
14.21481	-16.39132	11.27051
14.21900	-16.41330	11.27051
14.22320	-16.41330	11.27051
14.22746	-16.41330	11.27051
14.23175	-16.41330	11.27051
14.23595	-16.41330	11.27051
14.24014	-16.41330	11.27051
14.24432	-16.41330	11.27051
14.24851	-16.43527	11.27051
14.25270	-16.43527	11.27051
14.25688	-16.43527	11.27051
14.26117	-16.43527	11.27051
14.26539	-16.43527	11.27051
14.26958	-16.43527	11.27051
14.27387	-16.43527	11.27051
14.27805	-16.45724	11.27051
14.28223	-16.45724	11.27051
14.28641	-16.45724	11.27051
14.29082	-16.45724	11.27051
14.29504	-16.45724	11.27051
14.29924	-16.45724	11.27051
14.30343	-16.45724	11.27051
14.30761	-16.45724	11.27051
14.31179	-16.47922	11.27051
14.31598	-16.47922	11.27051
14.32022	-16.47922	11.27051
14.32449	-16.47922	11.27051
14.32869	-16.50119	11.27051
14.33288	-16.50119	11.27051
14.33706	-16.50119	11.27051
14.34125	-16.50119	11.27051
14.34543	-16.52316	11.27051
14.34962	-16.52316	11.27051
14.35408	-16.50119	11.27051
14.35829	-16.52316	11.27051
14.36248	-16.52316	11.27051
14.36666	-16.52316	11.27051
14.37085	-16.54513	11.27051
14.37513	-16.54513	11.27051
14.37932	-16.54513	11.27051
14.38358	-16.54513	11.27051
14.38786	-16.54513	11.27051
14.39205	-16.56711	11.27051
14.39624	-16.56711	11.27051
14.40042	-16.56711	11.27051
14.40460	-16.56711	11.27051
14.40879	-16.58908	11.27051
14.41297	-16.58908	11.27051
14.41727	-16.58908	11.27051
14.42147	-16.58908	11.27051
14.42566	-16.58908	11.27051
14.42984	-16.61105	11.27051
14.43403	-16.61105	11.27051
14.43821	-16.61105	11.27051
14.44239	-16.63302	11.27051
14.44664	-16.63302	11.27051
14.45092	-16.63302	11.27051
14.45513	-16.63302	11.27051
14.45932	-16.65500	11.27051
14.46350	-16.65500	11.27051
14.46768	-16.65500	11.27051
14.47187	-16.65500	11.27051
14.47616	-16.65500	11.27051
14.48047	-16.67697	11.27051
14.48468	-16.67697	11.27051
14.48886	-16.67697	11.27051
14.49305	-16.67697	11.27051
14.49723	-16.69894	11.27051
14.50141	-16.69894	11.27051
14.50560	-16.69894	11.27051
14.51001	-16.72091	11.27051
14.51422	-16.72091	11.27051
14.51841	-16.72091	11.27051
14.52260	-16.74289	11.27051
14.52678	-16.74289	11.27051
14.53096	-16.74289	11.27051
14.53515	-16.74289	11.27051
14.53940	-16.76486	11.27051
14.54369	-16.76486	11.27051
14.54789	-16.78683	11.27051
14.55207	-16.78683	11.27051
14.55626	-16.78683	11.27051
14.56044	-16.78683	11.27051
14.56463	-16.80881	11.27051
14.56881	-16.80881	11.27051
14.57311	-16.80881	11.27051
14.57742	-16.80881	11.27051
14.58161	-16.80881	11.27051
14.58580	-16.83078	11.27051
14.58998	-16.83078	11.27051
14.59419	-16.85275	11.27051
14.59838	-16.85275	11.27051
14.60282	-16.85275	11.27051
14.60703	-16.87472	11.27051
14.61124	-16.87472	11.27051
14.61543	-16.87472	11.27051
14.61961	-16.89670	11.27051
14.62379	-16.89670	11.27051
14.62798	-16.89670	11.27051
14.63225	-16.91867	11.27051
14.63654	-16.91867	11.27051
14.64073	-16.91867	11.27051
14.64492	-16.91867	11.27051
14.64910	-16.94064	11.27051
14.65328	-16.94064	11.27051
14.65748	-16.96261	11.27051
14.66166	-16.96261	11.27051
14.66596	-16.96261	11.27051
14.67016	-16.96261	11.27051
14.67435	-16.98459	11.27051
14.67863	-16.98459	11.27051
14.68282	-16.98459	11.27051
14.68700	-16.98459	11.27051
14.69120	-17.00656	11.27051
14.69546	-17.00656	11.27051
14.69973	-17.00656	11.27051
14.70393	-17.02853	11.27051
14.70812	-17.02853	11.27051
14.71230	-17.02853	11.27051
14.71648	-17.05050	11.27051
14.72067	-17.05050	11.27051
14.72485	-17.05050	11.27051
14.72914	-17.07248	11.27051
14.73335	-17.07248	11.27051
14.73753	-17.07248	11.27051
14.74172	-17.07248	11.27051
14.74590	-17.09445	11.27051
14.75009	-17.09445	11.27051
14.75427	-17.11642	11.27051
14.75850	-17.11642	11.27051
14.76275	-17.11642	11.27051
14.76695	-17.11642	11.27051
14.77114	-17.11642	11.27051
14.77533	-17.13839	11.27051
14.77961	-17.13839	11.27051
14.78380	-17.13839	11.27051
14.78798	-17.16037	11.27051
14.79228	-17.16037	11.27051
14.79648	-17.16037	11.27051
14.80067	-17.16037	11.27051
14.80485	-17.18234	11.27051
14.80904	-17.18234	11.27051
14.81322	-17.18234	11.27051
14.81740	-17.20431	11.27051
14.82165	-17.20431	11.27051
14.82591	-17.20431	11.27051
14.83011	-17.20431	11.27051
14.83429	-17.20431	11.27051
14.83848	-17.22629	11.27051
14.84266	-17.22629	11.27051
14.84685	-17.22629	11.27051
14.85103	-17.22629	11.27051
14.85536	-17.24826	11.27051
14.85956	-17.24826	11.27051
14.86374	-17.24826	11.27051
14.86793	-17.27023	11.27051
14.87211	-17.27023	11.27051
14.87630	-17.27023	11.27051
14.88059	-17.27023	11.27051
14.88502	-17.27023	11.27051
14.88923	-17.29220	11.27051
14.89341	-17.29220	11.27051
14.89760	-17.29220	11.27051
14.90178	-17.31418	11.27051
14.90597	-17.29220	11.27051
14.91015	-17.31418	11.27051
14.91441	-17.31418	11.27051
14.91869	-17.31418	11.27051
14.92289	-17.33615	11.27051
14.92707	-17.33615	11.27051
14.93127	-17.33615	11.27051
14.93545	-17.33615	11.27051
14.93964	-17.35812	11.27051
14.94382	-17.35812	11.27051
14.94813	-17.35812	11.27051
14.95234	-17.35812	11.27051
14.95652	-17.35812	11.27051
14.96071	-17.35812	11.27051
14.96491	-17.38009	11.27051
14.96909	-17.38009	11.27051
14.97328	-17.38009	11.27051
14.97753	-17.38009	11.27051
14.98189	-17.38009	11.27051
14.98609	-17.40207	11.27051
14.99027	-17.40207	11.27051
14.99445	-17.40207	11.27051
14.99864	-17.40207	11.27051
15.00322	-17.40207	-3.64427
15.00745	-17.40207	-3.64427
15.01175	-17.42404	-3.64427
15.01595	-17.42404	-3.64427
15.02013	-17.42404	-3.64427
15.02432	-17.42404	-3.64427
15.02850	-17.42404	-3.64427
15.03268	-17.42404	-3.64427
15.03686	-17.42404	-3.64427
15.04129	-17.44601	-3.64427
15.04550	-17.44601	-3.64427
15.04971	-17.44601	-3.64427
15.05390	-17.44601	-3.64427
15.05808	-17.44601	-3.64427
15.06227	-17.42404	-3.64427
15.06646	-17.44601	-3.64427
15.07071	-17.44601	-3.64427
15.07500	-17.44601	-3.64427
15.07921	-17.44601	-3.64427
15.08340	-17.44601	-3.64427
15.08758	-17.42404	-3.64427
15.09177	-17.42404	-3.64427
15.09595	-17.42404	-3.64427
15.10014	-17.42404	-3.64427
15.10454	-17.42404	-3.64427
15.10874	-17.42404	-3.64427
15.11292	-17.40207	-3.64427
15.11711	-17.38009	-3.64427
15.12130	-17.38009	-3.64427
15.12548	-17.35812	-3.64427
15.12966	-17.35812	-3.64427
15.13392	-17.33615	-3.64427
15.13823	-17.33615	-3.64427
15.14243	-17.29220	-3.64427
15.14662	-17.27023	-3.64427
15.15081	-17.24826	-3.64427
15.15499	-17.22629	-3.64427
15.15918	-17.20431	-3.64427
15.16333	-17.20431	-3.64427
15.16763	-17.18234	-3.64427
15.17184	-17.13839	-3.64427
15.17602	-17.11642	-3.64427
15.18021	-17.07248	-3.64427
15.18440	-17.05050	-3.64427
15.18858	-17.05050	-3.64427
15.19277	-17.00656	-3.64427
15.19720	-16.96261	-3.64427
15.20142	-16.91867	-3.64427
15.20571	-16.87472	-3.64427
15.20989	-16.83078	-3.64427
15.21408	-16.83078	-3.64427
15.21826	-16.78683	-3.64427
15.22245	-16.74289	-3.64427
15.22669	-16.67697	-3.64427
15.23096	-16.63302	-3.64427
15.23516	-16.56711	-3.64427
15.23933	-16.56711	-3.64427
15.24351	-16.52316	-3.64427
15.24769	-16.45724	-3.64427
15.25188	-16.41330	-3.64427
15.25606	-16.34738	-3.64427
15.26036	-16.28146	-3.64427
15.26457	-16.28146	-3.64427
15.26876	-16.19357	-3.64427
15.27295	-16.12765	-3.64427
15.27713	-16.06173	-3.64427
15.28132	-15.99582	-3.64427
15.28551	-15.92990	-3.64427
15.28976	-15.84201	-3.64427
15.29403	-15.84201	-3.64427
15.29823	-15.77609	-3.64427
15.30241	-15.68820	-3.64427
15.30670	-15.60031	-3.64427
15.31089	-15.51242	-3.64427
15.31507	-15.42453	-3.64427
15.31926	-15.42453	-3.64427
15.32357	-15.33664	-3.64427
15.32777	-15.24875	-3.64427
15.33196	-15.16086	-3.64427
15.33615	-15.07297	-3.64427
15.34033	-14.96310	-3.64427
15.34452	-14.96310	-3.64427
15.34870	-14.87521	-3.64427
15.35295	-14.76535	-3.64427
15.35723	-14.65548	-3.64427
15.36142	-14.56759	-3.64427
15.36561	-14.45773	-3.64427
15.36979	-14.36984	-3.64427
15.37398	-14.36984	-3.64427
15.37816	-14.25998	-3.64427
15.38234	-14.15011	-3.64427
15.38664	-14.01828	-3.64427
15.39084	-13.90841	-3.64427
15.39503	-13.79855	-3.64427
15.39922	-13.79855	-3.64427
15.40341	-13.66672	-3.64427
15.40769	-13.53488	-3.64427
15.41188	-13.42502	-3.64427
15.41631	-13.31515	-3.64427
15.42051	-13.18332	-3.64427
15.42470	-13.05148	-3.64427
15.42888	-13.05148	-3.64427
15.43307	-12.91964	-3.64427
15.43725	-12.78781	-3.64427
15.44144	-12.65597	-3.64427
15.44569	-12.52414	-3.64427
15.44998	-12.52414	-3.64427
15.45418	-12.39230	-3.64427
15.45836	-12.23849	-3.64427
15.46256	-12.08468	-3.64427
15.46675	-11.95285	-3.64427
15.47093	-11.79904	-3.64427
15.47511	-11.79904	-3.64427
15.47943	-11.64523	-3.64427
15.48364	-11.51339	-3.64427
15.48783	-11.35959	-3.64427
15.49201	-11.20578	-3.64427
15.49620	-11.20578	-3.64427
15.50038	-10.92013	-3.64427
15.50457	-10.92013	-3.64427
15.50893	-10.76632	-3.64427
15.51319	-10.61252	-3.64427
15.51738	-10.43673	-3.64427
15.52157	-10.26095	-3.64427
15.52575	-10.26095	-3.64427
15.52994	-10.10714	-3.64427
15.53412	-9.95334	-3.64427
15.53831	-9.77756	-3.64427
15.54261	-9.64572	-3.64427
15.54681	-9.46994	-3.64427
15.55100	-9.29416	-3.64427
15.55518	-9.29416	-3.64427
15.55932	-9.11838	-3.64427
15.56351	-8.96457	-3.64427
15.56769	-8.76681	-3.64427
15.57194	-8.59103	-3.64427
15.57621	-8.41525	-3.64427
15.58040	-8.41525	-3.64427
15.58459	-8.23947	-3.64427
15.58878	-8.10763	-3.64427
15.59296	-7.90988	-3.64427
15.59715	-7.73410	-3.64427
15.60133	-7.55832	-3.64427
15.60563	-7.55832	-3.64427
15.60994	-7.36056	-3.64427
15.61412	-7.16281	-3.64427
15.61831	-6.98703	-3.64427
15.62249	-6.81125	-3.64427
15.62668	-6.65744	-3.64427
15.63086	-6.45968	-3.64427
15.63532	-6.45968	-3.64427
15.63953	-6.26193	-3.64427
15.64375	-6.08615	-3.64427
15.64796	-5.88839	-3.64427
15.65215	-5.69064	-3.64427
15.65634	-5.49289	-3.64427
15.66053	-5.49289	-3.64427
15.66479	-5.29513	-3.64427
15.66906	-5.09738	-3.64427
15.67326	-4.94357	-3.64427
15.67744	-4.74582	-3.64427
15.68163	-4.54806	-3.64427
15.68582	-4.35031	-3.64427
15.69000	-4.35031	-3.64427
15.69419	-4.15256	-3.64427
15.69848	-3.95480	-3.64427
15.70269	-3.75705	-3.64427
15.70687	-3.55929	-3.64427
15.71116	-3.55929	-3.64427
15.71532	-3.33957	-3.64427
15.71951	-3.14181	-3.64427
15.72369	-2.94406	-3.64427
15.72811	-2.74631	-3.64427
15.73233	-2.52658	-3.64427
15.73651	-2.52658	-3.64427
15.74070	-2.32882	-3.64427
15.74488	-2.13107	-3.64427
15.74906	-1.91134	-3.64427
15.75325	-1.71359	-3.64427
15.75751	-1.53781	-3.64427
15.76179	-1.34006	-3.64427
15.76600	-1.34006	-3.64427
15.77019	-1.14230	-3.64427
15.77437	-0.92257	-3.64427
15.77856	-0.72482	-3.64427
15.78274	-0.50509	-3.64427
15.78693	-0.50509	-3.64427
15.79124	-0.30734	-3.64427
15.79544	-0.08761	-3.64427
15.79963	0.06619	-3.64427
15.80381	0.28592	-3.64427
15.80800	0.50565	-3.64427
15.81228	0.70340	-3.64427
15.81646	0.70340	-3.64427
15.82071	0.92313	-3.64427
15.82498	1.12088	-3.64427
15.82917	1.34061	-3.64427
15.83336	1.56034	-3.64427
15.83754	1.75809	-3.64427
15.84173	1.93387	-3.64427
15.84591	1.93387	-3.64427
15.85009	2.13162	-3.64427
15.85439	2.35135	-3.64427
15.85862	2.54911	-3.64427
15.86283	2.76883	-3.64427
15.86703	2.98856	-3.64427
15.87126	2.98856	-3.64427
15.87546	3.18631	-3.64427
15.87967	3.40604	-3.64427
15.88418	3.55985	-3.64427
15.88841	3.77957	-3.64427
15.89261	3.97733	-3.64427
15.89680	4.17508	-3.64427
15.90098	4.17508	-3.64427
15.90517	4.39481	-3.64427
15.90935	4.59256	-3.64427
15.91375	4.79032	-3.64427
15.91803	5.01004	-3.64427
15.92223	5.20780	-3.64427
15.92641	5.36161	-3.64427
15.93060	5.36161	-3.64427
15.93479	5.58133	-3.64427
15.93898	5.77909	-3.64427
15.94316	5.97684	-3.64427
15.94744	6.17459	-3.64427
15.95166	6.17459	-3.64427
15.95585	6.37235	-3.64427
15.96003	6.57010	-3.64427
15.96422	6.76786	-3.64427
15.96843	6.96561	-3.64427
15.97262	7.16336	-3.64427
15.97690	7.16336	-3.64427
15.98119	7.36112	-3.64427
15.98540	7.55887	-3.64427
15.98958	7.73465	-3.64427
15.99377	7.95438	-3.64427
15.99796	7.95438	-3.64427
16.00214	8.15213	-3.64427
16.00640	8.32791	-3.64427
16.01070	8.52567	-3.64427
16.01501	8.65750	-3.64427
16.01920	8.85526	-3.64427
16.02339	9.05301	-3.64427
16.02757	9.05301	-3.64427
16.03176	9.22879	-3.64427
16.03595	9.42655	-3.64427
16.04026	9.60233	-3.64427
16.04446	9.77811	-3.64427
16.04866	9.97586	-3.64427
16.05284	10.10770	-3.64427
16.05703	10.10770	-3.64427
16.06121	10.30545	-3.64427
16.06540	10.48123	-3.64427
16.06965	10.65702	-3.64427
16.07393	10.83280	-3.64427
16.07813	11.00858	-3.64427
16.08233	11.00858	-3.64427
16.08651	11.18436	-3.64427
16.09070	11.36014	-3.64427
16.09488	11.53592	-3.64427
16.09907	11.66776	-3.64427
16.10339	11.84354	-3.64427
16.10759	12.01932	-3.64427
16.11177	12.01932	-3.64427
16.11606	12.17313	-3.64427
16.12025	12.34891	-3.64427
16.12443	12.50272	-3.64427
16.12861	12.67850	-3.64427
16.13300	12.67850	-3.64427
16.13722	12.83231	-3.64427
16.14144	12.96414	-3.64427
16.14563	13.13993	-3.64427
16.14984	13.29373	-3.64427
16.15403	13.44754	-3.64427
16.15822	13.60135	-3.64427
16.16248	13.60135	-3.64427
16.16678	13.75516	-3.64427
16.17099	13.90897	-3.64427
16.17518	14.06278	-3.64427
16.17933	14.21659	-3.64427
16.18351	14.34842	-3.64427
16.18770	14.48026	-3.64427
16.19188	14.48026	-3.64427
16.19617	14.63407	-3.64427
16.20038	14.78787	-3.64427
16.20457	14.91971	-3.64427
16.20876	15.07352	-3.64427
16.21294	15.07352	-3.64427
16.21722	15.20536	-3.64427
16.22141	15.35916	-3.64427
16.22566	15.49100	-3.64427
16.22993	15.62284	-3.64427
16.23413	15.75467	-3.64427
16.23832	15.75467	-3.64427
16.24250	15.88651	-3.64427
16.24668	16.01834	-3.64427
16.25087	16.15018	-3.64427
16.25505	16.28202	-3.64427
16.25937	16.39188	-3.64427
16.26356	16.39188	-3.64427
16.26775	16.52371	-3.64427
16.27194	16.63358	-3.64427
16.27612	16.74344	-3.64427
16.28030	16.87528	-3.64427
16.28449	16.96317	-3.64427
16.28873	16.96317	-3.64427
16.29300	17.09500	-3.64427
16.29720	17.20487	-3.64427
16.30138	17.31473	-3.64427
16.30557	17.42459	-3.64427
16.30975	17.51248	-3.64427
16.31393	17.62235	-3.64427
16.31822	17.62235	-3.64427
16.32251	17.73221	-3.64427
16.32673	17.82010	-3.64427
16.33092	17.92996	-3.64427
16.33513	18.01786	-3.64427
16.33933	18.12772	-3.64427
16.34354	18.12772	-3.64427
16.34775	18.21561	-3.64427
16.35224	18.30350	-3.64427
16.35648	18.39139	-3.64427
16.36068	18.47928	-3.64427
16.36487	18.56717	-3.64427
16.36905	18.65506	-3.64427
16.37324	18.65506	-3.64427
16.37743	18.74295	-3.64427
16.38172	18.83084	-3.64427
16.38600	18.89676	-3.64427
16.39020	18.98465	-3.64427
16.39439	19.02860	-3.64427
16.39858	19.11649	-3.64427
16.40276	19.11649	-3.64427
16.40695	19.18241	-3.64427
16.41113	19.27030	-3.64427
16.41545	19.33621	-3.64427
16.41975	19.40213	-3.64427
16.42394	19.40213	-3.64427
16.42812	19.46805	-3.64427
16.43231	19.51200	-3.64427
16.43649	19.57791	-3.64427
16.44068	19.62186	-3.64427
16.44507	19.68778	-3.64427
16.44929	19.75369	-3.64427
16.45348	19.75369	-3.64427
16.45766	19.79764	-3.64427
16.46185	19.84159	-3.64427
16.46604	19.88553	-3.64427
16.47022	19.92948	-3.64427
16.47451	19.97342	-3.64427
16.47881	19.97342	-3.64427
16.48301	20.01737	-3.64427
16.48721	20.06131	-3.64427
16.49139	20.08328	-3.64427
16.49558	20.12723	-3.64427
16.49976	20.12723	-3.64427
16.50395	20.14920	-3.64427
16.50825	20.19315	-3.64427
16.51245	20.21512	-3.64427
16.51663	20.23709	-3.64427
16.52092	20.25907	-3.64427
16.52510	20.25907	-3.64427
16.52929	20.25907	-3.64427
16.53347	20.25907	-3.64427
16.53772	20.28104	-3.64427
16.54199	20.28104	-3.64427
16.54618	20.28104	-3.64427
16.55037	20.28104	-3.64427
16.55456	20.28104	-3.64427
16.55874	20.28104	-3.64427
16.56293	20.25907	-3.64427
16.56711	20.25907	-3.64427
16.57143	20.25907	-3.64427
16.57563	20.23709	-3.64427
16.57982	20.19315	-3.64427
16.58401	20.19315	-3.64427
16.58819	20.19315	-3.64427
16.59237	20.14920	-3.64427
16.59656	20.12723	-3.64427
16.60081	20.10526	-3.64427
16.60508	20.10526	-3.64427
16.60927	20.06131	-3.64427
16.61345	20.03934	-3.64427
16.61766	19.99539	-3.64427
16.62196	19.95145	-3.64427
16.62614	19.90750	-3.64427
16.63032	19.88553	-3.64427
16.63470	19.88553	-3.64427
16.63892	19.81961	-3.64427
16.64311	19.79764	-3.64427
16.64731	19.73172	-3.64427
16.65151	19.70975	-3.64427
16.65570	19.64383	-3.64427
16.65988	19.59989	-3.64427
16.66444	19.59989	-3.64427
16.66867	19.55594	-3.64427
16.67288	19.49002	-3.64427
16.67707	19.42411	-3.64427
16.68127	19.38016	-3.64427
16.68547	19.31424	-3.64427
16.68966	19.31424	-3.64427
16.69394	19.24832	-3.64427
16.69821	19.20438	-3.64427
16.70241	19.13846	-3.64427
16.70660	19.07254	-3.64427
16.71079	19.00662	-3.64427
16.71498	18.94071	-3.64427
16.71917	18.94071	-3.64427
16.72345	18.87479	-3.64427
16.72776	18.78690	-3.64427
16.73197	18.72098	-3.64427
16.73615	18.63309	-3.64427
16.74034	18.63309	-3.64427
16.74452	18.56717	-3.64427
16.74870	18.47928	-3.64427
16.75289	18.41336	-3.64427
16.75735	18.32547	-3.64427
16.76157	18.23758	-3.64427
16.76576	18.23758	-3.64427
16.76994	18.17166	-3.64427
16.77413	18.08377	-3.64427
16.77831	17.99588	-3.64427
16.78251	17.90799	-3.64427
16.78675	17.84207	-3.64427
16.79104	17.73221	-3.64427
16.79524	17.73221	-3.64427
16.79943	17.64432	-3.64427
16.80362	17.55643	-3.64427
16.80780	17.46854	-3.64427
16.81199	17.35868	-3.64427
16.81617	17.35868	-3.64427
16.82046	17.18289	-3.64427
16.82477	17.18289	-3.64427
16.82896	17.09500	-3.64427
16.83315	17.00711	-3.64427
16.83733	16.89725	-3.64427
16.84151	16.78739	-3.64427
16.84570	16.78739	-3.64427
16.84995	16.67752	-3.64427
16.85422	16.58963	-3.64427
16.85844	16.47977	-3.64427
16.86263	16.36991	-3.64427
16.86682	16.28202	-3.64427
16.87101	16.17215	-3.64427
16.87520	16.17215	-3.64427
16.87939	16.06229	-3.64427
16.88368	15.95243	-3.64427
16.88788	15.84256	-3.64427
16.89207	15.73270	-3.64427
16.89625	15.62284	-3.64427
16.90043	15.62284	-3.64427
16.90462	15.49100	-3.64427
16.90880	15.40311	-3.64427
16.91305	15.29325	-3.64427
16.91732	15.18338	-3.64427
16.92152	15.05155	-3.64427
16.92580	14.94168	-3.64427
16.92999	14.94168	-3.64427
16.93417	14.80985	-3.64427
16.93835	14.69998	-3.64427
16.94254	14.56815	-3.64427
16.94683	14.43631	-3.64427
16.95103	14.34842	-3.64427
16.95523	14.34842	-3.64427
16.95943	14.23856	-3.64427
16.96364	14.10672	-3.64427
16.96783	13.97489	-3.64427
16.97201	13.84305	-3.64427
16.97645	13.71121	-3.64427
16.98066	13.71121	-3.64427
16.98485	13.57938	-3.64427
16.98904	13.44754	-3.64427
16.99323	13.31571	-3.64427
16.99741	13.20584	-3.64427
17.00159	13.07401	-3.64427
17.00585	13.07401	-3.64427
17.01013	12.92020	-3.64427
17.01433	12.78836	-3.64427
17.01852	12.65653	-3.64427
17.02271	12.52469	-3.64427
17.02702	12.52469	-3.64427
17.03122	12.39286	-3.64427
17.03540	12.26102	-3.64427
17.03971	12.15116	-3.64427
17.04391	12.01932	-3.64427
17.04810	11.88748	-3.64427
17.05228	11.75565	-3.64427
17.05649	11.75565	-3.64427
17.06068	11.62381	-3.64427
17.06488	11.47000	-3.64427
17.06931	11.33817	-3.64427
17.07352	11.18436	-3.64427
17.07771	11.09647	-3.64427
17.08190	10.94266	-3.64427
17.08609	10.94266	-3.64427
17.09028	10.81082	-3.64427
17.09446	10.67899	-3.64427
17.09873	10.52518	-3.64427
17.10302	10.39334	-3.64427
17.10723	10.23953	-3.64427
17.11142	10.23953	-3.64427
17.11561	10.10770	-3.64427
17.11979	9.97586	-3.64427
17.12398	9.86600	-3.64427
17.12827	9.71219	-3.64427
17.13256	9.58036	-3.64427
17.13677	9.42655	-3.64427
17.14096	9.42655	-3.64427
17.14514	9.29471	-3.64427
17.14933	9.14090	-3.64427
17.15351	9.00907	-3.64427
17.15772	8.85526	-3.64427
17.16198	8.74539	-3.64427
17.16626	8.74539	-3.64427
17.17046	8.61356	-3.64427
17.17465	8.45975	-3.64427
17.17883	8.30594	-3.64427
17.18302	8.17411	-3.64427
17.18722	8.02030	-3.64427
17.19140	8.02030	-3.64427
17.19571	7.88846	-3.64427
17.19991	7.73465	-3.64427
17.20409	7.60282	-3.64427
17.20828	7.49295	-3.64427
17.21246	7.33914	-3.64427
17.21665	7.20731	-3.64427
17.22083	7.20731	-3.64427
17.22508	7.05350	-3.64427
17.22946	6.92166	-3.64427
17.23366	6.76786	-3.64427
17.23784	6.63602	-3.64427
17.24203	6.63602	-3.64427
17.24621	6.48221	-3.64427
17.25040	6.35037	-3.64427
17.25458	6.19657	-3.64427
17.25890	6.06473	-3.64427
17.26311	5.91092	-3.64427
17.26732	5.91092	-3.64427
17.27151	5.77909	-3.64427
17.27571	5.64725	-3.64427
17.27990	5.49344	-3.64427
17.28408	5.33963	-3.64427
17.28853	5.20780	-3.64427
17.29274	5.09793	-3.64427
17.29693	5.09793	-3.64427
17.30111	4.96610	-3.64427
17.30530	4.81229	-3.64427
17.30949	4.68045	-3.64427
17.31367	4.52664	-3.64427
17.31792	4.52664	-3.64427
17.32220	4.39481	-3.64427
17.32640	4.26297	-3.64427
17.33069	4.13114	-3.64427
17.33488	3.99930	-3.64427
17.33907	3.86746	-3.64427
17.34326	3.73563	-3.64427
17.34744	3.73563	-3.64427
17.35175	3.60379	-3.64427
17.35595	3.47196	-3.64427
17.36015	3.34012	-3.64427
17.36434	3.18631	-3.64427
17.36853	3.05448	-3.64427
17.37272	3.05448	-3.64427
17.37691	2.92264	-3.64427
17.38117	2.81278	-3.64427
17.38545	2.68094	-3.64427
17.38966	2.57108	-3.64427
17.39385	2.41727	-3.64427
17.39803	2.28543	-3.64427
17.40222	2.28543	-3.64427
17.40640	2.15360	-3.64427
17.41059	2.02176	-3.64427
17.41489	1.91190	-3.64427
17.41909	1.80203	-3.64427
17.42329	1.67020	-3.64427
17.42747	1.67020	-3.64427
17.43176	1.53836	-3.64427
17.43594	1.40653	-3.64427
17.44013	1.29666	-3.64427
17.44457	1.16483	-3.64427
17.44878	1.03299	-3.64427
17.45297	1.03299	-3.64427
17.45718	0.92313	-3.64427
17.46137	0.79129	-3.64427
17.46556	0.70340	-3.64427
17.46975	0.57157	-3.64427
17.47401	0.46170	-3.64427
17.47828	0.35184	-3.64427
17.48248	0.35184	-3.64427
17.48667	0.22000	-3.64427
17.49085	0.11014	-3.64427
17.49504	-0.02170	-3.64427
17.49923	-0.13156	-3.64427
17.50342	-0.24142	-3.64427
17.50772	-0.24142	-3.64427
17.51191	-0.35129	-3.64427
17.51610	-0.46115	-3.64427
17.52029	-0.57101	-3.64427
17.52447	-0.68088	-3.64427
17.52866	-0.68088	-3.64427
17.53295	-0.79074	-3.64427
17.53739	-0.90060	-3.64427
17.54159	-0.98849	-3.64427
17.54578	-1.09836	-3.64427
17.54997	-1.18625	-3.64427
17.55415	-1.27414	-3.64427
17.55836	-1.27414	-3.64427
17.56256	-1.38400	-3.64427
17.56682	-1.49386	-3.64427
17.57111	-1.58175	-3.64427
17.57532	-1.69162	-3.64427
17.57951	-1.77951	-3.64427
17.58370	-1.77951	-3.64427
17.58789	-1.86740	-3.64427
17.59207	-1.95529	-3.64427
17.59625	-2.02121	-3.64427
17.60055	-2.13107	-3.64427
17.60476	-2.19699	-3.64427
17.60894	-2.30685	-3.64427
17.61314	-2.30685	-3.64427
17.61732	-2.39474	-3.64427
17.62151	-2.46066	-3.64427
17.62569	-2.54855	-3.64427
17.62995	-2.63644	-3.64427
17.63434	-2.70236	-3.64427
17.63854	-2.79025	-3.64427
17.64275	-2.79025	-3.64427
17.64695	-2.85617	-3.64427
17.65116	-2.92209	-3.64427
17.65533	-3.00998	-3.64427
17.65954	-3.07589	-3.64427
17.66386	-3.07589	-3.64427
17.66807	-3.16379	-3.64427
17.67227	-3.22970	-3.64427
17.67646	-3.29562	-3.64427
17.68065	-3.36154	-3.64427
17.68484	-3.40548	-3.64427
17.68902	-3.49338	-3.64427
17.69341	-3.49338	-3.64427
17.69763	-3.55929	-3.64427
17.70182	-3.60324	-3.64427
17.70601	-3.66916	-3.64427
17.71019	-3.73507	-3.64427
17.71438	-3.80099	-3.64427
17.71856	-3.84494	-3.64427
17.72280	-3.84494	-3.64427
17.72709	-3.88888	-3.64427
17.73130	-3.95480	-3.64427
17.73560	-3.99875	-3.64427
17.73978	-4.04269	-3.64427
17.74397	-4.04269	-3.64427
17.74815	-4.08664	-3.64427
17.75233	-4.15256	-3.64427
17.75663	-4.19650	-3.64427
17.76085	-4.24045	-3.64427
17.76505	-4.28439	-3.64427
17.76923	-4.28439	-3.64427
17.77342	-4.32834	-3.64427
17.77760	-4.37228	-3.64427
17.78180	-4.39425	-3.64427
17.78606	-4.43820	-3.64427
17.79034	-4.48214	-3.64427
17.79454	-4.48214	-3.64427
17.79872	-4.50412	-3.64427
17.80291	-4.54806	-3.64427
17.80710	-4.57004	-3.64427
17.81130	-4.61398	-3.64427
17.81548	-4.63595	-3.64427
17.81978	-4.65793	-3.64427
17.82399	-4.65793	-3.64427
17.82817	-4.67990	-3.64427
17.83236	-4.70187	-3.64427
17.83664	-4.72384	-3.64427
17.84083	-4.74582	-3.64427
17.84502	-4.76779	-3.64427
17.84941	-4.78976	-3.64427
17.85363	-4.78976	-3.64427
17.85784	-4.81173	-3.64427
17.86203	-4.81173	-3.64427
17.86622	-4.83371	-3.64427
17.87041	-4.85568	-3.64427
17.87459	-4.85568	-3.64427
17.87884	-4.87765	-3.64427
17.88313	-4.87765	-3.64427
17.88733	-4.87765	-3.64427
17.89152	-4.89963	-3.64427
17.89571	-4.89963	-3.64427
17.89989	-4.89963	-3.64427
17.90407	-4.89963	-3.64427
17.90826	-4.89963	-3.64427
17.91256	-4.92160	-3.64427
17.91676	-4.92160	-3.64427
17.92095	-4.92160	-3.64427
17.92513	-4.92160	-3.64427
17.92931	-4.89963	-3.64427
17.93350	-4.92160	-3.64427
17.93778	-4.89963	-3.64427
17.94203	-4.89963	-3.64427
17.94630	-4.89963	-3.64427
17.95050	-4.87765	-3.64427
17.95468	-4.87765	-3.64427
17.95889	-4.87765	-3.64427
17.96310	-4.87765	-3.64427
17.96730	-4.85568	-3.64427
17.97149	-4.85568	-3.64427
17.97579	-4.83371	-3.64427
17.97999	-4.81173	-3.64427
17.98417	-4.81173	-3.64427
17.98836	-4.81173	-3.64427
17.99255	-4.76779	-3.64427
17.99674	-4.76779	-3.64427
18.00092	-4.74582	-3.64427
18.00517	-4.72384	-3.64427
18.00943	-4.72384	-3.64427
18.01363	-4.70187	-3.64427
18.01781	-4.65793	-3.64427
18.02202	-4.65793	-3.64427
18.02621	-4.61398	-3.64427
18.03040	-4.61398	-3.64427
18.03459	-4.59201	-3.64427
18.03900	-4.57004	-3.64427
18.04320	-4.52609	-3.64427
18.04739	-4.50412	-3.64427
18.05157	-4.48214	-3.64427
18.05576	-4.48214	-3.64427
18.05996	-4.43820	-3.64427
18.06415	-4.41623	-3.64427
18.06855	-4.37228	-3.64427
18.07278	-4.32834	-3.64427
18.07696	-4.28439	-3.64427
18.08115	-4.26242	-3.64427
18.08534	-4.26242	-3.64427
18.08952	-4.21847	-3.64427
18.09372	-4.17453	-3.64427
18.09799	-4.13058	-3.64427
18.10228	-4.10861	-3.64427
18.10648	-4.06466	-3.64427
18.11066	-3.99875	-3.64427
18.11485	-3.99875	-3.64427
18.11903	-3.95480	-3.64427
18.12322	-3.91086	-3.64427
18.12741	-3.86691	-3.64427
18.13171	-3.82297	-3.64427
18.13591	-3.82297	-3.64427
18.14020	-3.77902	-3.64427
18.14439	-3.71310	-3.64427
18.14857	-3.66916	-3.64427
18.15276	-3.62521	-3.64427
18.15694	-3.58127	-3.64427
18.16121	-3.51535	-3.64427
18.16550	-3.51535	-3.64427
18.16969	-3.47140	-3.64427
18.17388	-3.40548	-3.64427
18.17806	-3.33957	-3.64427
18.18225	-3.29562	-3.64427
18.18644	-3.25168	-3.64427
18.19063	-3.20773	-3.64427
18.19493	-3.20773	-3.64427
18.19913	-3.14181	-3.64427
18.20332	-3.07589	-3.64427
18.20751	-3.03195	-3.64427
18.21169	-2.96603	-3.64427
18.21588	-2.96603	-3.64427
18.22006	-2.90011	-3.64427
18.22431	-2.83420	-3.64427
18.22857	-2.76828	-3.64427
18.23278	-2.70236	-3.64427
18.23697	-2.65841	-3.64427
18.24126	-2.59250	-3.64427
18.24544	-2.59250	-3.64427
18.24963	-2.52658	-3.64427
18.25381	-2.46066	-3.64427
18.25812	-2.39474	-3.64427
18.26233	-2.32882	-3.64427
18.26652	-2.26291	-3.64427
18.27071	-2.26291	-3.64427
18.27490	-2.17502	-3.64427
18.27909	-2.10910	-3.64427
18.28329	-2.04318	-3.64427
18.28755	-1.97726	-3.64427
18.29183	-1.97726	-3.64427
18.29602	-1.91134	-3.64427
18.30021	-1.84543	-3.64427
18.30439	-1.75754	-3.64427
18.30858	-1.69162	-3.64427
18.31276	-1.62570	-3.64427
18.31695	-1.55978	-3.64427
18.32125	-1.55978	-3.64427
18.32545	-1.47189	-3.64427
18.32963	-1.40597	-3.64427
18.33382	-1.34006	-3.64427
18.33800	-1.25216	-3.64427
18.34229	-1.18625	-3.64427
18.34647	-1.18625	-3.64427
18.35087	-1.09836	-3.64427
18.35509	-1.03244	-3.64427
18.35930	-0.96652	-3.64427
18.36350	-0.87863	-3.64427
18.36769	-0.81271	-3.64427
18.37188	-0.72482	-3.64427
18.37606	-0.72482	-3.64427
18.38032	-0.65890	-3.64427
18.38462	-0.57101	-3.64427
18.38881	-0.50509	-3.64427
18.39300	-0.41720	-3.64427
18.39718	-0.41720	-3.64427
18.40137	-0.32931	-3.64427
18.40555	-0.28537	-3.64427
18.40973	-0.17550	-3.64427
18.41403	-0.10959	-3.64427
18.41823	-0.02170	-3.64427
18.42242	0.06619	-3.64427
18.42660	0.06619	-3.64427
18.43078	0.13211	-3.64427
18.43497	0.24198	-3.64427
18.43915	0.30789	-3.64427
18.44351	0.37381	-3.64427
18.44778	0.46170	-3.64427
18.45198	0.54959	-3.64427
18.45617	0.54959	-3.64427
18.46037	0.63748	-3.64427
18.46456	0.72537	-3.64427
18.46874	0.81327	-3.64427
18.47299	0.90116	-3.64427
18.47728	0.96707	-3.64427
18.48148	0.96707	-3.64427
18.48567	1.07694	-3.64427
18.48985	1.14286	-3.64427
18.49404	1.23075	-3.64427
18.49823	1.31864	-3.64427
18.50242	1.40653	-3.64427
18.50672	1.40653	-3.64427
18.51092	1.49442	-3.64427
18.51511	1.58231	-3.64427
18.51930	1.67020	-3.64427
18.52349	1.75809	-3.64427
18.52767	1.84598	-3.64427
18.53186	1.84598	-3.64427
18.53611	1.93387	-3.64427
18.54037	2.02176	-3.64427
18.54467	2.10965	-3.64427
18.54886	2.19754	-3.64427
18.55304	2.28543	-3.64427
18.55722	2.28543	-3.64427
18.56142	2.37332	-3.64427
18.56562	2.46121	-3.64427
18.56993	2.54911	-3.64427
18.57414	2.61502	-3.64427
18.57832	2.70291	-3.64427
18.58251	2.70291	-3.64427
18.58670	2.79080	-3.64427
18.59089	2.90067	-3.64427
18.59508	2.96659	-3.64427
18.59956	3.05448	-3.64427
18.60377	3.16434	-3.64427
18.60795	3.16434	-3.64427
18.61214	3.23026	-3.64427
18.61633	3.29618	-3.64427
18.62051	3.38407	-3.64427
18.62470	3.47196	-3.64427
18.62896	3.55985	-3.64427
18.63324	3.64774	-3.64427
18.63744	3.64774	-3.64427
18.64163	3.73563	-3.64427
18.64592	3.82352	-3.64427
18.65010	3.91141	-3.64427
18.65428	3.99930	-3.64427
18.65849	4.06522	-3.64427
18.66280	4.15311	-3.64427
18.66702	4.15311	-3.64427
18.67122	4.24100	-3.64427
18.67541	4.32889	-3.64427
18.67960	4.41678	-3.64427
18.68379	4.50467	-3.64427
18.68798	4.50467	-3.64427
18.69224	4.57059	-3.64427
18.69651	4.65848	-3.64427
18.70072	4.72440	-3.64427
18.70490	4.81229	-3.64427
18.70909	4.90018	-3.64427
18.71327	4.96610	-3.64427
18.71746	4.96610	-3.64427
18.72165	5.05399	-3.64427
18.72595	5.14188	-3.64427
18.73015	5.20780	-3.64427
18.73434	5.29569	-3.64427
18.73853	5.38358	-3.64427
18.74271	5.42752	-3.64427
18.74700	5.42752	-3.64427
18.75120	5.51541	-3.64427
18.75562	5.58133	-3.64427
18.75985	5.66922	-3.64427
18.76405	5.73514	-3.64427
18.76824	5.82303	-3.64427
18.77244	5.82303	-3.64427
18.77664	5.91092	-3.64427
18.78083	5.97684	-3.64427
18.78509	6.04276	-3.64427
18.78937	6.13065	-3.64427
18.79356	6.13065	-3.64427
18.79775	6.19657	-3.64427
18.80195	6.28446	-3.64427
18.80614	6.35037	-3.64427
18.81032	6.41629	-3.64427
18.81450	6.48221	-3.64427
18.81880	6.48221	-3.64427
18.82301	6.54813	-3.64427
18.82720	6.63602	-3.64427
18.83139	6.67996	-3.64427
18.83557	6.76786	-3.64427
18.83976	6.83377	-3.64427
18.84394	6.89969	-3.64427
18.84847	6.89969	-3.64427
18.85267	6.96561	-3.64427
18.85685	7.03153	-3.64427
18.86106	7.09744	-3.64427
18.86525	7.16336	-3.64427
18.86943	7.20731	-3.64427
18.87362	7.27323	-3.64427
18.87787	7.27323	-3.64427
18.88213	7.36112	-3.64427
18.88633	7.40506	-3.64427
18.89052	7.47098	-3.64427
18.89470	7.53690	-3.64427
18.89889	7.53690	-3.64427
18.90308	7.60282	-3.64427
18.90727	7.64676	-3.64427
18.91157	7.71268	-3.64427
18.91578	7.75662	-3.64427
18.91996	7.80057	-3.64427
18.92415	7.86649	-3.64427
18.92833	7.86649	-3.64427
18.93252	7.93241	-3.64427
18.93670	7.97635	-3.64427
18.94113	8.04227	-3.64427
18.94534	8.10819	-3.64427
18.94963	8.13016	-3.64427
18.95382	8.17411	-3.64427
18.95801	8.17411	-3.64427
18.96222	8.24002	-3.64427
18.96642	8.28397	-3.64427
18.97068	8.32791	-3.64427
18.97494	8.39383	-3.64427
18.97914	8.43778	-3.64427
18.98333	8.43778	-3.64427
18.98752	8.48172	-3.64427
18.99170	8.52567	-3.64427
18.99589	8.56961	-3.64427
19.00007	8.61356	-3.64427
19.00437	8.65750	-3.64427
19.00858	8.65750	-3.64427
19.01276	8.70145	-3.64427
19.01695	8.74539	-3.64427
19.02113	8.76737	-3.64427
19.02532	8.81131	-3.64427
19.02950	8.85526	-3.64427
19.03393	8.85526	-3.64427
19.03814	8.89920	-3.64427
19.04232	8.94315	-3.64427
19.04650	8.96512	-3.64427
19.05080	9.00907	-3.64427
19.05500	9.05301	-3.64427
19.05921	9.05301	-3.64427
19.06349	9.09696	-3.64427
19.06777	9.11893	-3.64427
19.07197	9.16287	-3.64427
19.07616	9.18485	-3.64427
19.08035	9.18485	-3.64427
19.08455	9.25077	-3.64427
19.08873	9.25077	-3.64427
19.09292	9.29471	-3.64427
19.09722	9.31668	-3.64427
19.10142	9.33866	-3.64427
19.10561	9.36063	-3.64427
19.10980	9.36063	-3.64427
19.11398	9.40457	-3.64427
19.11817	9.42655	-3.64427
19.12235	9.44852	-3.64427
19.12679	9.47049	-3.64427
19.13101	9.49246	-3.64427
19.13521	9.51444	-3.64427
19.13940	9.51444	-3.64427
19.14359	9.53641	-3.64427
19.14777	9.55838	-3.64427
19.15206	9.58036	-3.64427
19.15632	9.60233	-3.64427
19.16062	9.62430	-3.64427
19.16483	9.62430	-3.64427
19.16902	9.64627	-3.64427
19.17322	9.66825	-3.64427
19.17741	9.69022	-3.64427
19.18159	9.71219	-3.64427
19.18578	9.73416	-3.64427
19.19008	9.73416	-3.64427
19.19428	9.73416	-3.64427
19.19847	9.75614	-3.64427
19.20266	9.75614	-3.64427
19.20684	9.77811	-3.64427
19.21103	9.77811	-3.64427
19.21523	9.80008	-3.64427
19.21967	9.82205	-3.64427
19.22387	9.82205	-3.64427
19.22806	9.82205	-3.64427
19.23225	9.82205	-3.64427
19.23643	9.84403	-3.64427
19.24062	9.84403	-3.64427
19.24480	9.84403	-3.64427
19.24906	9.86600	-3.64427
19.25345	9.86600	-3.64427
19.25764	9.86600	-3.64427
19.26185	9.86600	-3.64427
19.26604	9.88797	-3.64427
19.27024	9.88797	-3.64427
19.27443	9.88797	-3.64427
19.27862	9.88797	-3.64427
19.28293	9.88797	-3.64427
19.28714	9.88797	-3.64427
19.29133	9.90994	-3.64427
19.29552	9.90994	-3.64427
19.29970	9.90994	-3.64427
19.30390	9.90994	-3.64427
19.30809	9.88797	-3.64427
19.31234	9.88797	-3.64427
19.31661	9.88797	-3.64427
19.32081	9.88797	-3.64427
19.32500	9.88797	-3.64427
19.32918	9.88797	-3.64427
19.33337	9.88797	-3.64427
19.33756	9.88797	-3.64427
19.34176	9.88797	-3.64427
19.34607	9.88797	-3.64427
19.35029	9.88797	-3.64427
19.35458	9.86600	-3.64427
19.35877	9.86600	-3.64427
19.36297	9.86600	-3.64427
19.36716	9.84403	-3.64427
19.37133	9.84403	-3.64427
19.37577	9.84403	-3.64427
19.37998	9.82205	-3.64427
19.38417	9.82205	-3.64427
19.38836	9.82205	-3.64427
19.39254	9.80008	-3.64427
19.39673	9.80008	-3.64427
19.40091	9.80008	-3.64427
19.40518	9.77811	-3.64427
19.40946	9.77811	-3.64427
19.41367	9.75614	-3.64427
19.41786	9.73416	-3.64427
19.42204	9.73416	-3.64427
19.42623	9.71219	-3.64427
19.43041	9.71219	-3.64427
19.43459	9.69022	-3.64427
19.43889	9.69022	-3.64427
19.44312	9.66825	-3.64427
19.44732	9.64627	-3.64427
19.45150	9.64627	-3.64427
19.45579	9.64627	-3.64427
19.46000	9.62430	-3.64427
19.46419	9.60233	-3.64427
19.46862	9.58036	-3.64427
19.47284	9.58036	-3.64427
19.47703	9.55838	-3.64427
19.48122	9.53641	-3.64427
19.48540	9.53641	-3.64427
19.48959	9.51444	-3.64427
19.49377	9.49246	-3.64427
19.49805	9.47049	-3.64427
19.50234	9.44852	-3.64427
19.50654	9.42655	-3.64427
19.51072	9.40457	-3.64427
19.51491	9.40457	-3.64427
19.51910	9.38260	-3.64427
19.52329	9.36063	-3.64427
19.52748	9.33866	-3.64427
19.53178	9.31668	-3.64427
19.53598	9.31668	-3.64427
19.54017	9.29471	-3.64427
19.54435	9.27274	-3.64427
19.54854	9.25077	-3.64427
19.55273	9.22879	-3.64427
19.55701	9.18485	-3.64427
19.56129	9.18485	-3.64427
19.56558	9.16287	-3.64427
19.56977	9.14090	-3.64427
19.57396	9.11893	-3.64427
19.57815	9.09696	-3.64427
19.58233	9.07498	-3.64427
19.58652	9.07498	-3.64427
19.59070	9.03104	-3.64427
19.59500	9.00907	-3.64427
19.59923	8.98709	-3.64427
19.60341	8.96512	-3.64427
19.60760	8.94315	-3.64427
19.61178	8.94315	-3.64427
19.61597	8.89920	-3.64427
19.62015	8.87723	-3.64427
19.62440	8.85526	-3.64427
19.62867	8.81131	-3.64427
19.63287	8.78934	-3.64427
19.63706	8.76737	-3.64427
19.64124	8.76737	-3.64427
19.64543	8.74539	-3.64427
19.64961	8.70145	-3.64427
19.65379	8.67948	-3.64427
19.65819	8.65750	-3.64427
19.66241	8.63553	-3.64427
19.66661	8.63553	-3.64427
19.67081	8.59159	-3.64427
19.67500	8.56961	-3.64427
19.67920	8.52567	-3.64427
19.68338	8.50369	-3.64427
19.68782	8.48172	-3.64427
19.69203	8.45975	-3.64427
19.69622	8.45975	-3.64427
19.70040	8.41580	-3.64427
19.70459	8.39383	-3.64427
19.70877	8.37186	-3.64427
19.71296	8.32791	-3.64427
19.71721	8.32791	-3.64427
19.72151	8.28397	-3.64427
19.72571	8.28397	-3.64427
19.72990	8.24002	-3.64427
19.73409	8.21805	-3.64427
19.73828	8.19608	-3.64427
19.74246	8.15213	-3.64427
19.74665	8.15213	-3.64427
19.75095	8.13016	-3.64427
19.75515	8.08621	-3.64427
19.75943	8.06424	-3.64427
19.76364	8.04227	-3.64427
19.76785	7.99832	-3.64427
19.77204	7.97635	-3.64427
19.77624	7.97635	-3.64427
19.78051	7.95438	-3.64427
19.78479	7.91043	-3.64427
19.78899	7.88846	-3.64427
19.79318	7.84452	-3.64427
19.79738	7.82254	-3.64427
19.80157	7.82254	-3.64427
19.80576	7.77860	-3.64427
19.80995	7.75662	-3.64427
19.81425	7.73465	-3.64427
19.81845	7.69071	-3.64427
19.82264	7.69071	-3.64427
19.82682	7.66873	-3.64427
19.83101	7.62479	-3.64427
19.83520	7.60282	-3.64427
19.83939	7.55887	-3.64427
19.84382	7.53690	-3.64427
19.84803	7.53690	-3.64427
19.85222	7.49295	-3.64427
19.85640	7.47098	-3.64427
19.86073	7.44901	-3.64427
19.86492	7.40506	-3.64427
19.86910	7.38309	-3.64427
19.87336	7.33914	-3.64427
19.87763	7.33914	-3.64427
19.88184	7.31717	-3.64427
19.88603	7.27323	-3.64427
19.89022	7.25125	-3.64427
19.89440	7.22928	-3.64427
19.89858	7.18534	-3.64427
19.90277	7.16336	-3.64427
19.90706	7.16336	-3.64427
19.91128	7.11942	-3.64427
19.91547	7.09744	-3.64427
19.91965	7.05350	-3.64427
19.92384	7.03153	-3.64427
19.92802	7.03153	-3.64427
19.93221	7.00955	-3.64427
19.93647	6.96561	-3.64427
19.94074	6.94364	-3.64427
19.94493	6.89969	-3.64427
19.94912	6.87772	-3.64427
19.95330	6.85575	-3.64427
19.95749	6.85575	-3.64427
19.96182	6.81180	-3.64427
19.96610	6.78983	-3.64427
19.97039	6.74588	-3.64427
19.97459	6.72391	-3.64427
19.97878	6.70194	-3.64427
19.98297	6.65799	-3.64427
19.98715	6.65799	-3.64427
19.99133	6.63602	-3.64427
19.99551	6.59207	-3.64427
19.99981	6.57010	-3.64427
20.00401	6.52616	-3.64427
20.00820	6.50418	-3.64427
20.01238	6.50418	-3.64427
20.01657	6.48221	-3.64427
20.02076	6.43827	-3.64427
20.02494	6.41629	-3.64427
20.02920	6.37235	-3.64427
20.03347	6.35037	-3.64427
20.03767	6.35037	-3.64427
20.04186	6.32840	-3.64427
20.04604	6.28446	-3.64427
20.05023	6.26248	-3.64427
20.05441	6.24051	-3.64427
20.05860	6.21854	-3.64427
20.06304	6.21854	-3.64427
20.06726	6.17459	-3.64427
20.07145	6.15262	-3.64427
20.07563	6.13065	-3.64427
20.07982	6.08670	-3.64427
20.08400	6.06473	-3.64427
20.08818	6.06473	-3.64427
20.09261	6.04276	-3.64427
20.09682	5.99881	-3.64427
20.10101	5.97684	-3.64427
20.10520	5.95487	-3.64427
20.10939	5.93289	-3.64427
20.11357	5.93289	-3.64427
20.11776	5.88895	-3.64427
20.12201	5.86698	-3.64427
20.12629	5.84500	-3.64427
20.13049	5.82303	-3.64427
20.13468	5.77909	-3.64427
20.13886	5.77909	-3.64427
20.14305	5.75711	-3.64427
20.14725	5.73514	-3.64427
20.15143	5.71317	-3.64427
20.15574	5.71317	-3.64427
20.15994	5.66922	-3.64427
20.16425	5.64725	-3.64427
20.16845	5.64725	-3.64427
20.17264	5.62528	-3.64427
20.17682	5.60330	-3.64427
20.18101	5.58133	-3.64427
20.18544	5.55936	-3.64427
20.18965	5.53739	-3.64427
20.19384	5.51541	-3.64427
20.19802	5.51541	-3.64427
20.20221	5.49344	-3.64427
20.20640	5.47147	-3.64427
20.21058	5.44950	-3.64427
20.21484	5.42752	-3.64427
20.21913	5.42752	-3.64427
20.22335	5.42752	-3.64427
20.22754	5.40555	-3.64427
20.23173	5.38358	-3.64427
20.23591	5.36161	-3.64427
20.24010	5.33963	-3.64427
20.24428	5.31766	-3.64427
20.24858	5.31766	-3.64427
20.25278	5.29569	-3.64427
20.25697	5.29569	-3.64427
20.26117	5.27371	-3.64427
20.26553	5.25174	-3.64427
20.26974	5.22977	-3.64427
20.27394	5.22977	-3.64427
20.27837	5.20780	-3.64427
20.28260	5.20780	-3.64427
20.28680	5.18582	-3.64427
20.29098	5.18582	-3.64427
20.29517	5.16385	-3.64427
20.29933	5.14188	-3.64427
20.30351	5.14188	-3.64427
20.30780	5.11991	-3.64427
20.31208	5.11991	-3.64427
20.31628	5.09793	-3.64427
20.32047	5.09793	-3.64427
20.32466	5.07596	-3.64427
20.32884	5.07596	-3.64427
20.33302	5.05399	-3.64427
20.33721	5.05399	-3.64427
20.34150	5.03202	-3.64427
20.34571	5.03202	-3.64427
20.34989	5.03202	-3.64427
20.35408	5.01004	-3.64427
20.35826	4.98807	-3.64427
20.36247	4.98807	-3.64427
20.36678	4.98807	-3.64427
20.37124	4.96610	-3.64427
20.37546	4.94412	-3.64427
20.37965	4.94412	-3.64427
20.38384	4.94412	-3.64427
20.38803	4.92215	-3.64427
20.39221	4.92215	-3.64427
20.39640	4.92215	-3.64427
20.40066	4.90018	-3.64427
20.40494	4.90018	-3.64427
20.40913	4.90018	-3.64427
20.41332	4.90018	-3.64427
20.41751	4.87821	-3.64427
20.42169	4.87821	-3.64427
20.42588	4.85623	-3.64427
20.43006	4.85623	-3.64427
20.43437	4.85623	-3.64427
20.43857	4.85623	-3.64427
20.44276	4.85623	-3.64427
20.44694	4.83426	-3.64427
20.45113	4.83426	-3.64427
20.45532	4.81229	-3.64427
20.45954	4.81229	-3.64427
20.46382	4.81229	-3.64427
20.46820	4.81229	-3.64427
20.47240	4.81229	-3.64427
20.47658	4.81229	-3.64427
20.48077	4.81229	-3.64427
20.48495	4.81229	-3.64427
20.48914	4.79032	-3.64427
20.49332	4.79032	-3.64427
20.49762	4.79032	-3.64427
20.50182	4.79032	-3.64427
20.50600	4.79032	-3.64427
20.51019	4.76834	-3.64427
20.51438	4.76834	-3.64427
20.51856	4.76834	-3.64427
20.52276	4.76834	-3.64427
20.52723	4.76834	-3.64427
20.53145	4.76834	-3.64427
20.53564	4.76834	-3.64427
20.53983	4.76834	-3.64427
20.54401	4.76834	-3.64427
20.54820	4.76834	-3.64427
20.55238	4.74637	-3.64427
20.55664	4.76834	-3.64427
20.56095	4.74637	-3.64427
20.56516	4.74637	-3.64427
20.56946	4.74637	-3.64427
20.57365	4.74637	-3.64427
20.57783	4.76834	-3.64427
20.58202	4.76834	-3.64427
20.58620	4.74637	-3.64427
20.59051	4.74637	-3.64427
20.59471	4.74637	-3.64427
20.59890	4.76834	-3.64427
20.60308	4.74637	-3.64427
20.60728	4.76834	-3.64427
20.61146	4.76834	-3.64427
20.61567	4.76834	-3.64427
20.62012	4.76834	-3.64427
20.62433	4.76834	-3.64427
20.62852	4.76834	-3.64427
20.63271	4.76834	-3.64427
20.63689	4.76834	-3.64427
20.64108	4.76834	-3.64427
20.64527	4.76834	-3.64427
20.64953	4.79032	-3.64427
20.65382	4.79032	-3.64427
20.65801	4.79032	-3.64427
20.66222	4.79032	-3.64427
20.66642	4.79032	-3.64427
20.67071	4.79032	-3.64427
20.67490	4.79032	-3.64427
20.67909	4.81229	-3.64427
20.68342	4.81229	-3.64427
20.68762	4.81229	-3.64427
20.69181	4.83426	-3.64427
20.69599	4.83426	-3.64427
20.70018	4.83426	-3.64427
20.70437	4.83426	-3.64427
20.70855	4.83426	-3.64427
20.71301	4.83426	-3.64427
20.71723	4.85623	-3.64427
20.72142	4.85623	-3.64427
20.72560	4.85623	-3.64427
20.72979	4.87821	-3.64427
20.73398	4.87821	-3.64427
20.73816	4.87821	-3.64427
20.74241	4.87821	-3.64427
20.74669	4.90018	-3.64427
20.75089	4.90018	-3.64427
20.75508	4.90018	-3.64427
20.75927	4.92215	-3.64427
20.76348	4.92215	-3.64427
20.76767	4.92215	-3.64427
20.77197	4.94412	-3.64427
20.77626	4.94412	-3.64427
20.78047	4.94412	-3.64427
20.78466	4.96610	-3.64427
20.78885	4.96610	-3.64427
20.79303	4.96610	-3.64427
20.79721	4.98807	-3.64427
20.80140	4.98807	-3.64427
20.80565	4.98807	-3.64427
20.80992	5.01004	-3.64427
20.81411	5.01004	-3.64427
20.81830	5.03202	-3.64427
20.82249	5.03202	-3.64427
20.82667	5.05399	-3.64427
20.83086	5.05399	-3.64427
20.83504	5.05399	-3.64427
20.83935	5.07596	-3.64427
20.84355	5.07596	-3.64427
20.84774	5.07596	-3.64427
20.85192	5.07596	-3.64427
20.85611	5.09793	-3.64427
20.86030	5.11991	-3.64427
20.86450	5.11991	-3.64427
20.86895	5.14188	-3.64427
20.87328	5.14188	-3.64427
20.87746	5.16385	-3.64427
20.88165	5.16385	-3.64427
20.88584	5.16385	-3.64427
20.89002	5.18582	-3.64427
20.89421	5.18582	-3.64427
20.89846	5.20780	-3.64427
20.90273	5.20780	-3.64427
20.90692	5.20780	-3.64427
20.91111	5.22977	-3.64427
20.91530	5.25174	-3.64427
20.91949	5.25174	-3.64427
20.92367	5.27371	-3.64427
20.92785	5.27371	-3.64427
20.93215	5.29569	-3.64427
20.93635	5.29569	-3.64427
20.94053	5.31766	-3.64427
20.94472	5.31766	-3.64427
20.94891	5.33963	-3.64427
20.95309	5.36161	-3.64427
20.95727	5.36161	-3.64427
20.96155	5.38358	-3.64427
20.96583	5.38358	-3.64427
20.97003	5.40555	-3.64427
20.97432	5.40555	-3.64427
20.97850	5.42752	-3.64427
20.98269	5.44950	-3.64427
20.98688	5.44950	-3.64427
20.99107	5.44950	-3.64427
20.99539	5.47147	-3.64427
20.99960	5.47147	-3.64427
21.00379	5.49344	-3.64427
21.00797	5.51541	-3.64427
21.01216	5.53739	-3.64427
21.01634	5.53739	-3.64427
21.02053	5.53739	-3.64427
21.02498	5.55936	-3.64427
21.02919	5.55936	-3.64427
21.03339	5.58133	-3.64427
21.03757	5.60330	-3.64427
21.04176	5.60330	-3.64427
21.04594	5.62528	-3.64427
21.05012	5.62528	-3.64427
21.05438	5.64725	-3.64427
21.05866	5.66922	-3.64427
21.06289	5.69119	-3.64427
21.06709	5.69119	-3.64427
21.07130	5.69119	-3.64427
21.07559	5.71317	-3.64427
21.07978	5.73514	-3.64427
21.08396	5.75711	-3.64427
21.08826	5.75711	-3.64427
21.09247	5.75711	-3.64427
21.09666	5.77909	-3.64427
21.10084	5.80106	-3.64427
21.10503	5.82303	-3.64427
21.10921	5.82303	-3.64427
21.11339	5.84500	-3.64427
21.11765	5.84500	-3.64427
21.12192	5.86698	-3.64427
21.12611	5.88895	-3.64427
21.13030	5.88895	-3.64427
21.13449	5.91092	-3.64427
21.13867	5.93289	-3.64427
21.14286	5.95487	-3.64427
21.14704	5.95487	-3.64427
21.15135	5.97684	-3.64427
21.15556	5.97684	-3.64427
21.15974	5.99881	-3.64427
21.16395	6.02078	-3.64427
21.16814	6.02078	-3.64427
21.17233	6.04276	-3.64427
21.17662	6.04276	-3.64427
21.18105	6.06473	-3.64427
21.18526	6.06473	-3.64427
21.18945	6.08670	-3.64427
21.19363	6.10868	-3.64427
21.19782	6.10868	-3.64427
21.20200	6.13065	-3.64427
21.20619	6.13065	-3.64427
21.21044	6.15262	-3.64427
21.21473	6.17459	-3.64427
21.21893	6.19657	-3.64427
21.22313	6.21854	-3.64427
21.22732	6.21854	-3.64427
21.23151	6.21854	-3.64427
21.23569	6.24051	-3.64427
21.23988	6.26248	-3.64427
21.24418	6.28446	-3.64427
21.24839	6.28446	-3.64427
21.25257	6.28446	-3.64427
21.25676	6.30643	-3.64427
21.26094	6.32840	-3.64427
21.26514	6.32840	-3.64427
21.26933	6.35037	-3.64427
21.27360	6.37235	-3.64427
21.27801	6.39432	-3.64427
21.28222	6.39432	-3.64427
21.28642	6.41629	-3.64427
21.29061	6.41629	-3.64427
21.29480	6.43827	-3.64427
21.29899	6.46024	-3.64427
21.30328	6.46024	-3.64427
21.30757	6.46024	-3.64427
21.31176	6.48221	-3.64427
21.31596	6.50418	-3.64427
21.32014	6.50418	-3.64427
21.32433	6.52616	-3.64427
21.32851	6.54813	-3.64427
21.33270	6.54813	-3.64427
21.33700	6.54813	-3.64427
21.34121	6.57010	-3.64427
21.34539	6.59207	-3.64427
21.34958	6.59207	-3.64427
21.35377	6.59207	-3.64427
21.35795	6.61405	-3.64427
21.36216	6.63602	-3.64427
21.36642	6.63602	-3.64427
21.37070	6.65799	-3.64427
21.37490	6.67996	-3.64427
21.37920	6.67996	-3.64427
21.38339	6.70194	-3.64427
21.38758	6.70194	-3.64427
21.39176	6.72391	-3.64427
21.39595	6.72391	-3.64427
21.40024	6.74588	-3.64427
21.40444	6.74588	-3.64427
21.40863	6.74588	-3.64427
21.41282	6.76786	-3.64427
21.41701	6.78983	-3.64427
21.42120	6.78983	-3.64427
21.42539	6.81180	-3.64427
21.42986	6.81180	-3.64427
21.43407	6.83377	-3.64427
21.43826	6.83377	-3.64427
21.44245	6.85575	-3.64427
21.44664	6.85575	-3.64427
21.45082	6.87772	-3.64427
21.45501	6.87772	-3.64427
21.45931	6.89969	-3.64427
21.46362	6.89969	-3.64427
21.46782	6.89969	-3.64427
21.47201	6.92166	-3.64427
21.47620	6.92166	-3.64427
21.48050	6.94364	-3.64427
21.48468	6.94364	-3.64427
21.48887	6.94364	-3.64427
21.49317	6.96561	-3.64427
21.49738	6.96561	-3.64427
21.50157	6.98758	-3.64427
21.50576	6.98758	-3.64427
21.50994	6.98758	-3.64427
21.51413	7.00955	-3.64427
21.51831	7.00955	-3.64427
21.52274	7.00955	-3.64427
21.52695	7.03153	-3.64427
21.53114	7.03153	-3.64427
21.53534	7.03153	-3.64427
21.53952	7.05350	-3.64427
21.54371	7.05350	-3.64427
21.54789	7.05350	-3.64427
21.55217	7.05350	-3.64427
21.55645	7.07547	-3.64427
21.56065	7.07547	-3.64427
21.56486	7.07547	-3.64427
21.56905	7.09744	-3.64427
21.57324	7.09744	-3.64427
21.57743	7.09744	-3.64427
21.58174	7.09744	-3.64427
21.58604	7.11942	-3.64427
21.59025	7.11942	-3.64427
21.59443	7.11942	-3.64427
21.59862	7.11942	-3.64427
21.60280	7.11942	-3.64427
21.60699	7.14139	-3.64427
21.61117	7.14139	-3.64427
21.61540	7.14139	-3.64427
21.61967	7.14139	-3.64427
21.62387	7.14139	-3.64427
21.62806	7.14139	-3.64427
21.63225	7.16336	-3.64427
21.63643	7.16336	-3.64427
21.64062	7.16336	-3.64427
21.64480	7.16336	-3.64427
21.64910	7.16336	-3.64427
21.65330	7.16336	-3.64427
21.65749	7.16336	-3.64427
21.66167	7.16336	-3.64427
21.66587	7.16336	-3.64427
21.67007	7.16336	-3.64427
21.67426	7.18534	-3.64427
21.67870	7.18534	-3.64427
21.68302	7.16336	-3.64427
21.68721	7.18534	-3.64427
21.69140	7.18534	-3.64427
21.69558	7.18534	-3.64427
21.69977	7.18534	-3.64427
21.70395	7.18534	-3.64427
21.70820	7.18534	-3.64427
21.71247	7.18534	-3.64427
21.71667	7.18534	-3.64427
21.72086	7.18534	-3.64427
21.72505	7.18534	-3.64427
21.72924	7.18534	-3.64427
21.73342	7.18534	-3.64427
21.73761	7.18534	-3.64427
21.74190	7.18534	-3.64427
21.74611	7.18534	-3.64427
21.75030	7.18534	-3.64427
21.75448	7.18534	-3.64427
21.75867	7.18534	-3.64427
21.76287	7.18534	-3.64427
21.76707	7.18534	-3.64427
21.77153	7.16336	-3.64427
21.77573	7.18534	-3.64427
21.77993	7.18534	-3.64427
21.78422	7.18534	-3.64427
21.78840	7.16336	-3.64427
21.79259	7.16336	-3.64427
21.79677	7.16336	-3.64427
21.80103	7.16336	-3.64427
21.80530	7.16336	-3.64427
21.80949	7.16336	-3.64427
21.81368	7.16336	-3.64427
21.81786	7.14139	-3.64427
21.82205	7.16336	-3.64427
21.82624	7.14139	-3.64427
21.83043	7.14139	-3.64427
21.83473	7.14139	-3.64427
21.83893	7.14139	-3.64427
21.84312	7.14139	-3.64427
21.84732	7.11942	-3.64427
21.85150	7.11942	-3.64427
21.85569	7.11942	-3.64427
21.85987	7.11942	-3.64427
21.86432	7.09744	-3.64427
21.86854	7.09744	-3.64427
21.87273	7.09744	-3.64427
21.87692	7.09744	-3.64427
21.88111	7.09744	-3.64427
21.88540	7.09744	-3.64427
21.88958	7.07547	-3.64427
21.89383	7.07547	-3.64427
21.89811	7.07547	-3.64427
21.90230	7.05350	-3.64427
21.90649	7.05350	-3.64427
21.91067	7.05350	-3.64427
21.91486	7.05350	-3.64427
21.91904	7.03153	-3.64427
21.92327	7.03153	-3.64427
21.92757	7.03153	-3.64427
21.93178	7.00955	-3.64427
21.93597	7.00955	-3.64427
21.94016	7.00955	-3.64427
21.94434	6.98758	-3.64427
21.94853	6.98758	-3.64427
21.95271	6.98758	-3.64427
21.95713	6.98758	-3.64427
21.96135	6.96561	-3.64427
21.96556	6.96561	-3.64427
21.96975	6.96561	-3.64427
21.97394	6.96561	-3.64427
21.97812	6.94364	-3.64427
21.98231	6.94364	-3.64427
21.98670	6.94364	-3.64427
21.99099	6.92166	-3.64427
21.99520	6.92166	-3.64427
21.99939	6.89969	-3.64427
22.00358	6.89969	-3.64427
22.00777	6.87772	-3.64427
22.01195	6.87772	-3.64427
22.01613	6.87772	-3.64427
22.02043	6.87772	-3.64427
22.02463	6.85575	-3.64427
22.02882	6.85575	-3.64427
22.03300	6.85575	-3.64427
22.03719	6.83377	-3.64427
22.04137	6.83377	-3.64427
22.04556	6.83377	-3.64427
22.04982	6.81180	-3.64427
22.05408	6.78983	-3.64427
22.05828	6.78983	-3.64427
22.06246	6.78983	-3.64427
22.06666	6.76786	-3.64427
22.07085	6.76786	-3.64427
22.07504	6.76786	-3.64427
22.07924	6.74588	-3.64427
22.08354	6.74588	-3.64427
22.08785	6.72391	-3.64427
22.09205	6.72391	-3.64427
22.09625	6.70194	-3.64427
22.10044	6.70194	-3.64427
22.10463	6.70194	-3.64427
22.10881	6.67996	-3.64427
22.11327	6.67996	-3.64427
22.11749	6.65799	-3.64427
22.12168	6.65799	-3.64427
22.12587	6.65799	-3.64427
22.13005	6.63602	-3.64427
22.13425	6.63602	-3.64427
22.13844	6.61405	-3.64427
22.14272	6.61405	-3.64427
22.14699	6.61405	-3.64427
22.15121	6.59207	-3.64427
22.15540	6.59207	-3.64427
22.15958	6.57010	-3.64427
22.16378	6.57010	-3.64427
22.16798	6.54813	-3.64427
22.17217	6.54813	-3.64427
22.17647	6.54813	-3.64427
22.18068	6.52616	-3.64427
22.18487	6.52616	-3.64427
22.18916	6.52616	-3.64427
22.19334	6.50418	-3.64427
22.19753	6.50418	-3.64427
22.20171	6.50418	-3.64427
22.20615	6.48221	-3.64427
22.21035	6.48221	-3.64427
22.21454	6.46024	-3.64427
22.21873	6.46024	-3.64427
22.22292	6.43827	-3.64427
22.22710	6.43827	-3.64427
22.23130	6.43827	-3.64427
22.23556	6.41629	-3.64427
22.23985	6.41629	-3.64427
22.24404	6.41629	-3.64427
22.24823	6.39432	-3.64427
22.25242	6.39432	-3.64427
22.25660	6.39432	-3.64427
22.26079	6.37235	-3.64427
22.26499	6.37235	-3.64427
22.26931	6.35037	-3.64427
22.27352	6.35037	-3.64427
22.27771	6.35037	-3.64427
22.28190	6.32840	-3.64427
22.28609	6.32840	-3.64427
22.29038	6.32840	-3.64427
22.29457	6.32840	-3.64427
22.29902	6.30643	-3.64427
22.30325	6.30643	-3.64427
22.30743	6.28446	-3.64427
22.31162	6.28446	-3.64427
22.31582	6.28446	-3.64427
22.32001	6.28446	-3.64427
22.32419	6.26248	-3.64427
22.32846	6.26248	-3.64427
22.33274	6.26248	-3.64427
22.33694	6.24051	-3.64427
22.34112	6.24051	-3.64427
22.34531	6.24051	-3.64427
22.34950	6.21854	-3.64427
22.35369	6.21854	-3.64427
22.35787	6.21854	-3.64427
22.36217	6.21854	-3.64427
22.36640	6.19657	-3.64427
22.37059	6.19657	-3.64427
22.37478	6.19657	-3.64427
22.37896	6.17459	-3.64427
22.38316	6.17459	-3.64427
22.38733	6.17459	-3.64427
22.39189	6.17459	-3.64427
22.39610	6.15262	-3.64427
22.40029	6.15262	-3.64427
22.40448	6.15262	-3.64427
22.40866	6.13065	-3.64427
22.41285	6.13065	-3.64427
22.41703	6.13065	-3.64427
22.42129	6.13065	-3.64427
22.42556	6.13065	-3.64427
22.42976	6.10868	-3.64427
22.43395	6.10868	-3.64427
22.43814	6.10868	-3.64427
22.44233	6.10868	-3.64427
22.44651	6.10868	-3.64427
22.45069	6.08670	-3.64427
22.45500	6.08670	-3.64427
22.45922	6.08670	-3.64427
22.46343	6.08670	-3.64427
22.46762	6.08670	-3.64427
22.47181	6.08670	-3.64427
22.47600	6.08670	-3.64427
22.48018	6.06473	-3.64427
22.48465	6.06473	-3.64427
22.48886	6.06473	-3.64427
22.49315	6.06473	-3.64427
22.49734	6.04276	-3.64427
22.50153	6.06473	-3.64427
22.50571	6.04276	-3.64427
22.50990	6.04276	-3.64427
22.51416	6.04276	-3.64427
22.51843	6.04276	-3.64427
22.52263	6.04276	-3.64427
22.52682	6.04276	-3.64427
22.53101	6.04276	-3.64427
22.53521	6.02078	-3.64427
22.53940	6.02078	-3.64427
22.54358	6.02078	-3.64427
22.54788	6.02078	-3.64427
22.55209	6.02078	-3.64427
22.55627	6.02078	-3.64427
22.56046	6.02078	-3.64427
22.56466	6.02078	-3.64427
22.56885	6.02078	-3.64427
22.57304	6.02078	-3.64427
22.57748	6.02078	-3.64427
22.58170	5.99881	-3.64427
22.58589	5.99881	-3.64427
22.59007	5.99881	-3.64427
22.59436	5.99881	-3.64427
22.59856	5.99881	-3.64427
22.60274	5.99881	-3.64427
22.60700	5.99881	-3.64427
22.61127	5.99881	-3.64427
22.61547	5.99881	-3.64427
22.61966	5.99881	-3.64427
22.62384	5.99881	-3.64427
22.62803	5.99881	-3.64427
22.63221	5.99881	-3.64427
22.63639	5.99881	-3.64427
22.64069	5.99881	-3.64427
22.64489	5.99881	-3.64427
22.64908	5.99881	-3.64427
22.65327	5.99881	-3.64427
22.65745	5.99881	-3.64427
22.66164	5.99881	-3.64427
22.66584	5.99881	-3.64427
22.67032	5.99881	-3.64427
22.67453	5.99881	-3.64427
22.67873	5.99881	-3.64427
22.68292	5.99881	-3.64427
22.68711	5.99881	-3.64427
22.69130	5.99881	-3.64427
22.69559	5.99881	-3.64427
22.69985	5.99881	-3.64427
22.70411	5.99881	-3.64427
22.70831	5.99881	-3.64427
22.71249	5.99881	-3.64427
22.71668	5.99881	-3.64427
22.72087	6.02078	-3.64427
22.72505	5.99881	-3.64427
22.72924	6.02078	-3.64427
22.73353	6.02078	-3.64427
22.73774	6.02078	-3.64427
22.74193	6.02078	-3.64427
22.74611	6.02078	-3.64427
22.75030	6.02078	-3.64427
22.75448	6.02078	-3.64427
22.75866	6.02078	-3.64427
22.76292	6.02078	-3.64427
22.76723	6.02078	-3.64427
22.77143	6.04276	-3.64427
22.77562	6.04276	-3.64427
22.77980	6.04276	-3.64427
22.78399	6.04276	-3.64427
22.78817	6.04276	-3.64427
22.79236	6.04276	-3.64427
22.79676	6.04276	-3.64427
22.80096	6.06473	-3.64427
22.80514	6.04276	-3.64427
22.80933	6.06473	-3.64427
22.81351	6.06473	-3.64427
22.81770	6.06473	-3.64427
22.82188	6.06473	-3.64427
22.82629	6.08670	-3.64427
22.83050	6.08670	-3.64427
22.83468	6.08670	-3.64427
22.83887	6.08670	-3.64427
22.84306	6.08670	-3.64427
22.84725	6.08670	-3.64427
22.85144	6.08670	-3.64427
22.85570	6.10868	-3.64427
22.85998	6.10868	-3.64427
22.86420	6.10868	-3.64427
22.86840	6.10868	-3.64427
22.87259	6.10868	-3.64427
22.87679	6.13065	-3.64427
22.88098	6.13065	-3.64427
22.88516	6.13065	-3.64427
22.88946	6.13065	-3.64427
22.89367	6.13065	-3.64427
22.89796	6.13065	-3.64427
22.90215	6.13065	-3.64427
22.90633	6.15262	-3.64427
22.91051	6.15262	-3.64427
22.91470	6.15262	-3.64427
22.91895	6.15262	-3.64427
22.92325	6.17459	-3.64427
22.92745	6.17459	-3.64427
22.93163	6.17459	-3.64427
22.93582	6.17459	-3.64427
22.94001	6.17459	-3.64427
22.94419	6.17459	-3.64427
22.94837	6.17459	-3.64427
22.95267	6.19657	-3.64427
22.95687	6.19657	-3.64427
22.96106	6.19657	-3.64427
22.96527	6.19657	-3.64427
22.96947	6.19657	-3.64427
22.97365	6.21854	-3.64427
22.97784	6.21854	-3.64427
22.98228	6.21854	-3.64427
22.98650	6.21854	-3.64427
22.99069	6.24051	-3.64427
22.99487	6.24051	-3.64427
22.99917	6.24051	-3.64427
23.00333	6.24051	-3.64427
23.00751	6.26248	-3.64427
23.01177	6.26248	-3.64427
23.01604	6.26248	-3.64427
23.02026	6.26248	-3.64427
23.02445	6.26248	-3.64427
23.02865	6.26248	-3.64427
23.03284	6.28446	-3.64427
23.03703	6.28446	-3.64427
23.04122	6.28446	-3.64427
23.04552	6.30643	-3.64427
23.04974	6.30643	-3.64427
23.05397	6.30643	-3.64427
23.05817	6.30643	-3.64427
23.06235	6.30643	-3.64427
23.06656	6.30643	-3.64427
23.07076	6.32840	-3.64427
23.07527	6.32840	-3.64427
23.07949	6.32840	-3.64427
23.08369	6.32840	-3.64427
23.08788	6.32840	-3.64427
23.09207	6.32840	-3.64427
23.09626	6.35037	-3.64427
23.10055	6.35037	-3.64427
23.10481	6.35037	-3.64427
23.10909	6.37235	-3.64427
23.11329	6.37235	-3.64427
23.11748	6.37235	-3.64427
23.12167	6.37235	-3.64427
23.12585	6.37235	-3.64427
23.13003	6.37235	-3.64427
23.13422	6.39432	-3.64427
23.13852	6.39432	-3.64427
23.14273	6.41629	-3.64427
23.14692	6.41629	-3.64427
23.15111	6.41629	-3.64427
23.15530	6.41629	-3.64427
23.15949	6.41629	-3.64427
23.16367	6.41629	-3.64427
23.16813	6.41629	-3.64427
23.17235	6.43827	-3.64427
23.17654	6.43827	-3.64427
23.18072	6.43827	-3.64427
23.18491	6.43827	-3.64427
23.18910	6.46024	-3.64427
23.19328	6.46024	-3.64427
23.19754	6.46024	-3.64427
23.20192	6.48221	-3.64427
23.20613	6.48221	-3.64427
23.21032	6.48221	-3.64427
23.21450	6.48221	-3.64427
23.21869	6.48221	-3.64427
23.22287	6.48221	-3.64427
23.22706	6.48221	-3.64427
23.23139	6.48221	-3.64427
23.23560	6.48221	-3.64427
23.23979	6.48221	-3.64427
23.24397	6.50418	-3.64427
23.24816	6.50418	-3.64427
23.25235	6.50418	-3.64427
23.25653	6.50418	-3.64427
23.26078	6.50418	-3.64427
23.26506	6.50418	-3.64427
23.26926	6.52616	-3.64427
23.27346	6.52616	-3.64427
23.27765	6.52616	-3.64427
23.28184	6.52616	-3.64427
23.28604	6.52616	-3.64427
23.29022	6.52616	-3.64427
23.29453	6.54813	-3.64427
23.29874	6.54813	-3.64427
23.30304	6.54813	-3.64427
23.30723	6.54813	-3.64427
23.31142	6.54813	-3.64427
23.31561	6.54813	-3.64427
23.31979	6.54813	-3.64427
23.32422	6.54813	-3.64427
23.32843	6.54813	-3.64427
23.33262	6.57010	-3.64427
23.33681	6.57010	-3.64427
23.34099	6.57010	-3.64427
23.34518	6.57010	-3.64427
23.34936	6.57010	-3.64427
23.35361	6.57010	-3.64427
23.35789	6.59207	-3.64427
23.36209	6.59207	-3.64427
23.36631	6.57010	-3.64427
23.37050	6.57010	-3.64427
23.37469	6.59207	-3.64427
23.37887	6.59207	-3.64427
23.38306	6.59207	-3.64427
23.38738	6.59207	-3.64427
23.39158	6.59207	-3.64427
23.39577	6.59207	-3.64427
23.39996	6.59207	-3.64427
23.40425	6.59207	-3.64427
23.40843	6.59207	-3.64427
23.41262	6.59207	-3.64427
23.41687	6.59207	-3.64427
23.42114	6.59207	-3.64427
23.42534	6.61405	-3.64427
23.42953	6.61405	-3.64427
23.43371	6.59207	-3.64427
23.43790	6.61405	-3.64427
23.44208	6.59207	-3.64427
23.44627	6.59207	-3.64427
23.45057	6.61405	-3.64427
23.45477	6.61405	-3.64427
23.45895	6.61405	-3.64427
23.46314	6.61405	-3.64427
23.46735	6.61405	-3.64427
23.47154	6.61405	-3.64427
23.47574	6.61405	-3.64427
23.48017	6.61405	-3.64427
23.48438	6.61405	-3.64427
23.48857	6.61405	-3.64427
23.49276	6.61405	-3.64427
23.49694	6.61405	-3.64427
23.50113	6.61405	-3.64427
23.50542	6.61405	-3.64427
23.50968	6.61405	-3.64427
23.51394	6.61405	-3.64427
23.51813	6.61405	-3.64427
23.52232	6.61405	-3.64427
23.52650	6.61405	-3.64427
23.53069	6.61405	-3.64427
23.53487	6.61405	-3.64427
23.53906	6.61405	-3.64427
23.54337	6.61405	-3.64427
23.54758	6.61405	-3.64427
23.55177	6.61405	-3.64427
23.55595	6.61405	-3.64427
23.56014	6.61405	-3.64427
23.56432	6.61405	-3.64427
23.56852	6.61405	-3.64427
23.57297	6.61405	-3.64427
23.57719	6.61405	-3.64427
23.58139	6.61405	-3.64427
23.58557	6.61405	-3.64427
23.58976	6.61405	-3.64427
23.59394	6.61405	-3.64427
23.59813	6.61405	-3.64427
23.60239	6.61405	-3.64427
23.60678	6.61405	-3.64427
23.61097	6.61405	-3.64427
23.61516	6.61405	-3.64427
23.61933	6.59207	-3.64427
23.62351	6.59207	-3.64427
23.62770	6.59207	-3.64427
23.63188	6.59207	-3.64427
23.63618	6.59207	-3.64427
23.64040	6.59207	-3.64427
23.64459	6.59207	-3.64427
23.64877	6.59207	-3.64427
23.65296	6.59207	-3.64427
23.65714	6.59207	-3.64427
23.66132	6.59207	-3.64427
23.66560	6.59207	-3.64427
23.66988	6.57010	-3.64427
23.67408	6.59207	-3.64427
23.67827	6.59207	-3.64427
23.68246	6.57010	-3.64427
23.68664	6.57010	-3.64427
23.69083	6.57010	-3.64427
23.69501	6.57010	-3.64427
23.69933	6.57010	-3.64427
23.70353	6.57010	-3.64427
23.70782	6.57010	-3.64427
23.71201	6.57010	-3.64427
23.71620	6.57010	-3.64427
23.72039	6.54813	-3.64427
23.72457	6.54813	-3.64427
23.72904	6.54813	-3.64427
23.73325	6.54813	-3.64427
23.73744	6.54813	-3.64427
23.74164	6.54813	-3.64427
23.74582	6.54813	-3.64427
23.75001	6.54813	-3.64427
23.75419	6.54813	-3.64427
23.75847	6.52616	-3.64427
23.76275	6.52616	-3.64427
23.76697	6.54813	-3.64427
23.77117	6.52616	-3.64427
23.77534	6.52616	-3.64427
23.77953	6.52616	-3.64427
23.78372	6.52616	-3.64427
23.78790	6.52616	-3.64427
23.79220	6.52616	-3.64427
23.79641	6.52616	-3.64427
23.80060	6.50418	-3.64427
23.80478	6.50418	-3.64427
23.80907	6.50418	-3.64427
23.81326	6.50418	-3.64427
23.81744	6.50418	-3.64427
23.82169	6.50418	-3.64427
23.82596	6.50418	-3.64427
23.83017	6.48221	-3.64427
23.83435	6.50418	-3.64427
23.83854	6.48221	-3.64427
23.84273	6.48221	-3.64427
23.84691	6.48221	-3.64427
23.85110	6.48221	-3.64427
23.85541	6.48221	-3.64427
23.85961	6.48221	-3.64427
23.86380	6.48221	-3.64427
23.86802	6.46024	-3.64427
23.87221	6.46024	-3.64427
23.87640	6.48221	-3.64427
23.88058	6.46024	-3.64427
23.88503	6.46024	-3.64427
23.88924	6.46024	-3.64427
23.89342	6.46024	-3.64427
23.89761	6.46024	-3.64427
23.90180	6.46024	-3.64427
23.90598	6.43827	-3.64427
23.91026	6.43827	-3.64427
23.91452	6.43827	-3.64427
23.91878	6.43827	-3.64427
23.92298	6.43827	-3.64427
23.92717	6.43827	-3.64427
23.93133	6.43827	-3.64427
23.93551	6.43827	-3.64427
23.93970	6.43827	-3.64427
23.94388	6.43827	-3.64427
23.94818	6.43827	-3.64427
23.95238	6.41629	-3.64427
23.95657	6.41629	-3.64427
23.96075	6.41629	-3.64427
23.96494	6.41629	-3.64427
23.96914	6.41629	-3.64427
23.97334	6.41629	-3.64427
23.97780	6.41629	-3.64427
23.98202	6.41629	-3.64427
23.98621	6.41629	-3.64427
23.99039	6.41629	-3.64427
23.99458	6.41629	-3.64427
23.99876	6.41629	-3.64427
24.00294	6.41629	-3.64427
24.00720	6.39432	-3.64427
24.01159	6.39432	-3.64427
24.01579	6.41629	-3.64427
24.01998	6.39432	-3.64427
24.02417	6.39432	-3.64427
24.02836	6.39432	-3.64427
24.03254	6.39432	-3.64427
24.03673	6.37235	-3.64427
24.04103	6.39432	-3.64427
24.04526	6.39432	-3.64427
24.04946	6.39432	-3.64427
24.05364	6.39432	-3.64427
24.05783	6.39432	-3.64427
24.06201	6.37235	-3.64427
24.06621	6.39432	-3.64427
24.07049	6.37235	-3.64427
24.07477	6.37235	-3.64427
24.07897	6.37235	-3.64427
24.08316	6.37235	-3.64427
24.08733	6.37235	-3.64427
24.09152	6.37235	-3.64427
24.09570	6.39432	-3.64427
24.09989	6.37235	-3.64427
24.10419	6.37235	-3.64427
24.10839	6.39432	-3.64427
24.11269	6.37235	-3.64427
24.11687	6.37235	-3.64427
24.12106	6.39432	-3.64427
24.12524	6.39432	-3.64427
24.12942	6.37235	-3.64427
24.13385	6.37235	-3.64427
24.13805	6.37235	-3.64427
24.14224	6.37235	-3.64427
24.14643	6.39432	-3.64427
24.15062	6.37235	-3.64427
24.15480	6.39432	-3.64427
24.15899	6.39432	-3.64427
24.16327	6.37235	-3.64427
24.16757	6.37235	-3.64427
24.17178	6.39432	-3.64427
24.17597	6.37235	-3.64427
24.18016	6.37235	-3.64427
24.18434	6.37235	-3.64427
24.18853	6.37235	-3.64427
24.19272	6.37235	-3.64427
24.19703	6.39432	-3.64427
24.20123	6.37235	-3.64427
24.20542	6.37235	-3.64427
24.20961	6.37235	-3.64427
24.21390	6.37235	-3.64427
24.21809	6.37235	-3.64427
24.22227	6.37235	-3.64427
24.22652	6.39432	-3.64427
24.23078	6.37235	-3.64427
24.23498	6.37235	-3.64427
24.23916	6.37235	-3.64427
24.24334	6.37235	-3.64427
24.24752	6.37235	-3.64427
24.25171	6.37235	-3.64427
24.25589	6.37235	-3.64427
24.26019	6.37235	-3.64427
24.26439	6.37235	-3.64427
24.26860	6.37235	-3.64427
24.27280	6.37235	-3.64427
24.27699	6.39432	-3.64427
24.28118	6.37235	-3.64427
24.28537	6.37235	-3.64427
24.28982	6.39432	-3.64427
24.29404	6.39432	-3.64427
24.29823	6.37235	-3.64427
24.30242	6.37235	-3.64427
24.30661	6.37235	-3.64427
24.31079	6.37235	-3.64427
24.31508	6.37235	-3.64427
24.31935	6.37235	-3.64427
24.32362	6.37235	-3.64427
24.32782	6.37235	-3.64427
24.33201	6.37235	-3.64427
24.33620	6.37235	-3.64427
24.34039	6.37235	-3.64427
24.34458	6.37235	-3.64427
24.34876	6.37235	-3.64427
24.35307	6.35037	-3.64427
24.35728	6.37235	-3.64427
24.36147	6.35037	-3.64427
24.36571	6.37235	-3.64427
24.36990	6.37235	-3.64427
24.37410	6.35037	-3.64427
24.37829	6.35037	-3.64427
24.38273	6.35037	-3.64427
24.38694	6.35037	-3.64427
24.39112	6.35037	-3.64427
24.39532	6.32840	-3.64427
24.39950	6.32840	-3.64427
24.40369	6.32840	-3.64427
24.40787	6.35037	-3.64427
24.41213	6.32840	-3.64427
24.41652	6.32840	-3.64427
24.42071	6.32840	-3.64427
24.42490	6.32840	-3.64427
24.42908	6.32840	-3.64427
24.43327	6.32840	-3.64427
24.43745	6.30643	-3.64427
24.44163	6.30643	-3.64427
24.44593	6.30643	-3.64427
24.45014	6.30643	-3.64427
24.45432	6.30643	-3.64427
24.45851	6.30643	-3.64427
24.46271	6.30643	-3.64427
24.46692	6.28446	-3.64427
24.47111	6.30643	-3.64427
24.47538	6.30643	-3.64427
24.47965	6.28446	-3.64427
24.48384	6.28446	-3.64427
24.48803	6.28446	-3.64427
24.49221	6.26248	-3.64427
24.49640	6.26248	-3.64427
24.50058	6.26248	-3.64427
24.50476	6.26248	-3.64427
24.50906	6.26248	-3.64427
24.51327	6.26248	-3.64427
24.51756	6.24051	-3.64427
24.52175	6.24051	-3.64427
24.52593	6.24051	-3.64427
24.53012	6.24051	-3.64427
24.53430	6.24051	-3.64427
24.53872	6.24051	-3.64427
24.54293	6.21854	-3.64427
24.54713	6.21854	-3.64427
24.55132	6.21854	-3.64427
24.55551	6.21854	-3.64427
24.55969	6.21854	-3.64427
24.56387	6.19657	-3.64427
24.56823	6.19657	-3.64427
24.57253	6.19657	-3.64427
24.57673	6.19657	-3.64427
24.58091	6.19657	-3.64427
24.58510	6.19657	-3.64427
24.58929	6.19657	-3.64427
24.59347	6.19657	-3.64427
24.59766	6.17459	-3.64427
24.60195	6.17459	-3.64427
24.60616	6.17459	-3.64427
24.61034	6.17459	-3.64427
24.61453	6.17459	-3.64427
24.61882	6.17459	-3.64427
24.62300	6.15262	-3.64427
24.62720	6.15262	-3.64427
24.63147	6.15262	-3.64427
24.63573	6.15262	-3.64427
24.63992	6.15262	-3.64427
24.64411	6.15262	-3.64427
24.64831	6.15262	-3.64427
24.65250	6.15262	-3.64427
24.65668	6.15262	-3.64427
24.66086	6.15262	-3.64427
24.66517	6.13065	-3.64427
24.66939	6.15262	-3.64427
24.67358	6.13065	-3.64427
24.67777	6.13065	-3.64427
24.68196	6.13065	-3.64427
24.68615	6.13065	-3.64427
24.69033	6.13065	-3.64427
24.69475	6.10868	-3.64427
24.69897	6.10868	-3.64427
24.70317	6.10868	-3.64427
24.70733	6.10868	-3.64427
24.71152	6.10868	-3.64427
24.71571	6.10868	-3.64427
24.72000	6.10868	-3.64427
24.72425	6.08670	-3.64427
24.72852	6.08670	-3.64427
24.73272	6.08670	-3.64427
24.73691	6.08670	-3.64427
24.74109	6.08670	-3.64427
24.74528	6.08670	-3.64427
24.74946	6.08670	-3.64427
24.75365	6.06473	-3.64427
24.75795	6.06473	-3.64427
24.76216	6.06473	-3.64427
24.76637	6.06473	-3.64427
24.77057	6.06473	-3.64427
24.77476	6.06473	-3.64427
24.77895	6.06473	-3.64427
24.78313	6.04276	-3.64427
24.78760	6.04276	-3.64427
24.79181	6.04276	-3.64427
24.79600	6.04276	-3.64427
24.80019	6.04276	-3.64427
24.80438	6.04276	-3.64427
24.80856	6.02078	-3.64427
24.81274	6.02078	-3.64427
24.81700	6.02078	-3.64427
24.82138	6.02078	-3.64427
24.82557	6.02078	-3.64427
24.82976	6.02078	-3.64427
24.83395	5.99881	-3.64427
24.83814	5.99881	-3.64427
24.84232	5.99881	-3.64427
24.84651	5.99881	-3.64427
24.85081	5.99881	-3.64427
24.85500	5.99881	-3.64427
24.85918	5.97684	-3.64427
24.86332	5.97684	-3.64427
24.86751	5.97684	-3.64427
24.87169	5.97684	-3.64427
24.87586	5.97684	-3.64427
24.88012	5.97684	-3.64427
24.88437	5.97684	-3.64427
24.88855	5.95487	-3.64427
24.89272	5.95487	-3.64427
24.89689	5.95487	-3.64427
24.90107	5.95487	-3.64427
24.90524	5.95487	-3.64427
24.90940	5.93289	-3.64427
24.91369	5.93289	-3.64427
24.91788	5.93289	-3.64427
24.92214	5.93289	-3.64427
24.92631	5.93289	-3.64427
24.93048	5.93289	-3.64427
24.93465	5.93289	-3.64427
24.93882	5.91092	-3.64427
24.94318	5.91092	-3.64427
24.94733	5.91092	-3.64427
24.95151	5.88895	-3.64427
24.95569	5.91092	-3.64427
24.95988	5.88895	-3.64427
24.96406	5.88895	-3.64427
24.96827	5.88895	-3.64427
24.97255	5.88895	-3.64427
24.97683	5.88895	-3.64427
24.98104	5.88895	-3.64427
24.98523	5.86698	-3.64427
24.98941	5.86698	-3.64427
24.99359	5.86698	-3.64427
24.99778	5.86698	-3.64427
25.00196	5.86698	-3.64427
25.00626	5.84500	-3.64427
25.01047	5.84500	-3.64427
25.01466	5.84500	-3.64427
25.01884	5.84500	-3.64427
25.02313	5.84500	-3.64427
25.02732	5.84500	-3.64427
25.03150	5.82303	-3.64427
25.03576	5.82303	-3.64427
25.04004	5.82303	-3.64427
25.04423	5.82303	-3.64427
25.04842	5.82303	-3.64427
25.05262	5.80106	-3.64427
25.05680	5.80106	-3.64427
25.06099	5.80106	-3.64427
25.06517	5.80106	-3.64427
25.06949	5.77909	-3.64427
25.07370	5.77909	-3.64427
25.07790	5.77909	-3.64427
25.08209	5.77909	-3.64427
25.08628	5.75711	-3.64427
25.09047	5.75711	-3.64427
25.09466	5.75711	-3.64427
25.09910	5.75711	-3.64427
25.10332	5.75711	-3.64427
25.10751	5.75711	-3.64427
25.11169	5.73514	-3.64427
25.11588	5.73514	-3.64427
25.12006	5.73514	-3.64427
25.12435	5.71317	-3.64427
25.12860	5.71317	-3.64427
25.13288	5.71317	-3.64427
25.13707	5.71317	-3.64427
25.14126	5.71317	-3.64427
25.14545	5.69119	-3.64427
25.14964	5.69119	-3.64427
25.15383	5.69119	-3.64427
25.15801	5.69119	-3.64427
25.16231	5.66922	-3.64427
25.16651	5.66922	-3.64427
25.17072	5.66922	-3.64427
25.17491	5.64725	-3.64427
25.17911	5.64725	-3.64427
25.18331	5.64725	-3.64427
25.18750	5.64725	-3.64427
25.19176	5.62528	-3.64427
25.19603	5.62528	-3.64427
25.20022	5.60330	-3.64427
25.20441	5.62528	-3.64427
25.20860	5.62528	-3.64427
25.21278	5.60330	-3.64427
25.21697	5.60330	-3.64427
25.22115	5.60330	-3.64427
25.22555	5.58133	-3.64427
25.22976	5.58133	-3.64427
25.23394	5.58133	-3.64427
25.23813	5.58133	-3.64427
25.24231	5.55936	-3.64427
25.24650	5.55936	-3.64427
25.25068	5.55936	-3.64427
25.25510	5.55936	-3.64427
25.25931	5.55936	-3.64427
25.26350	5.53739	-3.64427
25.26771	5.53739	-3.64427
25.27190	5.51541	-3.64427
25.27609	5.51541	-3.64427
25.28028	5.51541	-3.64427
25.28458	5.51541	-3.64427
25.28886	5.51541	-3.64427
25.29306	5.49344	-3.64427
25.29725	5.49344	-3.64427
25.30144	5.49344	-3.64427
25.30563	5.47147	-3.64427
25.30981	5.47147	-3.64427
25.31400	5.47147	-3.64427
25.31829	5.47147	-3.64427
25.32250	5.44950	-3.64427
25.32680	5.44950	-3.64427
25.33098	5.44950	-3.64427
25.33517	5.42752	-3.64427
25.33933	5.42752	-3.64427
25.34351	5.42752	-3.64427
25.34777	5.42752	-3.64427
25.35203	5.42752	-3.64427
25.35622	5.40555	-3.64427
25.36041	5.40555	-3.64427
25.36459	5.38358	-3.64427
25.36880	5.38358	-3.64427
25.37299	5.38358	-3.64427
25.37718	5.38358	-3.64427
25.38148	5.38358	-3.64427
25.38568	5.36161	-3.64427
25.38987	5.36161	-3.64427
25.39405	5.36161	-3.64427
25.39824	5.36161	-3.64427
25.40242	5.33963	-3.64427
25.40661	5.36161	-3.64427
25.41102	5.33963	-3.64427
25.41524	5.33963	-3.64427
25.41943	5.31766	-3.64427
25.42361	5.31766	-3.64427
25.42790	5.31766	-3.64427
25.43209	5.31766	-3.64427
25.43627	5.31766	-3.64427
25.44052	5.31766	-3.64427
25.44479	5.31766	-3.64427
25.44898	5.29569	-3.64427
25.45317	5.29569	-3.64427
25.45736	5.29569	-3.64427
25.46155	5.27371	-3.64427
25.46573	5.27371	-3.64427
25.46993	5.27371	-3.64427
25.47424	5.27371	-3.64427
25.47846	5.27371	-3.64427
25.48265	5.27371	-3.64427
25.48683	5.27371	-3.64427
25.49103	5.27371	-3.64427
25.49522	5.27371	-3.64427
25.49941	5.27371	-3.64427
25.50384	5.25174	-3.64427
25.50804	5.25174	-3.64427
25.51223	5.25174	-3.64427
25.51642	5.25174	-3.64427
25.52061	5.25174	-3.64427
25.52479	5.25174	-3.64427
25.52908	5.25174	-3.64427
25.53334	5.22977	-3.64427
25.53762	5.22977	-3.64427
25.54181	5.22977	-3.64427
25.54601	5.22977	-3.64427
25.55019	5.22977	-3.64427
25.55438	5.22977	-3.64427
25.55857	5.22977	-3.64427
25.56276	5.22977	-3.64427
25.56706	5.20780	-3.64427
25.57128	5.22977	-3.64427
25.57546	5.22977	-3.64427
25.57965	5.22977	-3.64427
25.58384	5.20780	-3.64427
25.58802	5.22977	-3.64427
25.59221	5.22977	-3.64427
25.59664	5.20780	-3.64427
25.60085	5.20780	-3.64427
25.60504	5.20780	-3.64427
25.60923	5.20780	-3.64427
25.61341	5.20780	-3.64427
25.61760	5.22977	-3.64427
25.62178	5.20780	-3.64427
25.62604	5.22977	-3.64427
25.63043	5.20780	-3.64427
25.63463	5.20780	-3.64427
25.63881	5.20780	-3.64427
25.64300	5.20780	-3.64427
25.64720	5.20780	-3.64427
25.65138	5.20780	-3.64427
25.65557	5.22977	-3.64427
25.65987	5.22977	-3.64427
25.66408	5.20780	-3.64427
25.66827	5.22977	-3.64427
25.67245	5.20780	-3.64427
25.67664	5.20780	-3.64427
25.68082	5.22977	-3.64427
25.68501	5.22977	-3.64427
25.68926	5.20780	-3.64427
25.69352	5.22977	-3.64427
25.69771	5.22977	-3.64427
25.70190	5.22977	-3.64427
25.70609	5.20780	-3.64427
25.71027	5.20780	-3.64427
25.71445	5.20780	-3.64427
25.71864	5.22977	-3.64427
25.72293	5.22977	-3.64427
25.72714	5.20780	-3.64427
25.73143	5.20780	-3.64427
25.73562	5.22977	-3.64427
25.73980	5.22977	-3.64427
25.74399	5.22977	-3.64427
25.74817	5.22977	-3.64427
25.75260	5.22977	-3.64427
25.75681	5.22977	-3.64427
25.76100	5.22977	-3.64427
25.76519	5.22977	-3.64427
25.76938	5.22977	-3.64427
25.77356	5.22977	-3.64427
25.77775	5.22977	-3.64427
25.78201	5.22977	-3.64427
25.78630	5.22977	-3.64427
25.79051	5.22977	-3.64427
25.79470	5.25174	-3.64427
25.79889	5.25174	-3.64427
25.80308	5.25174	-3.64427
25.80727	5.25174	-3.64427
25.81146	5.25174	-3.64427
25.81576	5.25174	-3.64427
25.81996	5.25174	-3.64427
25.82415	5.25174	-3.64427
25.82834	5.25174	-3.64427
25.83263	5.25174	-3.64427
25.83681	5.27371	-3.64427
25.84100	5.27371	-3.64427
25.84525	5.27371	-3.64427
25.84952	5.27371	-3.64427
25.85371	5.27371	-3.64427
25.85790	5.27371	-3.64427
25.86209	5.27371	-3.64427
25.86627	5.27371	-3.64427
25.87046	5.27371	-3.64427
25.87464	5.27371	-3.64427
25.87894	5.29569	-3.64427
25.88314	5.27371	-3.64427
25.88733	5.27371	-3.64427
25.89151	5.29569	-3.64427
25.89570	5.29569	-3.64427
25.89989	5.29569	-3.64427
25.90407	5.29569	-3.64427
25.90849	5.29569	-3.64427
25.91271	5.29569	-3.64427
25.91690	5.29569	-3.64427
25.92108	5.29569	-3.64427
25.92527	5.29569	-3.64427
25.92945	5.29569	-3.64427
25.93374	5.31766	-3.64427
25.93799	5.29569	-3.64427
25.94225	5.29569	-3.64427
25.94645	5.29569	-3.64427
25.95064	5.31766	-3.64427
25.95482	5.29569	-3.64427
25.95901	5.29569	-3.64427
25.96320	5.29569	-3.64427
25.96739	5.29569	-3.64427
25.97169	5.29569	-3.64427
25.97589	5.31766	-3.64427
25.98008	5.31766	-3.64427
25.98426	5.31766	-3.64427
25.98845	5.29569	-3.64427
25.99263	5.29569	-3.64427
25.99682	5.31766	-3.64427
26.00107	5.31766	-3.64427
26.00533	5.29569	-3.64427
26.00953	5.31766	-3.64427
26.01371	5.31766	-3.64427
26.01790	5.31766	-3.64427
26.02209	5.31766	-3.64427
26.02627	5.31766	-3.64427
26.03045	5.31766	-3.64427
26.03486	5.31766	-3.64427
26.03906	5.31766	-3.64427
26.04326	5.31766	-3.64427
26.04744	5.31766	-3.64427
26.05163	5.31766	-3.64427
26.05582	5.31766	-3.64427
26.06000	5.31766	-3.64427
26.06443	5.31766	-3.64427
26.06864	5.31766	-3.64427
26.07283	5.31766	-3.64427
26.07701	5.31766	-3.64427
26.08123	5.31766	-3.64427
26.08542	5.31766	-3.64427
26.08962	5.31766	-3.64427
26.09390	5.31766	-3.64427
26.09820	5.31766	-3.64427
26.10242	5.31766	-3.64427
26.10663	5.31766	-3.64427
26.11084	5.31766	-3.64427
26.11505	5.33963	-3.64427
26.11927	5.31766	-3.64427
26.12516	5.31766	-3.64427
26.12947	5.33963	-3.64427
26.13368	5.33963	-3.64427
26.13803	5.33963	-3.64427
26.14227	5.33963	-3.64427
26.14651	5.33963	-3.64427
26.15074	5.33963	-3.64427
26.15549	5.33963	-3.64427
26.15980	5.33963	-3.64427
26.16403	5.36161	-3.64427
26.16823	5.36161	-3.64427
26.17243	5.36161	-3.64427
26.17662	5.36161	-3.64427
26.18081	5.36161	-3.64427
26.18500	5.36161	-3.64427
26.18930	5.38358	-3.64427
26.19351	5.38358	-3.64427
26.19770	5.38358	-3.64427
26.20189	5.38358	-3.64427
26.20608	5.40555	-3.64427
26.21027	5.40555	-3.64427
26.21446	5.40555	-3.64427
26.21890	5.42752	-3.64427
26.22312	5.42752	-3.64427
26.22732	5.42752	-3.64427
26.23151	5.42752	-3.64427
26.23572	5.44950	-3.64427
26.24003	5.44950	-3.64427
26.24422	5.47147	-3.64427
26.24850	5.47147	-3.64427
26.25278	5.47147	-3.64427
26.25698	5.47147	-3.64427
26.26118	5.47147	-3.64427
26.26539	5.49344	-3.64427
26.26958	5.51541	-3.64427
26.27377	5.51541	-3.64427
26.27800	5.51541	-3.64427
26.28232	5.51541	-3.64427
26.28654	5.53739	-3.64427
26.29073	5.53739	-3.64427
26.29493	5.53739	-3.64427
26.29912	5.55936	-3.64427
26.30332	5.55936	-3.64427
26.30751	5.55936	-3.64427
26.31195	5.58133	-3.64427
26.31622	5.60330	-3.64427
26.32042	5.60330	-3.64427
26.32461	5.62528	-3.64427
26.32881	5.62528	-3.64427
26.33299	5.62528	-3.64427
26.33718	5.64725	-3.64427
26.34155	5.64725	-3.64427
26.34581	5.64725	-3.64427
26.35000	5.66922	-3.64427
26.35419	5.69119	-3.64427
26.35838	5.69119	-3.64427
26.36256	5.69119	-3.64427
26.36675	5.71317	-3.64427
26.37094	5.71317	-3.64427
26.37526	5.73514	-3.64427
26.37946	5.75711	-3.64427
26.38365	5.75711	-3.64427
26.38784	5.75711	-3.64427
26.39202	5.77909	-3.64427
26.39621	5.77909	-3.64427
26.40039	5.80106	-3.64427
26.40483	5.82303	-3.64427
26.40905	5.82303	-3.64427
26.41324	5.82303	-3.64427
26.41743	5.84500	-3.64427
26.42162	5.84500	-3.64427
26.42581	5.86698	-3.64427
26.43001	5.88895	-3.64427
26.43426	5.88895	-3.64427
26.43855	5.91092	-3.64427
26.44287	5.91092	-3.64427
26.44706	5.91092	-3.64427
26.45127	5.93289	-3.64427
26.45546	5.95487	-3.64427
26.45965	5.95487	-3.64427
26.46384	5.97684	-3.64427
26.46815	5.97684	-3.64427
26.47236	5.97684	-3.64427
26.47655	5.99881	-3.64427
26.48074	6.02078	-3.64427
26.48493	6.02078	-3.64427
26.48912	6.02078	-3.64427
26.49331	6.04276	-3.64427
26.49774	6.06473	-3.64427
26.50195	6.06473	-3.64427
26.50614	6.06473	-3.64427
26.51033	6.08670	-3.64427
26.51453	6.08670	-3.64427
26.51872	6.08670	-3.64427
26.52291	6.10868	-3.64427
26.52717	6.13065	-3.64427
26.53142	6.13065	-3.64427
26.53562	6.15262	-3.64427
26.53980	6.15262	-3.64427
26.54409	6.15262	-3.64427
26.54828	6.17459	-3.64427
26.55247	6.17459	-3.64427
26.55665	6.19657	-3.64427
26.56095	6.21854	-3.64427
26.56516	6.21854	-3.64427
26.56935	6.21854	-3.64427
26.57354	6.21854	-3.64427
26.57772	6.24051	-3.64427
26.58191	6.24051	-3.64427
26.58609	6.26248	-3.64427
26.59054	6.26248	-3.64427
26.59476	6.28446	-3.64427
26.59896	6.28446	-3.64427
26.60315	6.28446	-3.64427
26.60733	6.30643	-3.64427
26.61152	6.30643	-3.64427
26.61571	6.30643	-3.64427
26.61998	6.32840	-3.64427
26.62428	6.32840	-3.64427
26.62848	6.35037	-3.64427
26.63268	6.35037	-3.64427
26.63687	6.35037	-3.64427
26.64106	6.37235	-3.64427
26.64536	6.37235	-3.64427
26.64955	6.39432	-3.64427
26.65386	6.39432	-3.64427
26.65807	6.39432	-3.64427
26.66226	6.39432	-3.64427
26.66645	6.41629	-3.64427
26.67064	6.41629	-3.64427
26.67484	6.41629	-3.64427
26.67903	6.43827	-3.64427
26.68349	6.43827	-3.64427
26.68770	6.43827	-3.64427
26.69189	6.46024	-3.64427
26.69608	6.46024	-3.64427
26.70027	6.46024	-3.64427
26.70446	6.46024	-3.64427
26.70864	6.48221	-3.64427
26.71290	6.48221	-3.64427
26.71717	6.48221	-3.64427
26.72137	6.50418	-3.64427
26.72556	6.50418	-3.64427
26.72975	6.50418	-3.64427
26.73393	6.50418	-3.64427
26.73812	6.50418	-3.64427
26.74230	6.52616	-3.64427
26.74671	6.52616	-3.64427
26.75091	6.52616	-3.64427
26.75510	6.52616	-3.64427
26.75929	6.54813	-3.64427
26.76348	6.54813	-3.64427
26.76766	6.54813	-3.64427
26.77185	6.54813	-3.64427
26.77627	6.54813	-3.64427
26.78049	6.57010	-3.64427
26.78468	6.57010	-3.64427
26.78888	6.57010	-3.64427
26.79306	6.57010	-3.64427
26.79726	6.57010	-3.64427
26.80145	6.57010	-3.64427
26.80571	6.57010	-3.64427
26.81000	6.59207	-3.64427
26.81421	6.59207	-3.64427
26.81840	6.59207	-3.64427
26.82259	6.59207	-3.64427
26.82678	6.59207	-3.64427
26.83097	6.59207	-3.64427
26.83516	6.59207	-3.64427
26.83946	6.59207	-3.64427
26.84366	6.59207	-3.64427
26.84797	6.61405	-3.64427
26.85216	6.59207	-3.64427
26.85635	6.59207	-3.64427
26.86054	6.61405	-3.64427
26.86473	6.61405	-3.64427
26.86916	6.61405	-3.64427
26.87337	6.61405	-3.64427
26.87757	6.61405	-3.64427
26.88176	6.61405	-3.64427
26.88594	6.61405	-3.64427
26.89013	6.61405	-3.64427
26.89431	6.61405	-3.64427
26.89857	6.61405	-3.64427
26.90284	6.61405	-3.64427
26.90703	6.61405	-3.64427
26.91123	6.61405	-3.64427
26.91542	6.61405	-3.64427
26.91961	6.61405	-3.64427
26.92379	6.59207	-3.64427
26.92797	6.61405	-3.64427
26.93227	6.61405	-3.64427
26.93647	6.61405	-3.64427
26.94066	6.61405	-3.64427
26.94484	6.61405	-3.64427
26.94914	6.59207	-3.64427
26.95332	6.59207	-3.64427
26.95751	6.59207	-3.64427
26.96195	6.59207	-3.64427
26.96616	6.59207	-3.64427
26.97035	6.59207	-3.64427
26.97454	6.59207	-3.64427
26.97872	6.59207	-3.64427
26.98291	6.59207	-3.64427
26.98709	6.57010	-3.64427
26.99138	6.57010	-3.64427
26.99566	6.57010	-3.64427
26.99986	6.57010	-3.64427
27.00405	6.57010	-3.64427
27.00823	6.54813	-3.64427
27.01242	6.54813	-3.64427
27.01660	6.54813	-3.64427
27.02079	6.54813	-3.64427
27.02508	6.54813	-3.64427
27.02929	6.54813	-3.64427
27.03348	6.54813	-3.64427
27.03767	6.52616	-3.64427
27.04185	6.52616	-3.64427
27.04604	6.52616	-3.64427
27.05033	6.52616	-3.64427
27.05458	6.50418	-3.64427
27.05892	6.50418	-3.64427
27.06313	6.50418	-3.64427
27.06733	6.50418	-3.64427
27.07152	6.50418	-3.64427
27.07571	6.50418	-3.64427
27.07989	6.48221	-3.64427
27.08408	6.48221	-3.64427
27.08839	6.48221	-3.64427
27.09259	6.46024	-3.64427
27.09679	6.46024	-3.64427
27.10098	6.46024	-3.64427
27.10517	6.43827	-3.64427
27.10936	6.43827	-3.64427
27.11354	6.43827	-3.64427
27.11802	6.41629	-3.64427
27.12224	6.41629	-3.64427
27.12644	6.41629	-3.64427
27.13064	6.41629	-3.64427
27.13483	6.39432	-3.64427
27.13902	6.39432	-3.64427
27.14324	6.37235	-3.64427
27.14756	6.37235	-3.64427
27.15197	6.37235	-3.64427
27.15617	6.35037	-3.64427
27.16037	6.35037	-3.64427
27.16456	6.35037	-3.64427
27.16875	6.32840	-3.64427
27.17295	6.32840	-3.64427
27.17714	6.32840	-3.64427
27.18145	6.32840	-3.64427
27.18566	6.30643	-3.64427
27.18985	6.30643	-3.64427
27.19404	6.30643	-3.64427
27.19823	6.28446	-3.64427
27.20243	6.26248	-3.64427
27.20662	6.26248	-3.64427
27.21116	6.26248	-3.64427
27.21539	6.26248	-3.64427
27.21959	6.24051	-3.64427
27.22378	6.24051	-3.64427
27.22797	6.21854	-3.64427
27.23217	6.21854	-3.64427
27.23636	6.21854	-3.64427
27.24064	6.19657	-3.64427
27.24491	6.19657	-3.64427
27.24910	6.17459	-3.64427
27.25341	6.17459	-3.64427
27.25759	6.15262	-3.64427
27.26178	6.15262	-3.64427
27.26597	6.15262	-3.64427
27.27023	6.13065	-3.64427
27.27452	6.13065	-3.64427
27.27876	6.10868	-3.64427
27.28296	6.10868	-3.64427
27.28714	6.10868	-3.64427
27.29133	6.08670	-3.64427
27.29552	6.08670	-3.64427
27.29970	6.06473	-3.64427
27.30401	6.06473	-3.64427
27.30821	6.04276	-3.64427
27.31240	6.04276	-3.64427
27.31659	6.04276	-3.64427
27.32078	6.02078	-3.64427
27.32496	6.02078	-3.64427
27.32915	5.99881	-3.64427
27.33341	5.99881	-3.64427
27.33768	5.99881	-3.64427
27.34188	5.99881	-3.64427
27.34606	5.97684	-3.64427
27.35025	5.97684	-3.64427
27.35454	5.95487	-3.64427
27.35872	5.95487	-3.64427
27.36291	5.93289	-3.64427
27.36723	5.93289	-3.64427
27.37144	5.93289	-3.64427
27.37562	5.93289	-3.64427
27.37981	5.91092	-3.64427
27.38400	5.91092	-3.64427
27.38818	5.88895	-3.64427
27.39237	5.88895	-3.64427
27.39681	5.88895	-3.64427
27.40103	5.86698	-3.64427
27.40522	5.86698	-3.64427
27.40942	5.86698	-3.64427
27.41361	5.84500	-3.64427
27.41780	5.84500	-3.64427
27.42199	5.84500	-3.64427
27.42626	5.82303	-3.64427
27.43056	5.82303	-3.64427
27.43476	5.80106	-3.64427
27.43896	5.80106	-3.64427
27.44315	5.77909	-3.64427
27.44734	5.77909	-3.64427
27.45153	5.77909	-3.64427
27.45583	5.77909	-3.64427
27.46014	5.75711	-3.64427
27.46435	5.75711	-3.64427
27.46855	5.73514	-3.64427
27.47274	5.73514	-3.64427
27.47693	5.73514	-3.64427
27.48112	5.73514	-3.64427
27.48531	5.71317	-3.64427
27.48975	5.71317	-3.64427
27.49396	5.71317	-3.64427
27.49816	5.69119	-3.64427
27.50235	5.69119	-3.64427
27.50655	5.69119	-3.64427
27.51073	5.66922	-3.64427
27.51493	5.66922	-3.64427
27.51922	5.64725	-3.64427
27.52351	5.64725	-3.64427
27.52771	5.64725	-3.64427
27.53190	5.64725	-3.64427
27.53608	5.62528	-3.64427
27.54027	5.62528	-3.64427
27.54447	5.62528	-3.64427
27.54866	5.60330	-3.64427
27.55296	5.60330	-3.64427
27.55727	5.60330	-3.64427
27.56146	5.60330	-3.64427
27.56565	5.58133	-3.64427
27.56984	5.58133	-3.64427
27.57403	5.55936	-3.64427
27.57821	5.55936	-3.64427
27.58266	5.55936	-3.64427
27.58687	5.55936	-3.64427
27.59107	5.55936	-3.64427
27.59528	5.53739	-3.64427
27.59947	5.53739	-3.64427
27.60366	5.53739	-3.64427
27.60785	5.53739	-3.64427
27.61213	5.51541	-3.64427
27.61642	5.51541	-3.64427
27.62062	5.51541	-3.64427
27.62482	5.51541	-3.64427
27.62901	5.51541	-3.64427
27.63320	5.51541	-3.64427
27.63739	5.49344	-3.64427
27.64158	5.49344	-3.64427
27.64590	5.49344	-3.64427
27.65010	5.49344	-3.64427
27.65430	5.49344	-3.64427
27.65860	5.47147	-3.64427
27.66279	5.47147	-3.64427
27.66698	5.47147	-3.64427
27.67117	5.47147	-3.64427
27.67558	5.47147	-3.64427
27.67979	5.47147	-3.64427
27.68398	5.47147	-3.64427
27.68817	5.47147	-3.64427
27.69235	5.47147	-3.64427
27.69654	5.44950	-3.64427
27.70072	5.47147	-3.64427
27.70498	5.44950	-3.64427
27.70926	5.44950	-3.64427
27.71346	5.44950	-3.64427
27.71765	5.44950	-3.64427
27.72184	5.44950	-3.64427
27.72602	5.44950	-3.64427
27.73021	5.44950	-3.64427
27.73440	5.44950	-3.64427
27.73870	5.44950	-3.64427
27.74290	5.44950	-3.64427
27.74709	5.42752	-3.64427
27.75129	5.44950	-3.64427
27.75547	5.44950	-3.64427
27.75976	5.42752	-3.64427
27.76395	5.42752	-3.64427
27.76838	5.44950	-3.64427
27.77260	5.44950	-3.64427
27.77679	5.44950	-3.64427
27.78099	5.44950	-3.64427
27.78518	5.42752	-3.64427
27.78937	5.44950	-3.64427
27.79356	5.44950	-3.64427
27.79784	5.44950	-3.64427
27.80213	5.44950	-3.64427
27.80633	5.44950	-3.64427
27.81052	5.44950	-3.64427
27.81472	5.44950	-3.64427
27.81891	5.44950	-3.64427
27.82310	5.44950	-3.64427
27.82730	5.44950	-3.64427
27.83161	5.44950	-3.64427
27.83581	5.47147	-3.64427
27.84001	5.47147	-3.64427
27.84420	5.47147	-3.64427
27.84839	5.47147	-3.64427
27.85258	5.47147	-3.64427
27.85677	5.47147	-3.64427
27.86117	5.47147	-3.64427
27.86543	5.47147	-3.64427
27.86963	5.47147	-3.64427
27.87382	5.47147	-3.64427
27.87801	5.47147	-3.64427
27.88219	5.49344	-3.64427
27.88638	5.49344	-3.64427
27.89064	5.49344	-3.64427
27.89492	5.49344	-3.64427
27.89913	5.49344	-3.64427
27.90333	5.49344	-3.64427
27.90751	5.51541	-3.64427
27.91170	5.49344	-3.64427
27.91588	5.49344	-3.64427
27.92007	5.51541	-3.64427
27.92437	5.51541	-3.64427
27.92858	5.51541	-3.64427
27.93276	5.51541	-3.64427
27.93695	5.51541	-3.64427
27.94114	5.51541	-3.64427
27.94532	5.53739	-3.64427
27.94951	5.53739	-3.64427
27.95376	5.53739	-3.64427
27.95803	5.53739	-3.64427
27.96234	5.53739	-3.64427
27.96653	5.53739	-3.64427
27.97072	5.55936	-3.64427
27.97491	5.55936	-3.64427
27.97910	5.55936	-3.64427
27.98329	5.55936	-3.64427
27.98759	5.55936	-3.64427
27.99180	5.55936	-3.64427
27.99598	5.55936	-3.64427
28.00017	5.55936	-3.64427
28.00436	5.55936	-3.64427
28.00854	5.55936	-3.64427
28.01273	5.58133	-3.64427
28.01715	5.58133	-3.64427
28.02137	5.58133	-3.64427
28.02556	5.58133	-3.64427
28.02976	5.58133	-3.64427
28.03395	5.58133	-3.64427
28.03814	5.58133	-3.64427
28.04233	5.58133	-3.64427
28.04661	5.58133	-3.64427
28.05092	5.60330	-3.64427
28.05512	5.60330	-3.64427
28.05932	5.60330	-3.64427
28.06363	5.60330	-3.64427
28.06782	5.60330	-3.64427
28.07201	5.60330	-3.64427
28.07619	5.60330	-3.64427
28.08051	5.60330	-3.64427
28.08471	5.60330	-3.64427
28.08890	5.60330	-3.64427
28.09309	5.60330	-3.64427
28.09728	5.60330	-3.64427
28.10147	5.62528	-3.64427
28.10566	5.62528	-3.64427
28.11012	5.62528	-3.64427
28.11433	5.62528	-3.64427
28.11852	5.62528	-3.64427
28.12271	5.62528	-3.64427
28.12689	5.64725	-3.64427
28.13108	5.62528	-3.64427
28.13527	5.62528	-3.64427
28.13954	5.62528	-3.64427
28.14382	5.64725	-3.64427
28.14802	5.64725	-3.64427
28.15221	5.64725	-3.64427
28.15639	5.64725	-3.64427
28.16058	5.64725	-3.64427
28.16487	5.64725	-3.64427
28.16905	5.64725	-3.64427
28.17335	5.66922	-3.64427
28.17756	5.66922	-3.64427
28.18175	5.66922	-3.64427
28.18593	5.66922	-3.64427
28.19011	5.66922	-3.64427
28.19430	5.66922	-3.64427
28.19848	5.69119	-3.64427
28.20273	5.66922	-3.64427
28.20701	5.69119	-3.64427
28.21122	5.69119	-3.64427
28.21541	5.69119	-3.64427
28.21959	5.69119	-3.64427
28.22378	5.69119	-3.64427
28.22796	5.69119	-3.64427
28.23215	5.69119	-3.64427
28.23644	5.69119	-3.64427
28.24064	5.69119	-3.64427
28.24483	5.69119	-3.64427
28.24901	5.69119	-3.64427
28.25320	5.71317	-3.64427
28.25739	5.69119	-3.64427
28.26157	5.71317	-3.64427
28.26593	5.71317	-3.64427
28.27019	5.71317	-3.64427
28.27438	5.71317	-3.64427
28.27863	5.71317	-3.64427
28.28282	5.71317	-3.64427
28.28701	5.71317	-3.64427
28.29120	5.71317	-3.64427
28.29539	5.71317	-3.64427
28.29969	5.73514	-3.64427
28.30389	5.73514	-3.64427
28.30808	5.71317	-3.64427
28.31226	5.73514	-3.64427
28.31644	5.73514	-3.64427
28.32063	5.73514	-3.64427
28.32481	5.73514	-3.64427
28.32906	5.73514	-3.64427
28.33333	5.73514	-3.64427
28.33753	5.73514	-3.64427
28.34171	5.73514	-3.64427
28.34589	5.73514	-3.64427
28.35008	5.73514	-3.64427
28.35426	5.73514	-3.64427
28.35845	5.73514	-3.64427
28.36274	5.73514	-3.64427
28.36705	5.73514	-3.64427
28.37124	5.73514	-3.64427
28.37543	5.73514	-3.64427
28.37961	5.73514	-3.64427
28.38380	5.73514	-3.64427
28.38798	5.73514	-3.64427
28.39239	5.73514	-3.64427
28.39661	5.73514	-3.64427
28.40079	5.73514	-3.64427
28.40498	5.73514	-3.64427
28.40917	5.73514	-3.64427
28.41335	5.73514	-3.64427
28.41754	5.73514	-3.64427
28.42178	5.73514	-3.64427
28.42607	5.73514	-3.64427
28.43027	5.73514	-3.64427
28.43446	5.73514	-3.64427
28.43865	5.71317	-3.64427
28.44283	5.73514	-3.64427
28.44702	5.73514	-3.64427
28.45121	5.73514	-3.64427
28.45551	5.73514	-3.64427
28.45973	5.73514	-3.64427
28.46392	5.73514	-3.64427
28.46821	5.71317	-3.64427
28.47239	5.73514	-3.64427
28.47658	5.73514	-3.64427
28.48076	5.73514	-3.64427
28.48501	5.73514	-3.64427
28.48928	5.73514	-3.64427
28.49347	5.71317	-3.64427
28.49766	5.73514	-3.64427
28.50184	5.71317	-3.64427
28.50603	5.71317	-3.64427
28.51021	5.71317	-3.64427
28.51441	5.71317	-3.64427
28.51872	5.71317	-3.64427
28.52292	5.71317	-3.64427
28.52711	5.71317	-3.64427
28.53130	5.71317	-3.64427
28.53549	5.71317	-3.64427
28.53967	5.71317	-3.64427
28.54386	5.71317	-3.64427
28.54826	5.71317	-3.64427
28.55248	5.71317	-3.64427
28.55666	5.71317	-3.64427
28.56085	5.71317	-3.64427
28.56503	5.71317	-3.64427
28.56932	5.71317	-3.64427
28.57351	5.71317	-3.64427
28.57776	5.71317	-3.64427
28.58204	5.71317	-3.64427
28.58623	5.71317	-3.64427
28.59042	5.71317	-3.64427
28.59460	5.71317	-3.64427
28.59879	5.71317	-3.64427
28.60297	5.71317	-3.64427
28.60716	5.71317	-3.64427
28.61145	5.71317	-3.64427
28.61565	5.71317	-3.64427
28.61983	5.71317	-3.64427
28.62402	5.71317	-3.64427
28.62821	5.71317	-3.64427
28.63239	5.71317	-3.64427
28.63657	5.71317	-3.64427
28.64083	5.71317	-3.64427
28.64510	5.71317	-3.64427
28.64929	5.71317	-3.64427
28.65348	5.71317	-3.64427
28.65766	5.71317	-3.64427
28.66185	5.71317	-3.64427
28.66603	5.71317	-3.64427
28.67032	5.71317	-3.64427
28.67462	5.71317	-3.64427
28.67882	5.71317	-3.64427
28.68301	5.69119	-3.64427
28.68721	5.69119	-3.64427
28.69139	5.69119	-3.64427
28.69558	5.71317	-3.64427
28.69976	5.69119	-3.64427
28.70420	5.69119	-3.64427
28.70841	5.69119	-3.64427
28.71260	5.69119	-3.64427
28.71679	5.69119	-3.64427
28.72097	5.69119	-3.64427
28.72516	5.69119	-3.64427
28.72934	5.66922	-3.64427
28.73361	5.69119	-3.64427
28.73790	5.66922	-3.64427
28.74210	5.66922	-3.64427
28.74628	5.66922	-3.64427
28.75047	5.66922	-3.64427
28.75466	5.66922	-3.64427
28.75884	5.66922	-3.64427
28.76302	5.66922	-3.64427
28.76734	5.66922	-3.64427
28.77166	5.66922	-3.64427
28.77584	5.64725	-3.64427
28.78003	5.64725	-3.64427
28.78422	5.64725	-3.64427
28.78841	5.64725	-3.64427
28.79259	5.64725	-3.64427
28.79703	5.64725	-3.64427
28.80124	5.64725	-3.64427
28.80544	5.62528	-3.64427
28.80963	5.62528	-3.64427
28.81382	5.62528	-3.64427
28.81801	5.62528	-3.64427
28.82220	5.60330	-3.64427
28.82647	5.62528	-3.64427
28.83076	5.60330	-3.64427
28.83497	5.60330	-3.64427
28.83916	5.60330	-3.64427
28.84333	5.60330	-3.64427
28.84752	5.58133	-3.64427
28.85171	5.58133	-3.64427
28.85590	5.58133	-3.64427
28.86021	5.58133	-3.64427
28.86442	5.58133	-3.64427
28.86861	5.55936	-3.64427
28.87292	5.55936	-3.64427
28.87711	5.55936	-3.64427
28.88130	5.55936	-3.64427
28.88549	5.55936	-3.64427
28.88991	5.55936	-3.64427
28.89413	5.53739	-3.64427
28.89832	5.53739	-3.64427
28.90251	5.53739	-3.64427
28.90670	5.53739	-3.64427
28.91089	5.51541	-3.64427
28.91508	5.51541	-3.64427
28.91934	5.51541	-3.64427
28.92361	5.49344	-3.64427
28.92781	5.49344	-3.64427
28.93199	5.49344	-3.64427
28.93618	5.49344	-3.64427
28.94036	5.49344	-3.64427
28.94455	5.47147	-3.64427
28.94873	5.47147	-3.64427
28.95303	5.47147	-3.64427
28.95723	5.47147	-3.64427
28.96143	5.44950	-3.64427
28.96561	5.44950	-3.64427
28.96980	5.44950	-3.64427
28.97410	5.42752	-3.64427
28.97828	5.42752	-3.64427
28.98272	5.42752	-3.64427
28.98694	5.42752	-3.64427
28.99113	5.40555	-3.64427
28.99533	5.40555	-3.64427
28.99952	5.40555	-3.64427
29.00371	5.38358	-3.64427
29.00790	5.38358	-3.64427
29.01217	5.38358	-3.64427
29.01646	5.36161	-3.64427
29.02066	5.36161	-3.64427
29.02486	5.36161	-3.64427
29.02906	5.36161	-3.64427
29.03326	5.36161	-3.64427
29.03745	5.33963	-3.64427
29.04164	5.33963	-3.64427
29.04596	5.33963	-3.64427
29.05017	5.31766	-3.64427
29.05437	5.31766	-3.64427
29.05856	5.29569	-3.64427
29.06276	5.29569	-3.64427
29.06695	5.29569	-3.64427
29.07114	5.29569	-3.64427
29.07555	5.27371	-3.64427
29.07982	5.27371	-3.64427
29.08402	5.27371	-3.64427
29.08821	5.25174	-3.64427
29.09240	5.25174	-3.64427
29.09659	5.22977	-3.64427
29.10078	5.22977	-3.64427
29.10504	5.20780	-3.64427
29.10933	5.20780	-3.64427
29.11353	5.20780	-3.64427
29.11772	5.20780	-3.64427
29.12190	5.18582	-3.64427
29.12609	5.18582	-3.64427
29.13027	5.16385	-3.64427
29.13446	5.16385	-3.64427
29.13877	5.16385	-3.64427
29.14299	5.16385	-3.64427
29.14720	5.14188	-3.64427
29.15139	5.14188	-3.64427
29.15558	5.11991	-3.64427
29.15977	5.11991	-3.64427
29.16395	5.11991	-3.64427
29.16822	5.11991	-3.64427
29.17249	5.09793	-3.64427
29.17679	5.09793	-3.64427
29.18099	5.07596	-3.64427
29.18518	5.07596	-3.64427
29.18936	5.07596	-3.64427
29.19355	5.05399	-3.64427
29.19773	5.05399	-3.64427
29.20203	5.03202	-3.64427
29.20624	5.03202	-3.64427
29.21043	5.01004	-3.64427
29.21461	5.01004	-3.64427
29.21880	5.01004	-3.64427
29.22299	4.98807	-3.64427
29.22717	4.98807	-3.64427
29.23158	4.96610	-3.64427
29.23579	4.96610	-3.64427
29.23998	4.94412	-3.64427
29.24418	4.94412	-3.64427
29.24837	4.94412	-3.64427
29.25256	4.92215	-3.64427
29.25675	4.92215	-3.64427
29.26101	4.90018	-3.64427
29.26530	4.90018	-3.64427
29.26950	4.90018	-3.64427
29.27370	4.90018	-3.64427
29.27800	4.87821	-3.64427
29.28223	4.85623	-3.64427
29.28643	4.85623	-3.64427
29.29062	4.85623	-3.64427
29.29494	4.85623	-3.64427
29.29915	4.83426	-3.64427
29.30334	4.83426	-3.64427
29.30753	4.81229	-3.64427
29.31173	4.81229	-3.64427
29.31592	4.79032	-3.64427
29.32011	4.79032	-3.64427
29.32454	4.79032	-3.64427
29.32876	4.79032	-3.64427
29.33295	4.76834	-3.64427
29.33714	4.76834	-3.64427
29.34133	4.74637	-3.64427
29.34551	4.74637	-3.64427
29.34970	4.74637	-3.64427
29.35395	4.74637	-3.64427
29.35822	4.72440	-3.64427
29.36242	4.72440	-3.64427
29.36661	4.72440	-3.64427
29.37080	4.72440	-3.64427
29.37498	4.72440	-3.64427
29.37929	4.70243	-3.64427
29.38348	4.70243	-3.64427
29.38779	4.68045	-3.64427
29.39199	4.68045	-3.64427
29.39618	4.68045	-3.64427
29.40036	4.68045	-3.64427
29.40455	4.65848	-3.64427
29.40874	4.65848	-3.64427
29.41292	4.65848	-3.64427
29.41734	4.63651	-3.64427
29.42156	4.63651	-3.64427
29.42575	4.63651	-3.64427
29.42994	4.63651	-3.64427
29.43413	4.61453	-3.64427
29.43832	4.61453	-3.64427
29.44251	4.61453	-3.64427
29.44678	4.59256	-3.64427
29.45107	4.59256	-3.64427
29.45528	4.59256	-3.64427
29.45948	4.59256	-3.64427
29.46367	4.57059	-3.64427
29.46786	4.57059	-3.64427
29.47205	4.57059	-3.64427
29.47625	4.54862	-3.64427
29.48067	4.54862	-3.64427
29.48488	4.54862	-3.64427
29.48907	4.54862	-3.64427
29.49327	4.52664	-3.64427
29.49746	4.52664	-3.64427
29.50165	4.52664	-3.64427
29.50584	4.50467	-3.64427
29.51025	4.50467	-3.64427
29.51447	4.50467	-3.64427
29.51869	4.50467	-3.64427
29.52288	4.48270	-3.64427
29.52708	4.48270	-3.64427
29.53128	4.48270	-3.64427
29.53546	4.48270	-3.64427
29.53973	4.48270	-3.64427
29.54400	4.46073	-3.64427
29.54821	4.46073	-3.64427
29.55241	4.43875	-3.64427
29.55660	4.46073	-3.64427
29.56079	4.46073	-3.64427
29.56497	4.43875	-3.64427
29.56916	4.41678	-3.64427
29.57346	4.43875	-3.64427
29.57768	4.41678	-3.64427
29.58199	4.41678	-3.64427
29.58618	4.41678	-3.64427
29.59036	4.41678	-3.64427
29.59456	4.39481	-3.64427
29.59875	4.39481	-3.64427
29.60323	4.39481	-3.64427
29.60746	4.39481	-3.64427
29.61166	4.39481	-3.64427
29.61586	4.37284	-3.64427
29.62005	4.37284	-3.64427
29.62424	4.37284	-3.64427
29.62844	4.35086	-3.64427
29.63271	4.35086	-3.64427
29.63700	4.35086	-3.64427
29.64120	4.35086	-3.64427
29.64540	4.35086	-3.64427
29.64959	4.35086	-3.64427
29.65378	4.32889	-3.64427
29.65797	4.32889	-3.64427
29.66216	4.32889	-3.64427
29.66648	4.30692	-3.64427
29.67069	4.30692	-3.64427
29.67488	4.30692	-3.64427
29.67907	4.30692	-3.64427
29.68340	4.30692	-3.64427
29.68759	4.30692	-3.64427
29.69178	4.28494	-3.64427
29.69623	4.28494	-3.64427
29.70044	4.28494	-3.64427
29.70463	4.28494	-3.64427
29.70882	4.28494	-3.64427
29.71301	4.28494	-3.64427
29.71720	4.26297	-3.64427
29.72139	4.26297	-3.64427
29.72567	4.26297	-3.64427
29.72997	4.26297	-3.64427
29.73418	4.26297	-3.64427
29.73837	4.24100	-3.64427
29.74256	4.26297	-3.64427
29.74674	4.26297	-3.64427
29.75093	4.24100	-3.64427
29.75511	4.24100	-3.64427
29.75943	4.24100	-3.64427
29.76363	4.24100	-3.64427
29.76782	4.24100	-3.64427
29.77200	4.24100	-3.64427
29.77619	4.24100	-3.64427
29.78037	4.24100	-3.64427
29.78466	4.21903	-3.64427
29.78907	4.21903	-3.64427
29.79329	4.24100	-3.64427
29.79748	4.21903	-3.64427
29.80166	4.21903	-3.64427
29.80585	4.21903	-3.64427
29.81003	4.21903	-3.64427
29.81421	4.21903	-3.64427
29.81847	4.21903	-3.64427
29.82275	4.21903	-3.64427
29.82696	4.21903	-3.64427
29.83115	4.21903	-3.64427
29.83533	4.21903	-3.64427
29.83951	4.21903	-3.64427
29.84369	4.21903	-3.64427
29.84788	4.21903	-3.64427
29.85218	4.21903	-3.64427
29.85637	4.21903	-3.64427
29.86056	4.21903	-3.64427
29.86474	4.21903	-3.64427
29.86893	4.21903	-3.64427
29.87311	4.21903	-3.64427
29.87730	4.21903	-3.64427
29.88155	4.21903	-3.64427
29.88594	4.21903	-3.64427
29.89013	4.21903	-3.64427
29.89432	4.21903	-3.64427
29.89850	4.21903	-3.64427
29.90269	4.21903	-3.64427
29.90687	4.21903	-3.64427
29.91106	4.21903	-3.64427
29.91538	4.21903	-3.64427
29.91958	4.21903	-3.64427
29.92377	4.21903	-3.64427
29.92795	4.24100	-3.64427
29.93214	4.24100	-3.64427
29.93632	4.24100	-3.64427
29.94051	4.24100	-3.64427
29.94477	4.24100	-3.64427
29.94904	4.24100	-3.64427
29.95324	4.26297	-3.64427
29.95742	4.26297	-3.64427
29.96161	4.26297	-3.64427
29.96579	4.26297	-3.64427
29.96998	4.26297	-3.64427
29.97416	4.26297	-3.64427
29.97846	4.28494	-3.64427
29.98266	4.28494	-3.64427
29.98695	4.28494	-3.64427
29.99114	4.28494	-3.64427
29.99533	4.28494	-3.64427
29.99951	4.30692	-3.64427
