Time (s)   roll (deg)   Delta
0.00037	4.32889	11.27051
0.00460	4.32889	11.27051
0.00879	4.35086	11.27051
0.01314	4.35086	11.27051
0.01745	4.35086	11.27051
0.02166	4.37284	11.27051
0.02585	4.37284	11.27051
0.03004	4.37284	11.27051
0.03422	4.37284	11.27051
0.03841	4.37284	11.27051
0.04265	4.39481	11.27051
0.04702	4.39481	11.27051
0.05125	4.39481	11.27051
0.05545	4.39481	11.27051
0.05967	4.41678	11.27051
0.06385	4.41678	11.27051
0.06803	4.41678	11.27051
0.07221	4.41678	11.27051
0.07658	4.41678	11.27051
0.08078	4.41678	11.27051
0.08497	4.41678	11.27051
0.08915	4.41678	11.27051
0.09332	4.41678	11.27051
0.09749	4.41678	11.27051
0.10176	4.41678	11.27051
0.10632	4.41678	11.27051
0.11051	4.41678	11.27051
0.11470	4.41678	11.27051
0.11889	4.41678	11.27051
0.12307	4.39481	11.27051
0.12724	4.39481	11.27051
0.13141	4.39481	11.27051
0.13568	4.39481	11.27051
0.13992	4.37284	11.27051
0.14410	4.35086	11.27051
0.14827	4.35086	11.27051
0.15245	4.32889	11.27051
0.15663	4.30692	11.27051
0.16080	4.30692	11.27051
0.16499	4.28494	11.27051
0.16929	4.26297	11.27051
0.17350	4.24100	11.27051
0.17768	4.21903	11.27051
0.18187	4.21903	11.27051
0.18605	4.19705	11.27051
0.19024	4.17508	11.27051
0.19443	4.15311	11.27051
0.19884	4.10916	11.27051
0.20316	4.06522	11.27051
0.20734	4.04325	11.27051
0.21153	4.04325	11.27051
0.21571	3.99930	11.27051
0.21990	3.95536	11.27051
0.22408	3.91141	11.27051
0.22833	3.86746	11.27051
0.23262	3.82352	11.27051
0.23682	3.80155	11.27051
0.24101	3.80155	11.27051
0.24519	3.73563	11.27051
0.24942	3.66971	11.27051
0.25363	3.62577	11.27051
0.25783	3.58182	11.27051
0.26214	3.51590	11.27051
0.26634	3.51590	11.27051
0.27053	3.47196	11.27051
0.27472	3.40604	11.27051
0.27890	3.34012	11.27051
0.28309	3.27420	11.27051
0.28727	3.27420	11.27051
0.29170	3.20828	11.27051
0.29592	3.14237	11.27051
0.30010	3.05448	11.27051
0.30439	2.98856	11.27051
0.30859	2.92264	11.27051
0.31277	2.92264	11.27051
0.31696	2.83475	11.27051
0.32121	2.76883	11.27051
0.32549	2.70291	11.27051
0.32968	2.61502	11.27051
0.33387	2.52713	11.27051
0.33806	2.43924	11.27051
0.34225	2.43924	11.27051
0.34643	2.35135	11.27051
0.35061	2.26346	11.27051
0.35491	2.17557	11.27051
0.35912	2.06571	11.27051
0.36331	1.97782	11.27051
0.36750	1.97782	11.27051
0.37168	1.88993	11.27051
0.37586	1.78006	11.27051
0.38005	1.69217	11.27051
0.38447	1.56034	11.27051
0.38870	1.45047	11.27051
0.39288	1.45047	11.27051
0.39707	1.36258	11.27051
0.40125	1.25272	11.27051
0.40554	1.14286	11.27051
0.40972	1.03299	11.27051
0.41397	0.92313	11.27051
0.41824	0.79129	11.27051
0.42243	0.79129	11.27051
0.42662	0.68143	11.27051
0.43080	0.54959	11.27051
0.43498	0.43973	11.27051
0.43916	0.30789	11.27051
0.44335	0.17606	11.27051
0.44763	0.06619	11.27051
0.45183	0.06619	11.27051
0.45602	-0.04367	11.27051
0.46021	-0.17550	11.27051
0.46439	-0.32931	11.27051
0.46859	-0.46115	11.27051
0.47277	-0.46115	11.27051
0.47719	-0.59298	11.27051
0.48140	-0.72482	11.27051
0.48558	-0.87863	11.27051
0.48977	-1.01047	11.27051
0.49395	-1.12033	11.27051
0.49813	-1.27414	11.27051
0.50232	-1.27414	11.27051
0.50671	-1.42795	11.27051
0.51098	-1.55978	11.27051
0.51518	-1.71359	11.27051
0.51937	-1.86740	11.27051
0.52355	-2.02121	11.27051
0.52773	-2.02121	11.27051
0.53192	-2.17502	11.27051
0.53610	-2.32882	11.27051
0.54039	-2.48263	11.27051
0.54461	-2.63644	11.27051
0.54880	-2.81222	11.27051
0.55298	-2.81222	11.27051
0.55717	-2.96603	11.27051
0.56141	-3.11984	11.27051
0.56560	-3.27365	11.27051
0.56986	-3.44943	11.27051
0.57413	-3.44943	11.27051
0.57832	-3.62521	11.27051
0.58250	-3.75705	11.27051
0.58669	-3.91086	11.27051
0.59088	-4.08664	11.27051
0.59506	-4.26242	11.27051
0.59924	-4.41623	11.27051
0.60354	-4.41623	11.27051
0.60784	-4.59201	11.27051
0.61203	-4.76779	11.27051
0.61622	-4.94357	11.27051
0.62041	-5.07541	11.27051
0.62460	-5.25119	11.27051
0.62879	-5.42697	11.27051
0.63320	-5.42697	11.27051
0.63741	-5.60275	11.27051
0.64159	-5.77853	11.27051
0.64578	-5.95431	11.27051
0.64996	-6.13009	11.27051
0.65414	-6.13009	11.27051
0.65833	-6.32785	11.27051
0.66258	-6.50363	11.27051
0.66686	-6.63547	11.27051
0.67106	-6.83322	11.27051
0.67524	-7.00900	11.27051
0.67943	-7.20675	11.27051
0.68361	-7.20675	11.27051
0.68779	-7.38254	11.27051
0.69198	-7.58029	11.27051
0.69628	-7.75607	11.27051
0.70048	-7.95382	11.27051
0.70468	-8.10763	11.27051
0.70897	-8.28341	11.27051
0.71315	-8.28341	11.27051
0.71733	-8.48117	11.27051
0.72151	-8.65695	11.27051
0.72577	-8.85470	11.27051
0.73003	-9.05246	11.27051
0.73422	-9.25021	11.27051
0.73841	-9.25021	11.27051
0.74259	-9.44797	11.27051
0.74677	-9.64572	11.27051
0.75095	-9.77756	11.27051
0.75514	-9.97531	11.27051
0.75943	-10.17306	11.27051
0.76363	-10.17306	11.27051
0.76782	-10.37082	11.27051
0.77201	-10.56857	11.27051
0.77619	-10.74435	11.27051
0.78037	-10.94211	11.27051
0.78457	-11.13986	11.27051
0.78882	-11.13986	11.27051
0.79308	-11.33761	11.27051
0.79727	-11.51339	11.27051
0.80146	-11.71115	11.27051
0.80564	-11.90890	11.27051
0.80993	-12.08468	11.27051
0.81411	-12.08468	11.27051
0.81829	-12.28244	11.27051
0.82258	-12.48019	11.27051
0.82678	-12.67795	11.27051
0.83096	-12.85373	11.27051
0.83515	-13.02951	11.27051
0.83933	-13.02951	11.27051
0.84352	-13.20529	11.27051
0.84770	-13.40304	11.27051
0.85195	-13.60080	11.27051
0.85621	-13.79855	11.27051
0.86041	-13.97433	11.27051
0.86460	-13.97433	11.27051
0.86879	-14.17209	11.27051
0.87297	-14.36984	11.27051
0.87715	-14.52365	11.27051
0.88133	-14.69943	11.27051
0.88563	-14.89718	11.27051
0.88982	-15.09494	11.27051
0.89401	-15.09494	11.27051
0.89819	-15.27072	11.27051
0.90238	-15.44650	11.27051
0.90656	-15.64425	11.27051
0.91085	-15.82004	11.27051
0.91525	-15.82004	11.27051
0.91946	-16.01779	11.27051
0.92365	-16.17160	11.27051
0.92783	-16.36935	11.27051
0.93201	-16.54513	11.27051
0.93623	-16.72091	11.27051
0.94042	-16.91867	11.27051
0.94470	-16.91867	11.27051
0.94898	-17.09445	11.27051
0.95318	-17.27023	11.27051
0.95737	-17.44601	11.27051
0.96155	-17.59982	11.27051
0.96574	-17.77560	11.27051
0.96992	-17.97336	11.27051
0.97410	-17.97336	11.27051
0.97840	-18.12716	11.27051
0.98260	-18.32492	11.27051
0.98679	-18.50070	11.27051
0.99098	-18.67648	11.27051
0.99516	-18.67648	11.27051
0.99934	-18.85226	11.27051
1.00353	-19.02804	11.27051
1.00778	-19.15988	11.27051
1.01216	-19.33566	11.27051
1.01637	-19.51144	11.27051
1.02057	-19.68722	11.27051
1.02475	-19.68722	11.27051
1.02893	-19.84103	11.27051
1.03313	-20.01681	11.27051
1.03732	-20.19259	11.27051
1.04161	-20.36838	11.27051
1.04581	-20.52218	11.27051
1.04999	-20.52218	11.27051
1.05418	-20.69797	11.27051
1.05836	-20.85177	11.27051
1.06257	-21.00558	11.27051
1.06676	-21.15939	11.27051
1.07119	-21.29123	11.27051
1.07541	-21.29123	11.27051
1.07959	-21.44504	11.27051
1.08378	-21.55490	11.27051
1.08796	-21.68673	11.27051
1.09215	-21.77463	11.27051
1.09633	-21.86252	11.27051
1.10061	-21.86252	11.27051
1.10489	-21.95041	11.27051
1.10909	-22.03830	11.27051
1.11338	-22.10422	11.27051
1.11760	-22.14816	11.27051
1.12179	-22.19211	11.27051
1.12598	-22.19211	11.27051
1.13017	-22.19211	11.27051
1.13446	-22.19211	11.27051
1.13867	-22.21408	11.27051
1.14286	-22.17013	11.27051
1.14704	-22.17013	11.27051
1.15123	-22.10422	11.27051
1.15542	-22.10422	11.27051
1.15960	-22.06027	11.27051
1.16386	-21.99435	11.27051
1.16815	-21.90646	11.27051
1.17234	-21.81857	11.27051
1.17653	-21.75265	11.27051
1.18068	-21.64279	11.27051
1.18486	-21.64279	11.27051
1.18905	-21.53293	11.27051
1.19323	-21.42306	11.27051
1.19752	-21.31320	11.27051
1.20173	-21.20334	11.27051
1.20591	-21.20334	11.27051
1.21010	-21.07150	11.27051
1.21438	-20.96164	11.27051
1.21856	-20.85177	11.27051
1.22275	-20.71994	11.27051
1.22715	-20.61007	11.27051
1.23135	-20.47824	11.27051
1.23554	-20.47824	11.27051
1.23973	-20.34640	11.27051
1.24391	-20.23654	11.27051
1.24809	-20.08273	11.27051
1.25228	-19.97287	11.27051
1.25657	-19.84103	11.27051
1.26085	-19.73117	11.27051
1.26504	-19.73117	11.27051
1.26923	-19.59933	11.27051
1.27341	-19.48947	11.27051
1.27759	-19.35763	11.27051
1.28178	-19.22580	11.27051
1.28596	-19.22580	11.27051
1.29026	-19.09396	11.27051
1.29445	-18.96213	11.27051
1.29864	-18.83029	11.27051
1.30282	-18.69845	11.27051
1.30700	-18.56662	11.27051
1.31119	-18.56662	11.27051
1.31547	-18.45675	11.27051
1.31972	-18.32492	11.27051
1.32398	-18.19308	11.27051
1.32817	-18.06125	11.27051
1.33236	-17.92941	11.27051
1.33655	-17.92941	11.27051
1.34074	-17.79757	11.27051
1.34492	-17.66574	11.27051
1.34911	-17.55588	11.27051
1.35340	-17.42404	11.27051
1.35760	-17.31418	11.27051
1.36179	-17.31418	11.27051
1.36597	-17.18234	11.27051
1.37016	-17.05050	11.27051
1.37434	-16.91867	11.27051
1.37853	-16.78683	11.27051
1.38278	-16.65500	11.27051
1.38704	-16.54513	11.27051
1.39123	-16.54513	11.27051
1.39541	-16.41330	11.27051
1.39960	-16.30343	11.27051
1.40378	-16.17160	11.27051
1.40797	-16.03976	11.27051
1.41215	-15.90793	11.27051
1.41656	-15.90793	11.27051
1.42076	-15.77609	11.27051
1.42494	-15.64425	11.27051
1.42913	-15.53439	11.27051
1.43331	-15.42453	11.27051
1.43750	-15.31466	11.27051
1.44168	-15.31466	11.27051
1.44609	-15.18283	11.27051
1.45030	-15.05099	11.27051
1.45449	-14.94113	11.27051
1.45867	-14.78732	11.27051
1.46286	-14.67746	11.27051
1.46705	-14.67746	11.27051
1.47123	-14.54562	11.27051
1.47548	-14.45773	11.27051
1.47976	-14.32589	11.27051
1.48396	-14.21603	11.27051
1.48815	-14.08420	11.27051
1.49234	-13.95236	11.27051
1.49652	-13.95236	11.27051
1.50068	-13.84250	11.27051
1.50487	-13.73263	11.27051
1.50917	-13.60080	11.27051
1.51337	-13.46896	11.27051
1.51766	-13.40304	11.27051
1.52185	-13.27121	11.27051
1.52603	-13.27121	11.27051
1.53021	-13.16134	11.27051
1.53440	-13.02951	11.27051
1.53865	-12.91964	11.27051
1.54291	-12.80978	11.27051
1.54710	-12.80978	11.27051
1.55129	-12.69992	11.27051
1.55548	-12.59006	11.27051
1.55966	-12.45822	11.27051
1.56387	-12.37033	11.27051
1.56806	-12.23849	11.27051
1.57237	-12.23849	11.27051
1.57659	-12.15060	11.27051
1.58078	-12.01877	11.27051
1.58497	-11.93088	11.27051
1.58915	-11.82101	11.27051
1.59334	-11.71115	11.27051
1.59752	-11.71115	11.27051
1.60193	-11.60129	11.27051
1.60614	-11.51339	11.27051
1.61033	-11.40353	11.27051
1.61451	-11.31564	11.27051
1.61880	-11.20578	11.27051
1.62298	-11.20578	11.27051
1.62716	-11.11789	11.27051
1.63141	-11.00802	11.27051
1.63568	-10.92013	11.27051
1.63988	-10.81027	11.27051
1.64407	-10.74435	11.27051
1.64825	-10.65646	11.27051
1.65244	-10.65646	11.27051
1.65663	-10.54660	11.27051
1.66082	-10.45871	11.27051
1.66511	-10.34884	11.27051
1.66935	-10.26095	11.27051
1.67356	-10.17306	11.27051
1.67774	-10.17306	11.27051
1.68193	-10.08517	11.27051
1.68611	-9.99728	11.27051
1.69030	-9.93136	11.27051
1.69488	-9.84347	11.27051
1.69911	-9.75558	11.27051
1.70333	-9.66769	11.27051
1.70753	-9.66769	11.27051
1.71173	-9.57980	11.27051
1.71593	-9.49191	11.27051
1.72024	-9.42599	11.27051
1.72453	-9.33810	11.27051
1.72877	-9.29416	11.27051
1.73298	-9.20627	11.27051
1.73717	-9.20627	11.27051
1.74137	-9.11838	11.27051
1.74556	-9.05246	11.27051
1.74975	-8.98654	11.27051
1.75394	-8.92062	11.27051
1.75825	-8.83273	11.27051
1.76246	-8.83273	11.27051
1.76665	-8.76681	11.27051
1.77085	-8.70089	11.27051
1.77504	-8.63498	11.27051
1.77922	-8.56906	11.27051
1.78341	-8.52511	11.27051
1.78784	-8.45920	11.27051
1.79205	-8.45920	11.27051
1.79625	-8.39328	11.27051
1.80044	-8.32736	11.27051
1.80464	-8.28341	11.27051
1.80883	-8.21750	11.27051
1.81302	-8.21750	11.27051
1.81730	-8.15158	11.27051
1.82171	-8.10763	11.27051
1.82590	-8.06369	11.27051
1.83009	-7.99777	11.27051
1.83428	-7.95382	11.27051
1.83847	-7.95382	11.27051
1.84267	-7.88791	11.27051
1.84686	-7.84396	11.27051
1.85117	-7.80002	11.27051
1.85537	-7.75607	11.27051
1.85957	-7.73410	11.27051
1.86376	-7.69015	11.27051
1.86795	-7.69015	11.27051
1.87214	-7.64621	11.27051
1.87634	-7.60226	11.27051
1.88079	-7.55832	11.27051
1.88501	-7.53634	11.27051
1.88920	-7.53634	11.27051
1.89339	-7.49240	11.27051
1.89758	-7.47043	11.27051
1.90177	-7.42648	11.27051
1.90595	-7.40451	11.27051
1.91021	-7.36056	11.27051
1.91447	-7.33859	11.27051
1.91867	-7.33859	11.27051
1.92296	-7.31662	11.27051
1.92715	-7.27267	11.27051
1.93133	-7.25070	11.27051
1.93551	-7.22873	11.27051
1.93970	-7.20675	11.27051
1.94401	-7.20675	11.27051
1.94821	-7.20675	11.27051
1.95240	-7.16281	11.27051
1.95660	-7.16281	11.27051
1.96079	-7.14084	11.27051
1.96497	-7.11886	11.27051
1.96916	-7.09689	11.27051
1.97359	-7.09689	11.27051
1.97781	-7.09689	11.27051
1.98200	-7.07492	11.27051
1.98620	-7.07492	11.27051
1.99039	-7.07492	11.27051
1.99458	-7.05295	11.27051
1.99877	-7.05295	11.27051
2.00304	-7.05295	11.27051
2.00733	-7.03097	11.27051
2.01154	-7.03097	11.27051
2.01573	-7.03097	11.27051
2.01992	-7.03097	11.27051
2.02422	-7.03097	11.27051
2.02841	-7.03097	11.27051
2.03261	-7.03097	11.27051
2.03692	-7.03097	11.27051
2.04112	-7.03097	11.27051
2.04532	-7.03097	11.27051
2.04951	-7.05295	11.27051
2.05370	-7.05295	11.27051
2.05789	-7.05295	11.27051
2.06208	-7.07492	11.27051
2.06650	-7.05295	11.27051
2.07071	-7.07492	11.27051
2.07490	-7.09689	11.27051
2.07909	-7.09689	11.27051
2.08328	-7.09689	11.27051
2.08746	-7.11886	11.27051
2.09165	-7.14084	11.27051
2.09590	-7.16281	11.27051
2.10017	-7.16281	11.27051
2.10436	-7.16281	11.27051
2.10856	-7.20675	11.27051
2.11274	-7.20675	11.27051
2.11694	-7.22873	11.27051
2.12113	-7.25070	11.27051
2.12542	-7.27267	11.27051
2.12973	-7.27267	11.27051
2.13397	-7.29464	11.27051
2.13817	-7.33859	11.27051
2.14237	-7.33859	11.27051
2.14656	-7.38254	11.27051
2.15075	-7.40451	11.27051
2.15495	-7.44845	11.27051
2.15938	-7.44845	11.27051
2.16360	-7.47043	11.27051
2.16780	-7.49240	11.27051
2.17199	-7.53634	11.27051
2.17618	-7.55832	11.27051
2.18038	-7.62423	11.27051
2.18459	-7.62423	11.27051
2.18885	-7.64621	11.27051
2.19315	-7.69015	11.27051
2.19735	-7.73410	11.27051
2.20155	-7.75607	11.27051
2.20574	-7.80002	11.27051
2.20993	-7.84396	11.27051
2.21412	-7.84396	11.27051
2.21831	-7.88791	11.27051
2.22261	-7.93185	11.27051
2.22693	-7.99777	11.27051
2.23112	-8.04172	11.27051
2.23532	-8.04172	11.27051
2.23951	-8.12961	11.27051
2.24370	-8.12961	11.27051
2.24789	-8.17355	11.27051
2.25232	-8.21750	11.27051
2.25658	-8.28341	11.27051
2.26078	-8.32736	11.27051
2.26497	-8.32736	11.27051
2.26915	-8.39328	11.27051
2.27334	-8.43722	11.27051
2.27753	-8.50314	11.27051
2.28179	-8.54709	11.27051
2.28606	-8.59103	11.27051
2.29026	-8.65695	11.27051
2.29445	-8.65695	11.27051
2.29863	-8.70089	11.27051
2.30282	-8.78879	11.27051
2.30701	-8.83273	11.27051
2.31119	-8.89865	11.27051
2.31549	-8.94259	11.27051
2.31970	-8.94259	11.27051
2.32388	-9.03048	11.27051
2.32817	-9.07443	11.27051
2.33236	-9.14035	11.27051
2.33655	-9.22824	11.27051
2.34074	-9.22824	11.27051
2.34516	-9.27218	11.27051
2.34938	-9.33810	11.27051
2.35357	-9.40402	11.27051
2.35776	-9.46994	11.27051
2.36195	-9.55783	11.27051
2.36614	-9.55783	11.27051
2.37033	-9.62375	11.27051
2.37460	-9.68966	11.27051
2.37889	-9.75558	11.27051
2.38310	-9.82150	11.27051
2.38729	-9.88742	11.27051
2.39148	-9.95334	11.27051
2.39567	-9.95334	11.27051
2.39986	-10.01925	11.27051
2.40405	-10.08517	11.27051
2.40836	-10.17306	11.27051
2.41259	-10.23898	11.27051
2.41678	-10.30490	11.27051
2.42098	-10.37082	11.27051
2.42517	-10.37082	11.27051
2.42947	-10.45871	11.27051
2.43366	-10.54660	11.27051
2.43809	-10.61252	11.27051
2.44231	-10.67843	11.27051
2.44650	-10.76632	11.27051
2.45069	-10.76632	11.27051
2.45488	-10.83224	11.27051
2.45906	-10.89816	11.27051
2.46325	-10.96408	11.27051
2.46750	-11.05197	11.27051
2.47177	-11.13986	11.27051
2.47597	-11.13986	11.27051
2.48016	-11.20578	11.27051
2.48434	-11.29367	11.27051
2.48853	-11.35959	11.27051
2.49270	-11.46945	11.27051
2.49690	-11.51339	11.27051
2.50121	-11.60129	11.27051
2.50541	-11.60129	11.27051
2.50960	-11.66720	11.27051
2.51379	-11.75509	11.27051
2.51802	-11.84298	11.27051
2.52221	-11.90890	11.27051
2.52640	-11.99679	11.27051
2.53094	-11.99679	11.27051
2.53516	-12.08468	11.27051
2.53935	-12.15060	11.27051
2.54354	-12.23849	11.27051
2.54773	-12.30441	11.27051
2.55192	-12.39230	11.27051
2.55611	-12.45822	11.27051
2.56037	-12.45822	11.27051
2.56469	-12.56808	11.27051
2.56890	-12.63400	11.27051
2.57309	-12.69992	11.27051
2.57728	-12.80978	11.27051
2.58147	-12.80978	11.27051
2.58566	-12.87570	11.27051
2.58985	-12.96359	11.27051
2.59416	-13.05148	11.27051
2.59837	-13.13937	11.27051
2.60257	-13.20529	11.27051
2.60676	-13.20529	11.27051
2.61095	-13.29318	11.27051
2.61514	-13.38107	11.27051
2.61933	-13.46896	11.27051
2.62360	-13.55685	11.27051
2.62789	-13.62277	11.27051
2.63220	-13.71066	11.27051
2.63639	-13.71066	11.27051
2.64058	-13.77658	11.27051
2.64476	-13.86447	11.27051
2.64895	-13.95236	11.27051
2.65323	-14.04025	11.27051
2.65751	-14.12814	11.27051
2.66170	-14.12814	11.27051
2.66589	-14.19406	11.27051
2.67008	-14.25998	11.27051
2.67426	-14.34787	11.27051
2.67844	-14.43576	11.27051
2.68263	-14.52365	11.27051
2.68693	-14.52365	11.27051
2.69113	-14.58957	11.27051
2.69532	-14.67746	11.27051
2.69950	-14.76535	11.27051
2.70368	-14.83127	11.27051
2.70787	-14.94113	11.27051
2.71205	-14.98507	11.27051
2.71630	-14.98507	11.27051
2.72058	-15.07297	11.27051
2.72477	-15.16086	11.27051
2.72895	-15.24875	11.27051
2.73324	-15.33664	11.27051
2.73742	-15.40256	11.27051
2.74161	-15.40256	11.27051
2.74579	-15.49045	11.27051
2.75008	-15.57834	11.27051
2.75428	-15.62228	11.27051
2.75847	-15.71017	11.27051
2.76265	-15.79806	11.27051
2.76684	-15.79806	11.27051
2.77103	-15.88595	11.27051
2.77521	-15.95187	11.27051
2.77947	-16.03976	11.27051
2.78374	-16.10568	11.27051
2.78794	-16.19357	11.27051
2.79212	-16.19357	11.27051
2.79631	-16.28146	11.27051
2.80049	-16.32541	11.27051
2.80468	-16.41330	11.27051
2.80887	-16.47922	11.27051
2.81316	-16.56711	11.27051
2.81737	-16.63302	11.27051
2.82156	-16.63302	11.27051
2.82574	-16.72091	11.27051
2.82993	-16.80881	11.27051
2.83422	-16.87472	11.27051
2.83840	-16.94064	11.27051
2.84282	-17.02853	11.27051
2.84703	-17.02853	11.27051
2.85123	-17.09445	11.27051
2.85542	-17.16037	11.27051
2.85961	-17.22629	11.27051
2.86380	-17.31418	11.27051
2.86799	-17.31418	11.27051
2.87226	-17.38009	11.27051
2.87656	-17.46798	11.27051
2.88077	-17.53390	11.27051
2.88496	-17.57785	11.27051
2.88914	-17.66574	11.27051
2.89333	-17.73166	11.27051
2.89751	-17.73166	11.27051
2.90170	-17.79757	11.27051
2.90599	-17.86349	11.27051
2.91019	-17.92941	11.27051
2.91437	-17.99533	11.27051
2.91856	-18.06125	11.27051
2.92274	-18.12716	11.27051
2.92693	-18.12716	11.27051
2.93111	-18.17111	11.27051
2.93550	-18.23703	11.27051
2.93975	-18.30295	11.27051
2.94394	-18.36886	11.27051
2.94812	-18.36886	11.27051
2.95231	-18.43478	11.27051
2.95649	-18.50070	11.27051
2.96068	-18.54464	11.27051
2.96486	-18.61056	11.27051
2.96916	-18.67648	11.27051
2.97336	-18.72043	11.27051
2.97755	-18.72043	11.27051
2.98173	-18.78634	11.27051
2.98593	-18.85226	11.27051
2.99011	-18.89621	11.27051
2.99430	-18.94015	11.27051
2.99876	-19.00607	11.27051
3.00297	-19.00607	11.27051
3.00717	-19.05002	11.27051
3.01136	-19.11593	11.27051
3.01555	-19.15988	11.27051
3.01974	-19.20382	11.27051
3.02393	-19.26974	11.27051
3.02821	-19.31369	11.27051
3.03250	-19.31369	11.27051
3.03681	-19.37961	11.27051
3.04100	-19.40158	11.27051
3.04519	-19.46750	11.27051
3.04938	-19.51144	11.27051
3.05357	-19.55539	11.27051
3.05776	-19.59933	11.27051
3.06208	-19.59933	11.27051
3.06630	-19.64328	11.27051
3.07049	-19.68722	11.27051
3.07469	-19.73117	11.27051
3.07888	-19.77511	11.27051
3.08307	-19.77511	11.27051
3.08726	-19.81906	11.27051
3.09170	-19.86300	11.27051
3.09592	-19.88498	11.27051
3.10012	-19.92892	11.27051
3.10431	-19.97287	11.27051
3.10850	-19.97287	11.27051
3.11268	-20.01681	11.27051
3.11688	-20.03879	11.27051
3.12119	-20.08273	11.27051
3.12548	-20.12668	11.27051
3.12969	-20.14865	11.27051
3.13388	-20.14865	11.27051
3.13819	-20.17062	11.27051
3.14238	-20.21457	11.27051
3.14657	-20.23654	11.27051
3.15076	-20.28048	11.27051
3.15507	-20.30246	11.27051
3.15928	-20.32443	11.27051
3.16347	-20.32443	11.27051
3.16767	-20.34640	11.27051
3.17186	-20.36838	11.27051
3.17605	-20.41232	11.27051
3.18024	-20.43429	11.27051
3.18468	-20.43429	11.27051
3.18889	-20.47824	11.27051
3.19308	-20.47824	11.27051
3.19728	-20.47824	11.27051
3.20146	-20.50021	11.27051
3.20565	-20.52218	11.27051
3.20983	-20.54416	11.27051
3.21409	-20.54416	11.27051
3.21837	-20.54416	11.27051
3.22256	-20.56613	11.27051
3.22675	-20.58810	11.27051
3.23093	-20.56613	11.27051
3.23511	-20.58810	11.27051
3.23940	-20.58810	11.27051
3.24359	-20.58810	11.27051
3.24788	-20.58810	11.27051
3.25209	-20.61007	11.27051
3.25628	-20.58810	11.27051
3.26049	-20.61007	11.27051
3.26469	-20.58810	11.27051
3.26888	-20.58810	11.27051
3.27307	-20.58810	11.27051
3.27751	-20.58810	11.27051
3.28173	-20.58810	11.27051
3.28592	-20.56613	11.27051
3.29012	-20.56613	11.27051
3.29431	-20.54416	11.27051
3.29850	-20.54416	11.27051
3.30269	-20.52218	11.27051
3.30696	-20.52218	11.27051
3.31125	-20.52218	11.27051
3.31546	-20.47824	11.27051
3.31965	-20.47824	11.27051
3.32384	-20.47824	11.27051
3.32803	-20.45627	11.27051
3.33222	-20.43429	11.27051
3.33641	-20.41232	11.27051
3.34084	-20.39035	11.27051
3.34503	-20.39035	11.27051
3.34922	-20.39035	11.27051
3.35341	-20.34640	11.27051
3.35760	-20.32443	11.27051
3.36178	-20.30246	11.27051
3.36596	-20.28048	11.27051
3.37038	-20.25851	11.27051
3.37459	-20.25851	11.27051
3.37879	-20.23654	11.27051
3.38298	-20.19259	11.27051
3.38717	-20.17062	11.27051
3.39137	-20.14865	11.27051
3.39556	-20.12668	11.27051
3.39983	-20.08273	11.27051
3.40412	-20.08273	11.27051
3.40832	-20.06076	11.27051
3.41252	-20.03879	11.27051
3.41668	-19.99484	11.27051
3.42087	-19.97287	11.27051
3.42507	-19.97287	11.27051
3.42925	-19.92892	11.27051
3.43356	-19.88498	11.27051
3.43777	-19.88498	11.27051
3.44207	-19.84103	11.27051
3.44626	-19.81906	11.27051
3.45045	-19.77511	11.27051
3.45464	-19.77511	11.27051
3.45883	-19.73117	11.27051
3.46325	-19.70920	11.27051
3.46747	-19.66525	11.27051
3.47166	-19.62131	11.27051
3.47585	-19.59933	11.27051
3.48003	-19.55539	11.27051
3.48422	-19.55539	11.27051
3.48841	-19.53341	11.27051
3.49269	-19.48947	11.27051
3.49697	-19.44552	11.27051
3.50118	-19.42355	11.27051
3.50537	-19.37961	11.27051
3.50955	-19.37961	11.27051
3.51374	-19.33566	11.27051
3.51793	-19.29172	11.27051
3.52211	-19.26974	11.27051
3.52641	-19.22580	11.27051
3.53062	-19.18185	11.27051
3.53481	-19.18185	11.27051
3.53899	-19.13791	11.27051
3.54328	-19.09396	11.27051
3.54746	-19.05002	11.27051
3.55165	-19.00607	11.27051
3.55607	-18.98410	11.27051
3.56029	-18.98410	11.27051
3.56448	-18.94015	11.27051
3.56869	-18.89621	11.27051
3.57288	-18.85226	11.27051
3.57707	-18.80832	11.27051
3.58126	-18.76437	11.27051
3.58553	-18.74240	11.27051
3.58983	-18.74240	11.27051
3.59403	-18.69845	11.27051
3.59822	-18.63254	11.27051
3.60240	-18.61056	11.27051
3.60659	-18.54464	11.27051
3.61077	-18.52267	11.27051
3.61496	-18.52267	11.27051
3.61926	-18.45675	11.27051
3.62346	-18.41281	11.27051
3.62764	-18.39084	11.27051
3.63183	-18.32492	11.27051
3.63602	-18.32492	11.27051
3.64020	-18.28097	11.27051
3.64449	-18.23703	11.27051
3.64893	-18.19308	11.27051
3.65314	-18.14914	11.27051
3.65733	-18.10519	11.27051
3.66152	-18.06125	11.27051
3.66571	-18.06125	11.27051
3.66990	-18.01730	11.27051
3.67409	-17.97336	11.27051
3.67835	-17.92941	11.27051
3.68264	-17.88547	11.27051
3.68684	-17.84152	11.27051
3.69103	-17.81955	11.27051
3.69523	-17.81955	11.27051
3.69942	-17.75363	11.27051
3.70361	-17.70968	11.27051
3.70780	-17.66574	11.27051
3.71211	-17.62179	11.27051
3.71633	-17.57785	11.27051
3.72052	-17.57785	11.27051
3.72468	-17.53390	11.27051
3.72887	-17.48996	11.27051
3.73306	-17.44601	11.27051
3.73725	-17.40207	11.27051
3.74150	-17.35812	11.27051
3.74588	-17.33615	11.27051
3.75007	-17.33615	11.27051
3.75426	-17.29220	11.27051
3.75845	-17.22629	11.27051
3.76263	-17.18234	11.27051
3.76682	-17.16037	11.27051
3.77100	-17.16037	11.27051
3.77530	-17.11642	11.27051
3.77951	-17.07248	11.27051
3.78369	-17.02853	11.27051
3.78788	-16.98459	11.27051
3.79207	-16.94064	11.27051
3.79626	-16.91867	11.27051
3.80044	-16.91867	11.27051
3.80489	-16.85275	11.27051
3.80910	-16.83078	11.27051
3.81329	-16.78683	11.27051
3.81749	-16.74289	11.27051
3.82168	-16.69894	11.27051
3.82587	-16.67697	11.27051
3.83006	-16.67697	11.27051
3.83432	-16.63302	11.27051
3.83862	-16.58908	11.27051
3.84282	-16.54513	11.27051
3.84712	-16.50119	11.27051
3.85132	-16.50119	11.27051
3.85551	-16.45724	11.27051
3.85970	-16.43527	11.27051
3.86389	-16.39132	11.27051
3.86819	-16.34738	11.27051
3.87240	-16.30343	11.27051
3.87660	-16.30343	11.27051
3.88078	-16.28146	11.27051
3.88497	-16.23752	11.27051
3.88916	-16.19357	11.27051
3.89334	-16.14963	11.27051
3.89776	-16.12765	11.27051
3.90199	-16.12765	11.27051
3.90618	-16.08371	11.27051
3.91037	-16.06173	11.27051
3.91456	-16.01779	11.27051
3.91875	-15.99582	11.27051
3.92294	-15.95187	11.27051
3.92720	-15.90793	11.27051
3.93149	-15.90793	11.27051
3.93572	-15.88595	11.27051
3.93992	-15.84201	11.27051
3.94411	-15.79806	11.27051
3.94841	-15.77609	11.27051
3.95261	-15.75412	11.27051
3.95680	-15.75412	11.27051
3.96111	-15.71017	11.27051
3.96532	-15.68820	11.27051
3.96951	-15.64425	11.27051
3.97371	-15.60031	11.27051
3.97790	-15.57834	11.27051
3.98208	-15.57834	11.27051
3.98627	-15.53439	11.27051
3.99069	-15.51242	11.27051
3.99504	-15.49045	11.27051
3.99938	-15.44650	11.27051
4.00361	-15.42453	11.27051
4.00781	-15.38058	11.27051
4.01201	-15.38058	11.27051
4.01620	-15.35861	11.27051
4.02047	-15.31466	11.27051
4.02478	-15.29269	11.27051
4.02898	-15.27072	11.27051
4.03318	-15.22677	11.27051
4.03738	-15.20480	11.27051
4.04157	-15.20480	11.27051
4.04576	-15.18283	11.27051
4.05007	-15.13888	11.27051
4.05438	-15.11691	11.27051
4.05859	-15.07297	11.27051
4.06342	-15.05099	11.27051
4.06763	-15.02902	11.27051
4.07183	-15.02902	11.27051
4.07602	-15.00705	11.27051
4.08022	-14.96310	11.27051
4.08470	-14.94113	11.27051
4.08891	-14.91916	11.27051
4.09310	-14.87521	11.27051
4.09740	-14.85324	11.27051
4.10163	-14.85324	11.27051
4.10583	-14.83127	11.27051
4.11003	-14.80929	11.27051
4.11432	-14.76535	11.27051
4.11862	-14.74338	11.27051
4.12282	-14.72140	11.27051
4.12702	-14.72140	11.27051
4.13121	-14.67746	11.27051
4.13540	-14.67746	11.27051
4.13959	-14.65548	11.27051
4.14387	-14.63351	11.27051
4.14816	-14.63351	11.27051
4.15247	-14.61154	11.27051
4.15667	-14.56759	11.27051
4.16086	-14.54562	11.27051
4.16504	-14.52365	11.27051
4.16923	-14.52365	11.27051
4.17341	-14.47970	11.27051
4.17772	-14.47970	11.27051
4.18192	-14.45773	11.27051
4.18612	-14.45773	11.27051
4.19030	-14.41379	11.27051
4.19449	-14.41379	11.27051
4.19867	-14.36984	11.27051
4.20286	-14.34787	11.27051
4.20731	-14.34787	11.27051
4.21153	-14.34787	11.27051
4.21572	-14.32589	11.27051
4.21992	-14.30392	11.27051
4.22411	-14.28195	11.27051
4.22830	-14.28195	11.27051
4.23249	-14.28195	11.27051
4.23675	-14.25998	11.27051
4.24105	-14.23800	11.27051
4.24525	-14.21603	11.27051
4.24944	-14.21603	11.27051
4.25375	-14.19406	11.27051
4.25797	-14.17209	11.27051
4.26217	-14.17209	11.27051
4.26636	-14.17209	11.27051
4.27068	-14.15011	11.27051
4.27489	-14.12814	11.27051
4.27908	-14.12814	11.27051
4.28327	-14.12814	11.27051
4.28747	-14.10617	11.27051
4.29169	-14.10617	11.27051
4.29589	-14.08420	11.27051
4.30034	-14.06222	11.27051
4.30456	-14.06222	11.27051
4.30876	-14.04025	11.27051
4.31295	-14.04025	11.27051
4.31713	-14.04025	11.27051
4.32132	-14.04025	11.27051
4.32551	-14.01828	11.27051
4.32976	-14.01828	11.27051
4.33403	-13.99631	11.27051
4.33823	-13.99631	11.27051
4.34241	-13.99631	11.27051
4.34660	-13.99631	11.27051
4.35078	-13.99631	11.27051
4.35507	-13.97433	11.27051
4.35926	-13.97433	11.27051
4.36356	-13.97433	11.27051
4.36777	-13.97433	11.27051
4.37196	-13.95236	11.27051
4.37614	-13.95236	11.27051
4.38033	-13.95236	11.27051
4.38451	-13.95236	11.27051
4.38868	-13.95236	11.27051
4.39294	-13.95236	11.27051
4.39721	-13.93039	11.27051
4.40142	-13.95236	11.27051
4.40561	-13.93039	11.27051
4.40980	-13.95236	11.27051
4.41398	-13.95236	11.27051
4.41816	-13.93039	11.27051
4.42235	-13.93039	11.27051
4.42664	-13.93039	11.27051
4.43085	-13.93039	11.27051
4.43503	-13.93039	11.27051
4.43922	-13.93039	11.27051
4.44340	-13.93039	11.27051
4.44759	-13.95236	11.27051
4.45177	-13.93039	11.27051
4.45633	-13.93039	11.27051
4.46054	-13.95236	11.27051
4.46469	-13.93039	11.27051
4.46888	-13.95236	11.27051
4.47307	-13.95236	11.27051
4.47726	-13.95236	11.27051
4.48145	-13.95236	11.27051
4.48572	-13.97433	11.27051
4.49002	-13.95236	11.27051
4.49422	-13.95236	11.27051
4.49841	-13.97433	11.27051
4.50261	-13.97433	11.27051
4.50679	-13.99631	11.27051
4.51098	-13.97433	11.27051
4.51516	-13.99631	11.27051
4.51946	-13.99631	11.27051
4.52366	-13.99631	11.27051
4.52784	-13.99631	11.27051
4.53203	-14.01828	11.27051
4.53622	-14.01828	11.27051
4.54040	-14.01828	11.27051
4.54460	-14.04025	11.27051
4.54901	-14.04025	11.27051
4.55322	-14.04025	11.27051
4.55752	-14.06222	11.27051
4.56171	-14.06222	11.27051
4.56591	-14.08420	11.27051
4.57010	-14.08420	11.27051
4.57429	-14.08420	11.27051
4.57855	-14.08420	11.27051
4.58285	-14.10617	11.27051
4.58705	-14.10617	11.27051
4.59124	-14.12814	11.27051
4.59544	-14.12814	11.27051
4.59963	-14.15011	11.27051
4.60384	-14.15011	11.27051
4.60803	-14.15011	11.27051
4.61235	-14.17209	11.27051
4.61658	-14.17209	11.27051
4.62078	-14.19406	11.27051
4.62497	-14.21603	11.27051
4.62916	-14.21603	11.27051
4.63335	-14.21603	11.27051
4.63754	-14.23800	11.27051
4.64195	-14.25998	11.27051
4.64617	-14.25998	11.27051
4.65036	-14.28195	11.27051
4.65456	-14.28195	11.27051
4.65886	-14.28195	11.27051
4.66305	-14.30392	11.27051
4.66724	-14.30392	11.27051
4.67151	-14.32589	11.27051
4.67581	-14.34787	11.27051
4.68001	-14.34787	11.27051
4.68421	-14.34787	11.27051
4.68840	-14.36984	11.27051
4.69260	-14.36984	11.27051
4.69679	-14.41379	11.27051
4.70098	-14.41379	11.27051
4.70529	-14.41379	11.27051
4.70950	-14.43576	11.27051
4.71369	-14.45773	11.27051
4.71788	-14.45773	11.27051
4.72207	-14.47970	11.27051
4.72626	-14.50168	11.27051
4.73045	-14.50168	11.27051
4.73487	-14.50168	11.27051
4.73908	-14.54562	11.27051
4.74327	-14.54562	11.27051
4.74746	-14.56759	11.27051
4.75165	-14.58957	11.27051
4.75584	-14.61154	11.27051
4.76015	-14.61154	11.27051
4.76442	-14.61154	11.27051
4.76873	-14.63351	11.27051
4.77293	-14.65548	11.27051
4.77713	-14.65548	11.27051
4.78132	-14.69943	11.27051
4.78551	-14.69943	11.27051
4.78970	-14.69943	11.27051
4.79389	-14.72140	11.27051
4.79820	-14.74338	11.27051
4.80242	-14.76535	11.27051
4.80661	-14.78732	11.27051
4.81080	-14.78732	11.27051
4.81499	-14.80929	11.27051
4.81917	-14.80929	11.27051
4.82338	-14.83127	11.27051
4.82783	-14.85324	11.27051
4.83205	-14.87521	11.27051
4.83625	-14.89718	11.27051
4.84045	-14.89718	11.27051
4.84465	-14.91916	11.27051
4.84884	-14.91916	11.27051
4.85303	-14.94113	11.27051
4.85730	-14.96310	11.27051
4.86171	-14.98507	11.27051
4.86592	-15.00705	11.27051
4.87011	-15.00705	11.27051
4.87430	-15.02902	11.27051
4.87849	-15.05099	11.27051
4.88268	-15.05099	11.27051
4.88687	-15.07297	11.27051
4.89118	-15.09494	11.27051
4.89539	-15.09494	11.27051
4.89958	-15.11691	11.27051
4.90379	-15.13888	11.27051
4.90798	-15.16086	11.27051
4.91217	-15.18283	11.27051
4.91636	-15.18283	11.27051
4.92078	-15.20480	11.27051
4.92498	-15.22677	11.27051
4.92917	-15.24875	11.27051
4.93336	-15.24875	11.27051
4.93754	-15.29269	11.27051
4.94173	-15.29269	11.27051
4.94591	-15.29269	11.27051
4.95017	-15.31466	11.27051
4.95444	-15.33664	11.27051
4.95864	-15.35861	11.27051
4.96293	-15.38058	11.27051
4.96711	-15.40256	11.27051
4.97130	-15.42453	11.27051
4.97548	-15.42453	11.27051
4.97967	-15.42453	11.27051
4.98397	-15.44650	11.27051
4.98818	-15.46847	11.27051
4.99236	-15.49045	11.27051
4.99656	-15.51242	11.27051
5.00075	-15.51242	11.27051
5.00495	-15.53439	11.27051
5.00913	-15.55636	11.27051
5.01359	-15.57834	11.27051
5.01782	-15.57834	11.27051
5.02202	-15.62228	11.27051
5.02621	-15.62228	11.27051
5.03040	-15.62228	11.27051
5.03581	-15.66623	11.27051
5.04002	-15.66623	11.27051
5.04446	-15.68820	11.27051
5.04870	-15.71017	11.27051
5.05290	-15.73214	11.27051
5.05709	-15.75412	11.27051
5.06129	-15.75412	11.27051
5.06559	-15.75412	11.27051
5.06978	-15.77609	11.27051
5.07407	-15.79806	11.27051
5.07835	-15.82004	11.27051
5.08256	-15.84201	11.27051
5.08676	-15.86398	11.27051
5.09095	-15.86398	11.27051
5.09514	-15.88595	11.27051
5.09933	-15.88595	11.27051
5.10352	-15.90793	11.27051
5.10784	-15.92990	11.27051
5.11205	-15.95187	11.27051
5.11626	-15.97384	11.27051
5.12047	-15.97384	11.27051
5.12466	-15.99582	11.27051
5.12885	-16.01779	11.27051
5.13303	-16.03976	11.27051
5.13751	-16.03976	11.27051
5.14173	-16.06173	11.27051
5.14592	-16.06173	11.27051
5.15012	-16.08371	11.27051
5.15431	-16.10568	11.27051
5.15850	-16.12765	11.27051
5.16269	-16.14963	11.27051
5.16713	-16.14963	11.27051
5.17141	-16.17160	11.27051
5.17562	-16.19357	11.27051
5.17981	-16.19357	11.27051
5.18400	-16.21554	11.27051
5.18820	-16.23752	11.27051
5.19239	-16.25949	11.27051
5.19659	-16.25949	11.27051
5.20089	-16.25949	11.27051
5.20512	-16.28146	11.27051
5.20931	-16.30343	11.27051
5.21350	-16.32541	11.27051
5.21769	-16.32541	11.27051
5.22188	-16.32541	11.27051
5.22607	-16.36935	11.27051
5.23048	-16.36935	11.27051
5.23471	-16.39132	11.27051
5.23891	-16.41330	11.27051
5.24310	-16.43527	11.27051
5.24729	-16.45724	11.27051
5.25148	-16.45724	11.27051
5.25568	-16.45724	11.27051
5.26002	-16.47922	11.27051
5.26431	-16.50119	11.27051
5.26866	-16.52316	11.27051
5.27285	-16.52316	11.27051
5.27704	-16.54513	11.27051
5.28123	-16.54513	11.27051
5.28541	-16.56711	11.27051
5.28960	-16.58908	11.27051
5.29389	-16.58908	11.27051
5.29809	-16.61105	11.27051
5.30228	-16.61105	11.27051
5.30647	-16.61105	11.27051
5.31066	-16.63302	11.27051
5.31484	-16.65500	11.27051
5.31903	-16.67697	11.27051
5.32328	-16.69894	11.27051
5.32754	-16.69894	11.27051
5.33174	-16.69894	11.27051
5.33593	-16.72091	11.27051
5.34012	-16.72091	11.27051
5.34431	-16.76486	11.27051
5.34849	-16.74289	11.27051
5.35269	-16.78683	11.27051
5.35698	-16.78683	11.27051
5.36118	-16.78683	11.27051
5.36537	-16.78683	11.27051
5.36967	-16.83078	11.27051
5.37385	-16.80881	11.27051
5.37804	-16.83078	11.27051
5.38222	-16.83078	11.27051
5.38662	-16.85275	11.27051
5.39084	-16.87472	11.27051
5.39503	-16.87472	11.27051
5.39922	-16.89670	11.27051
5.40341	-16.91867	11.27051
5.40761	-16.91867	11.27051
5.41181	-16.91867	11.27051
5.41608	-16.94064	11.27051
5.42036	-16.94064	11.27051
5.42458	-16.96261	11.27051
5.42878	-16.96261	11.27051
5.43297	-16.96261	11.27051
5.43716	-16.96261	11.27051
5.44135	-16.98459	11.27051
5.44554	-16.98459	11.27051
5.44984	-16.98459	11.27051
5.45406	-17.00656	11.27051
5.45825	-17.02853	11.27051
5.46244	-17.02853	11.27051
5.46663	-17.02853	11.27051
5.47092	-17.02853	11.27051
5.47511	-17.05050	11.27051
5.47951	-17.05050	11.27051
5.48373	-17.05050	11.27051
5.48793	-17.07248	11.27051
5.49212	-17.07248	11.27051
5.49632	-17.07248	11.27051
5.50051	-17.09445	11.27051
5.50468	-17.09445	11.27051
5.50895	-17.09445	11.27051
5.51323	-17.09445	11.27051
5.51744	-17.09445	11.27051
5.52163	-17.11642	11.27051
5.52582	-17.11642	11.27051
5.53002	-17.11642	11.27051
5.53421	-17.11642	11.27051
5.53840	-17.13839	11.27051
5.54269	-17.13839	11.27051
5.54691	-17.13839	11.27051
5.55109	-17.13839	11.27051
5.55528	-17.13839	11.27051
5.55947	-17.13839	11.27051
5.56365	-17.13839	11.27051
5.56784	-17.16037	11.27051
5.57220	-17.16037	11.27051
5.57644	-17.16037	11.27051
5.58066	-17.16037	11.27051
5.58484	-17.16037	11.27051
5.58903	-17.16037	11.27051
5.59321	-17.16037	11.27051
5.59740	-17.16037	11.27051
5.60158	-17.16037	11.27051
5.60587	-17.16037	11.27051
5.61008	-17.16037	11.27051
5.61427	-17.16037	11.27051
5.61845	-17.16037	11.27051
5.62264	-17.16037	11.27051
5.62682	-17.16037	11.27051
5.63101	-17.16037	11.27051
5.63526	-17.16037	11.27051
5.63953	-17.16037	11.27051
5.64374	-17.16037	11.27051
5.64793	-17.16037	11.27051
5.65214	-17.16037	11.27051
5.65633	-17.16037	11.27051
5.66052	-17.16037	11.27051
5.66468	-17.16037	11.27051
5.66898	-17.16037	11.27051
5.67331	-17.16037	11.27051
5.67750	-17.13839	11.27051
5.68169	-17.16037	11.27051
5.68588	-17.13839	11.27051
5.69006	-17.13839	11.27051
5.69425	-17.13839	11.27051
5.69865	-17.13839	11.27051
5.70288	-17.13839	11.27051
5.70707	-17.13839	11.27051
5.71126	-17.11642	11.27051
5.71545	-17.11642	11.27051
5.71965	-17.09445	11.27051
5.72384	-17.09445	11.27051
5.72811	-17.09445	11.27051
5.73238	-17.09445	11.27051
5.73661	-17.09445	11.27051
5.74081	-17.09445	11.27051
5.74500	-17.07248	11.27051
5.74918	-17.07248	11.27051
5.75338	-17.07248	11.27051
5.75757	-17.05050	11.27051
5.76187	-17.05050	11.27051
5.76608	-17.05050	11.27051
5.77027	-17.02853	11.27051
5.77456	-17.02853	11.27051
5.77875	-17.02853	11.27051
5.78293	-17.00656	11.27051
5.78712	-17.00656	11.27051
5.79154	-16.98459	11.27051
5.79576	-16.98459	11.27051
5.79996	-16.96261	11.27051
5.80415	-16.96261	11.27051
5.80834	-16.96261	11.27051
5.81255	-16.96261	11.27051
5.81674	-16.94064	11.27051
5.82102	-16.94064	11.27051
5.82529	-16.91867	11.27051
5.82950	-16.89670	11.27051
5.83369	-16.89670	11.27051
5.83788	-16.89670	11.27051
5.84208	-16.87472	11.27051
5.84627	-16.87472	11.27051
5.85046	-16.85275	11.27051
5.85475	-16.85275	11.27051
5.85899	-16.85275	11.27051
5.86319	-16.83078	11.27051
5.86738	-16.80881	11.27051
5.87157	-16.78683	11.27051
5.87588	-16.78683	11.27051
5.88007	-16.76486	11.27051
5.88448	-16.74289	11.27051
5.88871	-16.74289	11.27051
5.89290	-16.74289	11.27051
5.89710	-16.72091	11.27051
5.90128	-16.69894	11.27051
5.90547	-16.67697	11.27051
5.90965	-16.67697	11.27051
5.91391	-16.65500	11.27051
5.91817	-16.65500	11.27051
5.92237	-16.63302	11.27051
5.92655	-16.61105	11.27051
5.93074	-16.61105	11.27051
5.93493	-16.61105	11.27051
5.93912	-16.58908	11.27051
5.94330	-16.56711	11.27051
5.94760	-16.54513	11.27051
5.95182	-16.52316	11.27051
5.95601	-16.50119	11.27051
5.96019	-16.50119	11.27051
5.96438	-16.50119	11.27051
5.96858	-16.47922	11.27051
5.97276	-16.45724	11.27051
5.97733	-16.43527	11.27051
5.98156	-16.41330	11.27051
5.98575	-16.39132	11.27051
5.98994	-16.39132	11.27051
5.99413	-16.36935	11.27051
5.99832	-16.36935	11.27051
6.00251	-16.34738	11.27051
6.00682	-16.32541	11.27051
6.01108	-16.30343	11.27051
6.01528	-16.28146	11.27051
6.01948	-16.28146	11.27051
6.02367	-16.25949	11.27051
6.02786	-16.23752	11.27051
6.03205	-16.23752	11.27051
6.03624	-16.21554	11.27051
6.04053	-16.19357	11.27051
6.04471	-16.19357	11.27051
6.04891	-16.17160	11.27051
6.05310	-16.14963	11.27051
6.05729	-16.12765	11.27051
6.06148	-16.10568	11.27051
6.06567	-16.08371	11.27051
6.06994	-16.08371	11.27051
6.07419	-16.06173	11.27051
6.07849	-16.03976	11.27051
6.08268	-16.01779	11.27051
6.08687	-15.99582	11.27051
6.09105	-15.99582	11.27051
6.09524	-15.97384	11.27051
6.09950	-15.97384	11.27051
6.10377	-15.95187	11.27051
6.10798	-15.92990	11.27051
6.11216	-15.90793	11.27051
6.11636	-15.88595	11.27051
6.12057	-15.88595	11.27051
6.12476	-15.84201	11.27051
6.12895	-15.84201	11.27051
6.13325	-15.82004	11.27051
6.13747	-15.79806	11.27051
6.14166	-15.77609	11.27051
6.14584	-15.75412	11.27051
6.15003	-15.75412	11.27051
6.15422	-15.73214	11.27051
6.15841	-15.73214	11.27051
6.16267	-15.71017	11.27051
6.16692	-15.68820	11.27051
6.17112	-15.66623	11.27051
6.17531	-15.66623	11.27051
6.17960	-15.64425	11.27051
6.18379	-15.62228	11.27051
6.18797	-15.60031	11.27051
6.19216	-15.57834	11.27051
6.19645	-15.55636	11.27051
6.20068	-15.55636	11.27051
6.20487	-15.53439	11.27051
6.20905	-15.51242	11.27051
6.21324	-15.49045	11.27051
6.21743	-15.46847	11.27051
6.22161	-15.44650	11.27051
6.22601	-15.42453	11.27051
6.23023	-15.42453	11.27051
6.23443	-15.42453	11.27051
6.23862	-15.40256	11.27051
6.24281	-15.38058	11.27051
6.24700	-15.35861	11.27051
6.25119	-15.33664	11.27051
6.25546	-15.33664	11.27051
6.25978	-15.31466	11.27051
6.26400	-15.31466	11.27051
6.26819	-15.29269	11.27051
6.27239	-15.27072	11.27051
6.27659	-15.24875	11.27051
6.28090	-15.24875	11.27051
6.28509	-15.22677	11.27051
6.28939	-15.20480	11.27051
6.29361	-15.18283	11.27051
6.29780	-15.18283	11.27051
6.30200	-15.16086	11.27051
6.30619	-15.13888	11.27051
6.31039	-15.13888	11.27051
6.31458	-15.11691	11.27051
6.31903	-15.09494	11.27051
6.32323	-15.09494	11.27051
6.32742	-15.07297	11.27051
6.33161	-15.07297	11.27051
6.33579	-15.05099	11.27051
6.33997	-15.05099	11.27051
6.34416	-15.02902	11.27051
6.34841	-15.00705	11.27051
6.35271	-14.98507	11.27051
6.35690	-14.98507	11.27051
6.36109	-14.98507	11.27051
6.36527	-14.96310	11.27051
6.36946	-14.94113	11.27051
6.37364	-14.94113	11.27051
6.37783	-14.91916	11.27051
6.38223	-14.89718	11.27051
6.38643	-14.89718	11.27051
6.39061	-14.89718	11.27051
6.39480	-14.87521	11.27051
6.39898	-14.87521	11.27051
6.40317	-14.85324	11.27051
6.40735	-14.83127	11.27051
6.41177	-14.83127	11.27051
6.41600	-14.83127	11.27051
6.42019	-14.80929	11.27051
6.42437	-14.80929	11.27051
6.42857	-14.78732	11.27051
6.43275	-14.76535	11.27051
6.43694	-14.76535	11.27051
6.44118	-14.76535	11.27051
6.44547	-14.76535	11.27051
6.44967	-14.74338	11.27051
6.45386	-14.74338	11.27051
6.45805	-14.72140	11.27051
6.46223	-14.72140	11.27051
6.46642	-14.72140	11.27051
6.47060	-14.72140	11.27051
6.47490	-14.69943	11.27051
6.47910	-14.69943	11.27051
6.48340	-14.69943	11.27051
6.48758	-14.67746	11.27051
6.49177	-14.67746	11.27051
6.49595	-14.67746	11.27051
6.50013	-14.67746	11.27051
6.50438	-14.65548	11.27051
6.50867	-14.65548	11.27051
6.51287	-14.65548	11.27051
6.51706	-14.65548	11.27051
6.52124	-14.65548	11.27051
6.52543	-14.63351	11.27051
6.52961	-14.65548	11.27051
6.53379	-14.63351	11.27051
6.53809	-14.63351	11.27051
6.54229	-14.63351	11.27051
6.54647	-14.63351	11.27051
6.55066	-14.63351	11.27051
6.55485	-14.61154	11.27051
6.55903	-14.63351	11.27051
6.56321	-14.61154	11.27051
6.56747	-14.61154	11.27051
6.57175	-14.61154	11.27051
6.57595	-14.61154	11.27051
6.58014	-14.61154	11.27051
6.58443	-14.61154	11.27051
6.58863	-14.61154	11.27051
6.59281	-14.61154	11.27051
6.59700	-14.61154	11.27051
6.60130	-14.61154	11.27051
6.60550	-14.61154	11.27051
6.60968	-14.61154	11.27051
6.61402	-14.61154	11.27051
6.61824	-14.61154	11.27051
6.62244	-14.61154	11.27051
6.62663	-14.61154	11.27051
6.63107	-14.61154	11.27051
6.63532	-14.61154	11.27051
6.63972	-14.63351	11.27051
6.64394	-14.61154	11.27051
6.64814	-14.63351	11.27051
6.65233	-14.63351	11.27051
6.65652	-14.63351	11.27051
6.66079	-14.63351	11.27051
6.66508	-14.63351	11.27051
6.66927	-14.65548	11.27051
6.67346	-14.65548	11.27051
6.67765	-14.65548	11.27051
6.68184	-14.65548	11.27051
6.68613	-14.67746	11.27051
6.69041	-14.67746	11.27051
6.69471	-14.67746	11.27051
6.69891	-14.67746	11.27051
6.70310	-14.67746	11.27051
6.70729	-14.69943	11.27051
6.71148	-14.69943	11.27051
6.71567	-14.69943	11.27051
6.71986	-14.72140	11.27051
6.72416	-14.72140	11.27051
6.72836	-14.72140	11.27051
6.73256	-14.72140	11.27051
6.73675	-14.74338	11.27051
6.74093	-14.74338	11.27051
6.74512	-14.76535	11.27051
6.74930	-14.76535	11.27051
6.75355	-14.78732	11.27051
6.75782	-14.78732	11.27051
6.76201	-14.78732	11.27051
6.76620	-14.78732	11.27051
6.77038	-14.80929	11.27051
6.77457	-14.83127	11.27051
6.77875	-14.83127	11.27051
6.78294	-14.83127	11.27051
6.78735	-14.83127	11.27051
6.79155	-14.85324	11.27051
6.79573	-14.85324	11.27051
6.79992	-14.87521	11.27051
6.80410	-14.87521	11.27051
6.80829	-14.89718	11.27051
6.81247	-14.89718	11.27051
6.81690	-14.91916	11.27051
6.82111	-14.91916	11.27051
6.82530	-14.94113	11.27051
6.82948	-14.94113	11.27051
6.83367	-14.96310	11.27051
6.83785	-14.96310	11.27051
6.84204	-14.98507	11.27051
6.84630	-14.98507	11.27051
6.85059	-14.98507	11.27051
6.85479	-15.00705	11.27051
6.85898	-15.02902	11.27051
6.86317	-15.02902	11.27051
6.86736	-15.02902	11.27051
6.87154	-15.05099	11.27051
6.87573	-15.05099	11.27051
6.88003	-15.07297	11.27051
6.88424	-15.09494	11.27051
6.88854	-15.09494	11.27051
6.89268	-15.11691	11.27051
6.89687	-15.11691	11.27051
6.90105	-15.13888	11.27051
6.90524	-15.13888	11.27051
6.90949	-15.16086	11.27051
6.91376	-15.16086	11.27051
6.91796	-15.16086	11.27051
6.92215	-15.18283	11.27051
6.92634	-15.20480	11.27051
6.93052	-15.22677	11.27051
6.93472	-15.22677	11.27051
6.93892	-15.24875	11.27051
6.94322	-15.24875	11.27051
6.94743	-15.27072	11.27051
6.95162	-15.29269	11.27051
6.95581	-15.29269	11.27051
6.96000	-15.31466	11.27051
6.96419	-15.31466	11.27051
6.96837	-15.31466	11.27051
6.97285	-15.35861	11.27051
6.97706	-15.35861	11.27051
6.98125	-15.35861	11.27051
6.98543	-15.40256	11.27051
6.98973	-15.40256	11.27051
6.99391	-15.40256	11.27051
6.99810	-15.42453	11.27051
7.00236	-15.42453	11.27051
7.00663	-15.44650	11.27051
7.01083	-15.46847	11.27051
7.01501	-15.49045	11.27051
7.01920	-15.49045	11.27051
7.02339	-15.49045	11.27051
7.02757	-15.51242	11.27051
7.03176	-15.53439	11.27051
7.03606	-15.53439	11.27051
7.04026	-15.57834	11.27051
7.04445	-15.57834	11.27051
7.04865	-15.57834	11.27051
7.05283	-15.60031	11.27051
7.05702	-15.62228	11.27051
7.06121	-15.64425	11.27051
7.06565	-15.64425	11.27051
7.06986	-15.66623	11.27051
7.07405	-15.68820	11.27051
7.07824	-15.68820	11.27051
7.08243	-15.71017	11.27051
7.08662	-15.71017	11.27051
7.09091	-15.73214	11.27051
7.09517	-15.75412	11.27051
7.09945	-15.75412	11.27051
7.10364	-15.77609	11.27051
7.10783	-15.77609	11.27051
7.11202	-15.79806	11.27051
7.11621	-15.82004	11.27051
7.12039	-15.84201	11.27051
7.12459	-15.86398	11.27051
7.12890	-15.86398	11.27051
7.13310	-15.88595	11.27051
7.13730	-15.90793	11.27051
7.14148	-15.90793	11.27051
7.14567	-15.92990	11.27051
7.14985	-15.95187	11.27051
7.15404	-15.97384	11.27051
7.15829	-15.97384	11.27051
7.16256	-15.99582	11.27051
7.16676	-16.01779	11.27051
7.17094	-16.01779	11.27051
7.17513	-16.03976	11.27051
7.17931	-16.03976	11.27051
7.18350	-16.06173	11.27051
7.18768	-16.08371	11.27051
7.19209	-16.10568	11.27051
7.19629	-16.12765	11.27051
7.20048	-16.14963	11.27051
7.20467	-16.14963	11.27051
7.20886	-16.14963	11.27051
7.21304	-16.17160	11.27051
7.21723	-16.19357	11.27051
7.22166	-16.21554	11.27051
7.22588	-16.23752	11.27051
7.23007	-16.23752	11.27051
7.23426	-16.25949	11.27051
7.23846	-16.25949	11.27051
7.24265	-16.30343	11.27051
7.24684	-16.32541	11.27051
7.25110	-16.32541	11.27051
7.25540	-16.34738	11.27051
7.25960	-16.34738	11.27051
7.26380	-16.36935	11.27051
7.26800	-16.39132	11.27051
7.27220	-16.41330	11.27051
7.27639	-16.41330	11.27051
7.28060	-16.45724	11.27051
7.28491	-16.45724	11.27051
7.28912	-16.45724	11.27051
7.29343	-16.47922	11.27051
7.29762	-16.50119	11.27051
7.30182	-16.52316	11.27051
7.30601	-16.54513	11.27051
7.31020	-16.54513	11.27051
7.31462	-16.56711	11.27051
7.31885	-16.58908	11.27051
7.32304	-16.61105	11.27051
7.32723	-16.63302	11.27051
7.33142	-16.65500	11.27051
7.33562	-16.65500	11.27051
7.33981	-16.65500	11.27051
7.34408	-16.67697	11.27051
7.34836	-16.72091	11.27051
7.35259	-16.72091	11.27051
7.35678	-16.74289	11.27051
7.36098	-16.76486	11.27051
7.36517	-16.78683	11.27051
7.36936	-16.78683	11.27051
7.37354	-16.80881	11.27051
7.37786	-16.83078	11.27051
7.38208	-16.85275	11.27051
7.38628	-16.87472	11.27051
7.39047	-16.87472	11.27051
7.39476	-16.89670	11.27051
7.39895	-16.91867	11.27051
7.40313	-16.91867	11.27051
7.40738	-16.94064	11.27051
7.41165	-16.96261	11.27051
7.41585	-16.98459	11.27051
7.42005	-16.98459	11.27051
7.42424	-17.00656	11.27051
7.42843	-17.02853	11.27051
7.43262	-17.05050	11.27051
7.43681	-17.07248	11.27051
7.44110	-17.07248	11.27051
7.44531	-17.07248	11.27051
7.44950	-17.09445	11.27051
7.45369	-17.11642	11.27051
7.45787	-17.13839	11.27051
7.46206	-17.16037	11.27051
7.46624	-17.16037	11.27051
7.47050	-17.20431	11.27051
7.47475	-17.20431	11.27051
7.47895	-17.22629	11.27051
7.48314	-17.24826	11.27051
7.48732	-17.27023	11.27051
7.49151	-17.29220	11.27051
7.49580	-17.29220	11.27051
7.49998	-17.29220	11.27051
7.50427	-17.31418	11.27051
7.50849	-17.33615	11.27051
7.51270	-17.35812	11.27051
7.51689	-17.38009	11.27051
7.52108	-17.38009	11.27051
7.52529	-17.40207	11.27051
7.52948	-17.42404	11.27051
7.53391	-17.42404	11.27051
7.53814	-17.44601	11.27051
7.54233	-17.46798	11.27051
7.54652	-17.48996	11.27051
7.55071	-17.48996	11.27051
7.55489	-17.51193	11.27051
7.55908	-17.53390	11.27051
7.56334	-17.55588	11.27051
7.56761	-17.55588	11.27051
7.57183	-17.57785	11.27051
7.57602	-17.59982	11.27051
7.58020	-17.59982	11.27051
7.58439	-17.62179	11.27051
7.58859	-17.64377	11.27051
7.59278	-17.64377	11.27051
7.59718	-17.66574	11.27051
7.60139	-17.66574	11.27051
7.60558	-17.68771	11.27051
7.60977	-17.70968	11.27051
7.61395	-17.73166	11.27051
7.61814	-17.73166	11.27051
7.62232	-17.75363	11.27051
7.62658	-17.77560	11.27051
7.63083	-17.77560	11.27051
7.63503	-17.77560	11.27051
7.63922	-17.79757	11.27051
7.64340	-17.79757	11.27051
7.64759	-17.81955	11.27051
7.65177	-17.84152	11.27051
7.65596	-17.84152	11.27051
7.66025	-17.86349	11.27051
7.66446	-17.88547	11.27051
7.66866	-17.88547	11.27051
7.67285	-17.90744	11.27051
7.67703	-17.90744	11.27051
7.68122	-17.90744	11.27051
7.68541	-17.92941	11.27051
7.68966	-17.92941	11.27051
7.69391	-17.95138	11.27051
7.69822	-17.95138	11.27051
7.70241	-17.97336	11.27051
7.70659	-17.97336	11.27051
7.71077	-17.99533	11.27051
7.71496	-17.99533	11.27051
7.71914	-18.01730	11.27051
7.72343	-18.01730	11.27051
7.72764	-18.03927	11.27051
7.73183	-18.03927	11.27051
7.73601	-18.03927	11.27051
7.74020	-18.06125	11.27051
7.74438	-18.06125	11.27051
7.74857	-18.06125	11.27051
7.75283	-18.08322	11.27051
7.75708	-18.10519	11.27051
7.76128	-18.10519	11.27051
7.76547	-18.10519	11.27051
7.76965	-18.10519	11.27051
7.77384	-18.10519	11.27051
7.77802	-18.12716	11.27051
7.78221	-18.12716	11.27051
7.78649	-18.12716	11.27051
7.79070	-18.14914	11.27051
7.79489	-18.14914	11.27051
7.79918	-18.14914	11.27051
7.80337	-18.17111	11.27051
7.80755	-18.17111	11.27051
7.81174	-18.17111	11.27051
7.81615	-18.17111	11.27051
7.82037	-18.17111	11.27051
7.82457	-18.17111	11.27051
7.82876	-18.19308	11.27051
7.83296	-18.19308	11.27051
7.83715	-18.19308	11.27051
7.84134	-18.19308	11.27051
7.84560	-18.19308	11.27051
7.84988	-18.21506	11.27051
7.85408	-18.21506	11.27051
7.85827	-18.21506	11.27051
7.86246	-18.21506	11.27051
7.86666	-18.21506	11.27051
7.87085	-18.21506	11.27051
7.87504	-18.21506	11.27051
7.87934	-18.21506	11.27051
7.88356	-18.21506	11.27051
7.88775	-18.21506	11.27051
7.89194	-18.21506	11.27051
7.89614	-18.21506	11.27051
7.90044	-18.21506	11.27051
7.90464	-18.21506	11.27051
7.90904	-18.21506	11.27051
7.91326	-18.21506	11.27051
7.91746	-18.21506	11.27051
7.92166	-18.21506	11.27051
7.92585	-18.21506	11.27051
7.93004	-18.21506	11.27051
7.93423	-18.21506	11.27051
7.93854	-18.21506	11.27051
7.94284	-18.19308	11.27051
7.94706	-18.19308	11.27051
7.95125	-18.21506	11.27051
7.95544	-18.19308	11.27051
7.95962	-18.19308	11.27051
7.96381	-18.19308	11.27051
7.96800	-18.19308	11.27051
7.97229	-18.19308	11.27051
7.97651	-18.17111	11.27051
7.98069	-18.17111	11.27051
7.98488	-18.17111	11.27051
7.98907	-18.14914	11.27051
7.99325	-18.14914	11.27051
7.99744	-18.17111	11.27051
8.00180	-18.14914	11.27051
8.00604	-18.14914	11.27051
8.01024	-18.12716	11.27051
8.01443	-18.12716	11.27051
8.01861	-18.12716	11.27051
8.02280	-18.12716	11.27051
8.02699	-18.10519	11.27051
8.03117	-18.10519	11.27051
8.03546	-18.08322	11.27051
8.03967	-18.08322	11.27051
8.04385	-18.06125	11.27051
8.04804	-18.06125	11.27051
8.05223	-18.06125	11.27051
8.05641	-18.06125	11.27051
8.06061	-18.03927	11.27051
8.06492	-18.03927	11.27051
8.06919	-18.01730	11.27051
8.07339	-18.01730	11.27051
8.07758	-17.99533	11.27051
8.08178	-17.99533	11.27051
8.08597	-17.97336	11.27051
8.09015	-17.95138	11.27051
8.09434	-17.95138	11.27051
8.09863	-17.95138	11.27051
8.10295	-17.95138	11.27051
8.10713	-17.90744	11.27051
8.11132	-17.88547	11.27051
8.11551	-17.88547	11.27051
8.11969	-17.86349	11.27051
8.12389	-17.86349	11.27051
8.12830	-17.84152	11.27051
8.13253	-17.84152	11.27051
8.13669	-17.81955	11.27051
8.14088	-17.81955	11.27051
8.14506	-17.79757	11.27051
8.14925	-17.77560	11.27051
8.15343	-17.75363	11.27051
8.15769	-17.75363	11.27051
8.16196	-17.75363	11.27051
8.16617	-17.70968	11.27051
8.17036	-17.70968	11.27051
8.17455	-17.68771	11.27051
8.17873	-17.66574	11.27051
8.18291	-17.66574	11.27051
8.18710	-17.64377	11.27051
8.19139	-17.64377	11.27051
8.19560	-17.62179	11.27051
8.19979	-17.59982	11.27051
8.20408	-17.57785	11.27051
8.20827	-17.57785	11.27051
8.21245	-17.55588	11.27051
8.21664	-17.53390	11.27051
8.22089	-17.51193	11.27051
8.22514	-17.48996	11.27051
8.22934	-17.48996	11.27051
8.23353	-17.48996	11.27051
8.23772	-17.46798	11.27051
8.24190	-17.44601	11.27051
8.24609	-17.42404	11.27051
8.25027	-17.40207	11.27051
8.25456	-17.40207	11.27051
8.25877	-17.38009	11.27051
8.26296	-17.35812	11.27051
8.26716	-17.33615	11.27051
8.27135	-17.31418	11.27051
8.27554	-17.29220	11.27051
8.27972	-17.27023	11.27051
8.28417	-17.27023	11.27051
8.28838	-17.24826	11.27051
8.29263	-17.22629	11.27051
8.29682	-17.22629	11.27051
8.30101	-17.20431	11.27051
8.30530	-17.18234	11.27051
8.30949	-17.13839	11.27051
8.31375	-17.13839	11.27051
8.31801	-17.13839	11.27051
8.32222	-17.11642	11.27051
8.32641	-17.09445	11.27051
8.33060	-17.07248	11.27051
8.33479	-17.05050	11.27051
8.33897	-17.05050	11.27051
8.34316	-17.02853	11.27051
8.34745	-17.00656	11.27051
8.35166	-16.98459	11.27051
8.35585	-16.96261	11.27051
8.36003	-16.94064	11.27051
8.36422	-16.94064	11.27051
8.36840	-16.91867	11.27051
8.37260	-16.89670	11.27051
8.37685	-16.87472	11.27051
8.38111	-16.83078	11.27051
8.38531	-16.83078	11.27051
8.38950	-16.80881	11.27051
8.39368	-16.80881	11.27051
8.39786	-16.76486	11.27051
8.40205	-16.76486	11.27051
8.40634	-16.74289	11.27051
8.41062	-16.69894	11.27051
8.41483	-16.67697	11.27051
8.41902	-16.67697	11.27051
8.42321	-16.65500	11.27051
8.42740	-16.63302	11.27051
8.43158	-16.61105	11.27051
8.43577	-16.58908	11.27051
8.44016	-16.56711	11.27051
8.44438	-16.54513	11.27051
8.44859	-16.54513	11.27051
8.45278	-16.52316	11.27051
8.45698	-16.50119	11.27051
8.46117	-16.47922	11.27051
8.46536	-16.43527	11.27051
8.46962	-16.43527	11.27051
8.47389	-16.41330	11.27051
8.47810	-16.39132	11.27051
8.48230	-16.36935	11.27051
8.48649	-16.34738	11.27051
8.49068	-16.32541	11.27051
8.49487	-16.32541	11.27051
8.49906	-16.30343	11.27051
8.50336	-16.28146	11.27051
8.50769	-16.25949	11.27051
8.51188	-16.23752	11.27051
8.51608	-16.21554	11.27051
8.52027	-16.19357	11.27051
8.52446	-16.19357	11.27051
8.52867	-16.17160	11.27051
8.53308	-16.14963	11.27051
8.53730	-16.10568	11.27051
8.54149	-16.08371	11.27051
8.54568	-16.06173	11.27051
8.54987	-16.06173	11.27051
8.55406	-16.03976	11.27051
8.55825	-16.03976	11.27051
8.56250	-16.01779	11.27051
8.56676	-15.99582	11.27051
8.57095	-15.95187	11.27051
8.57514	-15.95187	11.27051
8.57933	-15.95187	11.27051
8.58352	-15.90793	11.27051
8.58770	-15.90793	11.27051
8.59189	-15.86398	11.27051
8.59618	-15.84201	11.27051
8.60040	-15.82004	11.27051
8.60461	-15.82004	11.27051
8.60890	-15.79806	11.27051
8.61308	-15.77609	11.27051
8.61727	-15.75412	11.27051
8.62145	-15.73214	11.27051
8.62588	-15.71017	11.27051
8.63010	-15.71017	11.27051
8.63429	-15.68820	11.27051
8.63849	-15.66623	11.27051
8.64267	-15.64425	11.27051
8.64686	-15.62228	11.27051
8.65105	-15.60031	11.27051
8.65532	-15.57834	11.27051
8.65960	-15.57834	11.27051
8.66381	-15.57834	11.27051
8.66801	-15.53439	11.27051
8.67220	-15.51242	11.27051
8.67639	-15.49045	11.27051
8.68059	-15.49045	11.27051
8.68478	-15.49045	11.27051
8.68908	-15.46847	11.27051
8.69329	-15.44650	11.27051
8.69749	-15.42453	11.27051
8.70168	-15.40256	11.27051
8.70587	-15.38058	11.27051
8.71018	-15.38058	11.27051
8.71437	-15.35861	11.27051
8.71863	-15.33664	11.27051
8.72289	-15.31466	11.27051
8.72709	-15.29269	11.27051
8.73129	-15.27072	11.27051
8.73548	-15.27072	11.27051
8.73968	-15.27072	11.27051
8.74387	-15.24875	11.27051
8.74806	-15.22677	11.27051
8.75236	-15.20480	11.27051
8.75658	-15.18283	11.27051
8.76078	-15.18283	11.27051
8.76497	-15.16086	11.27051
8.76916	-15.13888	11.27051
8.77334	-15.13888	11.27051
8.77753	-15.11691	11.27051
8.78196	-15.09494	11.27051
8.78618	-15.09494	11.27051
8.79038	-15.07297	11.27051
8.79457	-15.05099	11.27051
8.79876	-15.05099	11.27051
8.80296	-15.02902	11.27051
8.80715	-15.00705	11.27051
8.81156	-14.98507	11.27051
8.81583	-14.98507	11.27051
8.82004	-14.98507	11.27051
8.82423	-14.96310	11.27051
8.82842	-14.94113	11.27051
8.83262	-14.94113	11.27051
8.83682	-14.91916	11.27051
8.84101	-14.91916	11.27051
8.84530	-14.89718	11.27051
8.84952	-14.87521	11.27051
8.85372	-14.87521	11.27051
8.85791	-14.85324	11.27051
8.86210	-14.85324	11.27051
8.86629	-14.83127	11.27051
8.87048	-14.83127	11.27051
8.87490	-14.80929	11.27051
8.87912	-14.80929	11.27051
8.88331	-14.78732	11.27051
8.88751	-14.76535	11.27051
8.89170	-14.76535	11.27051
8.89589	-14.76535	11.27051
8.90008	-14.76535	11.27051
8.90433	-14.74338	11.27051
8.90862	-14.72140	11.27051
8.91295	-14.72140	11.27051
8.91714	-14.69943	11.27051
8.92133	-14.69943	11.27051
8.92552	-14.67746	11.27051
8.92970	-14.67746	11.27051
8.93388	-14.67746	11.27051
8.93818	-14.65548	11.27051
8.94240	-14.65548	11.27051
8.94659	-14.63351	11.27051
8.95078	-14.63351	11.27051
8.95497	-14.63351	11.27051
8.95915	-14.63351	11.27051
8.96334	-14.61154	11.27051
8.96760	-14.61154	11.27051
8.97185	-14.58957	11.27051
8.97605	-14.58957	11.27051
8.98024	-14.58957	11.27051
8.98443	-14.58957	11.27051
8.98863	-14.56759	11.27051
8.99281	-14.56759	11.27051
8.99699	-14.56759	11.27051
9.00128	-14.56759	11.27051
9.00549	-14.56759	11.27051
9.00968	-14.54562	11.27051
9.01397	-14.54562	11.27051
9.01816	-14.54562	11.27051
9.02234	-14.54562	11.27051
9.02653	-14.52365	11.27051
9.03094	-14.54562	11.27051
9.03516	-14.52365	11.27051
9.03938	-14.52365	11.27051
9.04358	-14.52365	11.27051
9.04778	-14.52365	11.27051
9.05198	-14.52365	11.27051
9.05617	-14.52365	11.27051
9.06050	-14.52365	11.27051
9.06479	-14.52365	11.27051
9.06900	-14.52365	11.27051
9.07319	-14.52365	11.27051
9.07739	-14.52365	11.27051
9.08158	-14.52365	11.27051
9.08578	-14.52365	11.27051
9.08997	-14.52365	11.27051
9.09428	-14.52365	11.27051
9.09850	-14.52365	11.27051
9.10269	-14.52365	11.27051
9.10688	-14.52365	11.27051
9.11107	-14.52365	11.27051
9.11539	-14.52365	11.27051
9.11958	-14.52365	11.27051
9.12399	-14.52365	11.27051
9.12822	-14.52365	11.27051
9.13243	-14.54562	11.27051
9.13663	-14.54562	11.27051
9.14082	-14.52365	11.27051
9.14502	-14.54562	11.27051
9.14921	-14.54562	11.27051
9.15348	-14.54562	11.27051
9.15775	-14.54562	11.27051
9.16195	-14.54562	11.27051
9.16614	-14.56759	11.27051
9.17033	-14.56759	11.27051
9.17452	-14.56759	11.27051
9.17870	-14.56759	11.27051
9.18289	-14.58957	11.27051
9.18718	-14.58957	11.27051
9.19139	-14.58957	11.27051
9.19558	-14.58957	11.27051
9.19977	-14.61154	11.27051
9.20395	-14.61154	11.27051
9.20814	-14.61154	11.27051
9.21232	-14.63351	11.27051
9.21670	-14.63351	11.27051
9.22094	-14.63351	11.27051
9.22513	-14.63351	11.27051
9.22932	-14.65548	11.27051
9.23351	-14.65548	11.27051
9.23770	-14.65548	11.27051
9.24188	-14.65548	11.27051
9.24606	-14.67746	11.27051
9.25036	-14.69943	11.27051
9.25456	-14.69943	11.27051
9.25875	-14.69943	11.27051
9.26294	-14.69943	11.27051
9.26714	-14.72140	11.27051
9.27133	-14.74338	11.27051
9.27551	-14.74338	11.27051
9.27996	-14.76535	11.27051
9.28418	-14.76535	11.27051
9.28838	-14.78732	11.27051
9.29257	-14.78732	11.27051
9.29676	-14.78732	11.27051
9.30095	-14.80929	11.27051
9.30513	-14.83127	11.27051
9.30940	-14.83127	11.27051
9.31368	-14.85324	11.27051
9.31799	-14.85324	11.27051
9.32218	-14.87521	11.27051
9.32636	-14.87521	11.27051
9.33055	-14.89718	11.27051
9.33474	-14.89718	11.27051
9.33893	-14.91916	11.27051
9.34322	-14.91916	11.27051
9.34744	-14.94113	11.27051
9.35163	-14.96310	11.27051
9.35582	-14.96310	11.27051
9.36000	-15.00705	11.27051
9.36419	-15.00705	11.27051
9.36837	-15.02902	11.27051
9.37264	-15.02902	11.27051
9.37690	-15.05099	11.27051
9.38110	-15.05099	11.27051
9.38529	-15.07297	11.27051
9.38948	-15.09494	11.27051
9.39366	-15.11691	11.27051
9.39785	-15.11691	11.27051
9.40203	-15.13888	11.27051
9.40632	-15.13888	11.27051
9.41053	-15.16086	11.27051
9.41472	-15.18283	11.27051
9.41902	-15.20480	11.27051
9.42320	-15.20480	11.27051
9.42739	-15.22677	11.27051
9.43157	-15.24875	11.27051
9.43598	-15.24875	11.27051
9.44020	-15.27072	11.27051
9.44439	-15.29269	11.27051
9.44860	-15.29269	11.27051
9.45279	-15.31466	11.27051
9.45698	-15.33664	11.27051
9.46117	-15.35861	11.27051
9.46543	-15.38058	11.27051
9.46971	-15.40256	11.27051
9.47392	-15.40256	11.27051
9.47811	-15.40256	11.27051
9.48230	-15.44650	11.27051
9.48649	-15.46847	11.27051
9.49068	-15.49045	11.27051
9.49487	-15.49045	11.27051
9.49918	-15.51242	11.27051
9.50340	-15.51242	11.27051
9.50759	-15.53439	11.27051
9.51178	-15.55636	11.27051
9.51598	-15.60031	11.27051
9.52028	-15.60031	11.27051
9.52447	-15.60031	11.27051
9.52895	-15.62228	11.27051
9.53318	-15.64425	11.27051
9.53738	-15.68820	11.27051
9.54157	-15.68820	11.27051
9.54576	-15.71017	11.27051
9.54995	-15.73214	11.27051
9.55414	-15.73214	11.27051
9.55841	-15.75412	11.27051
9.56267	-15.77609	11.27051
9.56687	-15.79806	11.27051
9.57106	-15.82004	11.27051
9.57525	-15.84201	11.27051
9.57943	-15.86398	11.27051
9.58362	-15.86398	11.27051
9.58781	-15.88595	11.27051
9.59211	-15.90793	11.27051
9.59632	-15.92990	11.27051
9.60051	-15.95187	11.27051
9.60468	-15.97384	11.27051
9.60887	-15.97384	11.27051
9.61305	-15.99582	11.27051
9.61724	-16.01779	11.27051
9.62160	-16.03976	11.27051
9.62585	-16.06173	11.27051
9.63004	-16.08371	11.27051
9.63423	-16.10568	11.27051
9.63843	-16.10568	11.27051
9.64261	-16.12765	11.27051
9.64680	-16.14963	11.27051
9.65098	-16.17160	11.27051
9.65527	-16.19357	11.27051
9.65948	-16.19357	11.27051
9.66368	-16.21554	11.27051
9.66786	-16.21554	11.27051
9.67205	-16.25949	11.27051
9.67623	-16.25949	11.27051
9.68042	-16.28146	11.27051
9.68468	-16.30343	11.27051
9.68893	-16.30343	11.27051
9.69313	-16.32541	11.27051
9.69732	-16.36935	11.27051
9.70150	-16.36935	11.27051
9.70569	-16.39132	11.27051
9.70987	-16.41330	11.27051
9.71406	-16.41330	11.27051
9.71835	-16.41330	11.27051
9.72267	-16.45724	11.27051
9.72685	-16.47922	11.27051
9.73104	-16.47922	11.27051
9.73523	-16.50119	11.27051
9.73942	-16.50119	11.27051
9.74360	-16.52316	11.27051
9.74802	-16.54513	11.27051
9.75224	-16.56711	11.27051
9.75643	-16.58908	11.27051
9.76063	-16.58908	11.27051
9.76483	-16.58908	11.27051
9.76902	-16.63302	11.27051
9.77321	-16.63302	11.27051
9.77747	-16.65500	11.27051
9.78175	-16.67697	11.27051
9.78595	-16.69894	11.27051
9.79014	-16.69894	11.27051
9.79433	-16.72091	11.27051
9.79852	-16.72091	11.27051
9.80271	-16.74289	11.27051
9.80690	-16.76486	11.27051
9.81120	-16.78683	11.27051
9.81542	-16.78683	11.27051
9.81962	-16.80881	11.27051
9.82392	-16.80881	11.27051
9.82811	-16.83078	11.27051
9.83230	-16.85275	11.27051
9.83649	-16.85275	11.27051
9.84090	-16.87472	11.27051
9.84512	-16.87472	11.27051
9.84931	-16.89670	11.27051
9.85351	-16.91867	11.27051
9.85770	-16.91867	11.27051
9.86189	-16.94064	11.27051
9.86608	-16.96261	11.27051
9.87034	-16.96261	11.27051
9.87462	-16.96261	11.27051
9.87882	-16.98459	11.27051
9.88302	-17.00656	11.27051
9.88721	-17.00656	11.27051
9.89139	-17.02853	11.27051
9.89558	-17.05050	11.27051
9.89976	-17.05050	11.27051
9.90405	-17.05050	11.27051
9.90826	-17.07248	11.27051
9.91245	-17.09445	11.27051
9.91664	-17.09445	11.27051
9.92083	-17.11642	11.27051
9.92512	-17.11642	11.27051
9.92930	-17.11642	11.27051
9.93355	-17.11642	11.27051
9.93782	-17.16037	11.27051
9.94202	-17.16037	11.27051
9.94621	-17.18234	11.27051
9.95040	-17.18234	11.27051
9.95459	-17.18234	11.27051
9.95878	-17.20431	11.27051
9.96296	-17.20431	11.27051
9.96726	-17.20431	11.27051
9.97147	-17.22629	11.27051
9.97566	-17.22629	11.27051
9.97984	-17.22629	11.27051
9.98403	-17.24826	11.27051
9.98822	-17.24826	11.27051
9.99240	-17.27023	11.27051
9.99668	-17.27023	11.27051
10.00093	-17.27023	11.27051
10.00513	-17.27023	11.27051
10.00932	-17.29220	11.27051
10.01351	-17.29220	11.27051
10.01770	-17.31418	11.27051
10.02188	-17.31418	11.27051
10.02617	-17.31418	11.27051
10.03046	-17.31418	11.27051
10.03467	-17.33615	11.27051
10.03885	-17.33615	11.27051
10.04305	-17.35812	11.27051
10.04724	-17.35812	11.27051
10.05142	-17.35812	11.27051
10.05561	-17.35812	11.27051
10.06001	-17.35812	11.27051
10.06424	-17.35812	11.27051
10.06843	-17.38009	11.27051
10.07263	-17.38009	11.27051
10.07682	-17.40207	11.27051
10.08102	-17.40207	11.27051
10.08521	-17.38009	11.27051
10.08949	-17.40207	11.27051
10.09377	-17.40207	11.27051
10.09799	-17.40207	11.27051
10.10219	-17.40207	11.27051
10.10638	-17.40207	11.27051
10.11057	-17.40207	11.27051
10.11476	-17.42404	11.27051
10.11896	-17.42404	11.27051
10.12325	-17.42404	11.27051
10.12758	-17.42404	11.27051
10.13178	-17.42404	11.27051
10.13597	-17.42404	11.27051
10.14016	-17.42404	11.27051
10.14436	-17.42404	11.27051
10.14856	-17.42404	11.27051
10.15283	-17.42404	11.27051
10.15709	-17.42404	11.27051
10.16129	-17.42404	11.27051
10.16548	-17.42404	11.27051
10.16968	-17.42404	11.27051
10.17387	-17.42404	11.27051
10.17806	-17.42404	11.27051
10.18225	-17.42404	11.27051
10.18655	-17.42404	11.27051
10.19076	-17.42404	11.27051
10.19496	-17.42404	11.27051
10.19914	-17.42404	11.27051
10.20333	-17.40207	11.27051
10.20751	-17.40207	11.27051
10.21170	-17.40207	11.27051
10.21611	-17.40207	11.27051
10.22034	-17.40207	11.27051
10.22453	-17.40207	11.27051
10.22880	-17.40207	11.27051
10.23300	-17.40207	11.27051
10.23719	-17.38009	11.27051
10.24138	-17.38009	11.27051
10.24565	-17.38009	11.27051
10.24993	-17.38009	11.27051
10.25414	-17.35812	11.27051
10.25837	-17.35812	11.27051
10.26258	-17.35812	11.27051
10.26679	-17.35812	11.27051
10.27099	-17.35812	11.27051
10.27518	-17.35812	11.27051
10.27950	-17.33615	11.27051
10.28372	-17.33615	11.27051
10.28792	-17.33615	11.27051
10.29211	-17.33615	11.27051
10.29630	-17.33615	11.27051
10.30049	-17.31418	11.27051
10.30468	-17.31418	11.27051
10.30896	-17.29220	11.27051
10.31323	-17.29220	11.27051
10.31744	-17.29220	11.27051
10.32163	-17.29220	11.27051
10.32582	-17.27023	11.27051
10.33013	-17.27023	11.27051
10.33432	-17.24826	11.27051
10.33857	-17.24826	11.27051
10.34286	-17.22629	11.27051
10.34707	-17.22629	11.27051
10.35126	-17.22629	11.27051
10.35544	-17.20431	11.27051
10.35963	-17.20431	11.27051
10.36381	-17.20431	11.27051
10.36800	-17.18234	11.27051
10.37230	-17.18234	11.27051
10.37651	-17.16037	11.27051
10.38069	-17.16037	11.27051
10.38488	-17.13839	11.27051
10.38907	-17.13839	11.27051
10.39325	-17.11642	11.27051
10.39744	-17.11642	11.27051
10.40168	-17.11642	11.27051
10.40593	-17.09445	11.27051
10.41013	-17.07248	11.27051
10.41432	-17.07248	11.27051
10.41850	-17.05050	11.27051
10.42269	-17.05050	11.27051
10.42688	-17.02853	11.27051
10.43117	-17.02853	11.27051
10.43547	-17.00656	11.27051
10.43968	-17.00656	11.27051
10.44387	-16.98459	11.27051
10.44805	-16.96261	11.27051
10.45224	-16.96261	11.27051
10.45643	-16.94064	11.27051
10.46062	-16.94064	11.27051
10.46502	-16.91867	11.27051
10.46924	-16.89670	11.27051
10.47343	-16.89670	11.27051
10.47762	-16.87472	11.27051
10.48180	-16.87472	11.27051
10.48599	-16.85275	11.27051
10.49017	-16.85275	11.27051
10.49444	-16.83078	11.27051
10.49872	-16.80881	11.27051
10.50292	-16.78683	11.27051
10.50711	-16.78683	11.27051
10.51129	-16.78683	11.27051
10.51548	-16.76486	11.27051
10.51966	-16.74289	11.27051
10.52385	-16.74289	11.27051
10.52815	-16.69894	11.27051
10.53246	-16.69894	11.27051
10.53666	-16.69894	11.27051
10.54084	-16.67697	11.27051
10.54504	-16.67697	11.27051
10.54922	-16.65500	11.27051
10.55340	-16.65500	11.27051
10.55766	-16.63302	11.27051
10.56194	-16.61105	11.27051
10.56613	-16.58908	11.27051
10.57032	-16.58908	11.27051
10.57451	-16.56711	11.27051
10.57869	-16.54513	11.27051
10.58288	-16.54513	11.27051
10.58717	-16.52316	11.27051
10.59152	-16.50119	11.27051
10.59574	-16.50119	11.27051
10.59993	-16.47922	11.27051
10.60412	-16.45724	11.27051
10.60831	-16.43527	11.27051
10.61250	-16.43527	11.27051
10.61669	-16.43527	11.27051
10.62108	-16.41330	11.27051
10.62532	-16.39132	11.27051
10.62951	-16.36935	11.27051
10.63380	-16.34738	11.27051
10.63799	-16.34738	11.27051
10.64217	-16.34738	11.27051
10.64636	-16.32541	11.27051
10.65063	-16.30343	11.27051
10.65490	-16.30343	11.27051
10.65909	-16.28146	11.27051
10.66328	-16.28146	11.27051
10.66747	-16.25949	11.27051
10.67166	-16.23752	11.27051
10.67584	-16.21554	11.27051
10.68003	-16.21554	11.27051
10.68433	-16.19357	11.27051
10.68853	-16.17160	11.27051
10.69268	-16.17160	11.27051
10.69687	-16.14963	11.27051
10.70105	-16.12765	11.27051
10.70524	-16.10568	11.27051
10.70943	-16.10568	11.27051
10.71368	-16.08371	11.27051
10.71796	-16.08371	11.27051
10.72215	-16.06173	11.27051
10.72633	-16.06173	11.27051
10.73052	-16.03976	11.27051
10.73481	-16.01779	11.27051
10.73899	-15.99582	11.27051
10.74318	-15.99582	11.27051
10.74748	-15.97384	11.27051
10.75168	-15.97384	11.27051
10.75586	-15.95187	11.27051
10.76005	-15.92990	11.27051
10.76423	-15.90793	11.27051
10.76842	-15.90793	11.27051
10.77262	-15.90793	11.27051
10.77688	-15.88595	11.27051
10.78115	-15.86398	11.27051
10.78535	-15.86398	11.27051
10.78953	-15.82004	11.27051
10.79372	-15.82004	11.27051
10.79790	-15.82004	11.27051
10.80209	-15.79806	11.27051
10.80627	-15.79806	11.27051
10.81063	-15.77609	11.27051
10.81486	-15.77609	11.27051
10.81905	-15.73214	11.27051
10.82324	-15.73214	11.27051
10.82743	-15.73214	11.27051
10.83162	-15.71017	11.27051
10.83591	-15.68820	11.27051
10.84047	-15.68820	11.27051
10.84476	-15.66623	11.27051
10.84900	-15.66623	11.27051
10.85320	-15.64425	11.27051
10.85741	-15.64425	11.27051
10.86160	-15.62228	11.27051
10.86580	-15.60031	11.27051
10.87009	-15.57834	11.27051
10.87437	-15.57834	11.27051
10.87857	-15.57834	11.27051
10.88277	-15.55636	11.27051
10.88696	-15.53439	11.27051
10.89116	-15.53439	11.27051
10.89535	-15.51242	11.27051
10.89954	-15.51242	11.27051
10.90385	-15.49045	11.27051
10.90807	-15.49045	11.27051
10.91226	-15.46847	11.27051
10.91645	-15.46847	11.27051
10.92065	-15.44650	11.27051
10.92484	-15.42453	11.27051
10.92902	-15.42453	11.27051
10.93346	-15.42453	11.27051
10.93779	-15.40256	11.27051
10.94198	-15.40256	11.27051
10.94616	-15.38058	11.27051
10.95035	-15.38058	11.27051
10.95454	-15.35861	11.27051
10.95873	-15.35861	11.27051
10.96299	-15.33664	11.27051
10.96726	-15.33664	11.27051
10.97145	-15.31466	11.27051
10.97564	-15.31466	11.27051
10.97983	-15.29269	11.27051
10.98402	-15.29269	11.27051
10.98820	-15.29269	11.27051
10.99239	-15.27072	11.27051
10.99670	-15.27072	11.27051
11.00092	-15.24875	11.27051
11.00512	-15.22677	11.27051
11.00931	-15.22677	11.27051
11.01350	-15.22677	11.27051
11.01768	-15.20480	11.27051
11.02187	-15.20480	11.27051
11.02635	-15.20480	11.27051
11.03057	-15.18283	11.27051
11.03476	-15.18283	11.27051
11.03905	-15.16086	11.27051
11.04324	-15.16086	11.27051
11.04743	-15.16086	11.27051
11.05162	-15.13888	11.27051
11.05588	-15.13888	11.27051
11.06014	-15.13888	11.27051
11.06435	-15.11691	11.27051
11.06855	-15.11691	11.27051
11.07274	-15.09494	11.27051
11.07693	-15.09494	11.27051
11.08112	-15.09494	11.27051
11.08530	-15.07297	11.27051
11.08961	-15.07297	11.27051
11.09381	-15.07297	11.27051
11.09800	-15.05099	11.27051
11.10219	-15.05099	11.27051
11.10638	-15.05099	11.27051
11.11057	-15.05099	11.27051
11.11475	-15.02902	11.27051
11.11925	-15.02902	11.27051
11.12346	-15.02902	11.27051
11.12765	-15.00705	11.27051
11.13185	-15.00705	11.27051
11.13604	-15.00705	11.27051
11.14033	-15.00705	11.27051
11.14452	-14.98507	11.27051
11.14878	-14.98507	11.27051
11.15307	-14.98507	11.27051
11.15728	-14.96310	11.27051
11.16148	-14.98507	11.27051
11.16568	-14.96310	11.27051
11.16987	-14.96310	11.27051
11.17407	-14.96310	11.27051
11.17887	-14.96310	11.27051
11.18323	-14.96310	11.27051
11.18746	-14.94113	11.27051
11.19166	-14.94113	11.27051
11.19587	-14.94113	11.27051
11.20008	-14.94113	11.27051
11.20428	-14.94113	11.27051
11.20848	-14.94113	11.27051
11.21296	-14.94113	11.27051
11.21717	-14.91916	11.27051
11.22136	-14.91916	11.27051
11.22554	-14.91916	11.27051
11.22973	-14.91916	11.27051
11.23392	-14.91916	11.27051
11.23810	-14.91916	11.27051
11.24252	-14.91916	11.27051
11.24680	-14.91916	11.27051
11.25100	-14.91916	11.27051
11.25518	-14.91916	11.27051
11.25936	-14.91916	11.27051
11.26354	-14.91916	11.27051
11.26774	-14.91916	11.27051
11.27192	-14.91916	11.27051
11.27621	-14.91916	11.27051
11.28041	-14.91916	11.27051
11.28460	-14.91916	11.27051
11.28877	-14.91916	11.27051
11.29294	-14.91916	11.27051
11.29712	-14.89718	11.27051
11.30129	-14.89718	11.27051
11.30565	-14.91916	11.27051
11.30984	-14.91916	11.27051
11.31402	-14.91916	11.27051
11.31819	-14.91916	11.27051
11.32237	-14.91916	11.27051
11.32654	-14.91916	11.27051
11.33071	-14.91916	11.27051
11.33496	-14.91916	11.27051
11.33923	-14.91916	11.27051
11.34350	-14.91916	11.27051
11.34768	-14.91916	11.27051
11.35188	-14.91916	11.27051
11.35607	-14.91916	11.27051
11.36025	-14.91916	11.27051
11.36444	-14.91916	11.27051
11.36876	-14.91916	11.27051
11.37296	-14.91916	11.27051
11.37715	-14.94113	11.27051
11.38134	-14.91916	11.27051
11.38553	-14.91916	11.27051
11.38971	-14.94113	11.27051
11.39390	-14.94113	11.27051
11.39816	-14.94113	11.27051
11.40242	-14.94113	11.27051
11.40662	-14.94113	11.27051
11.41081	-14.94113	11.27051
11.41499	-14.96310	11.27051
11.41918	-14.96310	11.27051
11.42336	-14.96310	11.27051
11.42755	-14.96310	11.27051
11.43185	-14.98507	11.27051
11.43606	-14.98507	11.27051
11.44024	-14.98507	11.27051
11.44454	-14.98507	11.27051
11.44868	-14.98507	11.27051
11.45287	-14.98507	11.27051
11.45706	-15.00705	11.27051
11.46148	-15.00705	11.27051
11.46570	-15.00705	11.27051
11.46989	-15.00705	11.27051
11.47408	-15.02902	11.27051
11.47826	-15.02902	11.27051
11.48245	-15.02902	11.27051
11.48663	-15.02902	11.27051
11.49090	-15.02902	11.27051
11.49519	-15.05099	11.27051
11.49939	-15.05099	11.27051
11.50360	-15.07297	11.27051
11.50779	-15.05099	11.27051
11.51198	-15.07297	11.27051
11.51617	-15.07297	11.27051
11.52036	-15.09494	11.27051
11.52468	-15.09494	11.27051
11.52888	-15.09494	11.27051
11.53308	-15.09494	11.27051
11.53727	-15.11691	11.27051
11.54145	-15.11691	11.27051
11.54575	-15.11691	11.27051
11.54993	-15.11691	11.27051
11.55436	-15.13888	11.27051
11.55857	-15.13888	11.27051
11.56276	-15.13888	11.27051
11.56695	-15.13888	11.27051
11.57114	-15.16086	11.27051
11.57533	-15.16086	11.27051
11.57951	-15.16086	11.27051
11.58380	-15.18283	11.27051
11.58809	-15.18283	11.27051
11.59229	-15.18283	11.27051
11.59648	-15.18283	11.27051
11.60068	-15.20480	11.27051
11.60487	-15.20480	11.27051
11.60905	-15.20480	11.27051
11.61324	-15.22677	11.27051
11.61754	-15.22677	11.27051
11.62175	-15.22677	11.27051
11.62593	-15.22677	11.27051
11.63012	-15.22677	11.27051
11.63431	-15.24875	11.27051
11.63850	-15.24875	11.27051
11.64268	-15.24875	11.27051
11.64705	-15.24875	11.27051
11.65130	-15.27072	11.27051
11.65550	-15.27072	11.27051
11.65968	-15.29269	11.27051
11.66387	-15.29269	11.27051
11.66806	-15.29269	11.27051
11.67224	-15.29269	11.27051
11.67643	-15.29269	11.27051
11.68075	-15.31466	11.27051
11.68496	-15.31466	11.27051
11.68914	-15.31466	11.27051
11.69333	-15.33664	11.27051
11.69751	-15.33664	11.27051
11.70170	-15.33664	11.27051
11.70588	-15.33664	11.27051
11.71031	-15.33664	11.27051
11.71452	-15.33664	11.27051
11.71871	-15.35861	11.27051
11.72289	-15.35861	11.27051
11.72708	-15.35861	11.27051
11.73127	-15.38058	11.27051
11.73545	-15.38058	11.27051
11.73971	-15.38058	11.27051
11.74399	-15.38058	11.27051
11.74831	-15.38058	11.27051
11.75249	-15.38058	11.27051
11.75668	-15.38058	11.27051
11.76087	-15.40256	11.27051
11.76505	-15.40256	11.27051
11.76924	-15.40256	11.27051
11.77354	-15.40256	11.27051
11.77775	-15.40256	11.27051
11.78194	-15.40256	11.27051
11.78612	-15.42453	11.27051
11.79031	-15.42453	11.27051
11.79449	-15.42453	11.27051
11.79868	-15.42453	11.27051
11.80294	-15.42453	11.27051
11.80720	-15.42453	11.27051
11.81140	-15.42453	11.27051
11.81559	-15.44650	11.27051
11.81978	-15.44650	11.27051
11.82396	-15.44650	11.27051
11.82815	-15.44650	11.27051
11.83234	-15.44650	11.27051
11.83665	-15.44650	11.27051
11.84086	-15.46847	11.27051
11.84505	-15.46847	11.27051
11.84934	-15.46847	11.27051
11.85353	-15.46847	11.27051
11.85772	-15.46847	11.27051
11.86190	-15.46847	11.27051
11.86635	-15.46847	11.27051
11.87055	-15.46847	11.27051
11.87474	-15.49045	11.27051
11.87893	-15.49045	11.27051
11.88312	-15.49045	11.27051
11.88730	-15.49045	11.27051
11.89149	-15.49045	11.27051
11.89575	-15.49045	11.27051
11.90003	-15.49045	11.27051
11.90423	-15.49045	11.27051
11.90842	-15.49045	11.27051
11.91261	-15.49045	11.27051
11.91681	-15.51242	11.27051
11.92099	-15.49045	11.27051
11.92518	-15.51242	11.27051
11.92949	-15.51242	11.27051
11.93369	-15.51242	11.27051
11.93788	-15.51242	11.27051
11.94207	-15.51242	11.27051
11.94625	-15.51242	11.27051
11.95054	-15.51242	11.27051
11.95474	-15.51242	11.27051
11.95899	-15.51242	11.27051
11.96326	-15.51242	11.27051
11.96746	-15.51242	11.27051
11.97164	-15.51242	11.27051
11.97583	-15.51242	11.27051
11.98002	-15.53439	11.27051
11.98420	-15.53439	11.27051
11.98839	-15.53439	11.27051
11.99270	-15.53439	11.27051
11.99691	-15.53439	11.27051
12.00110	-15.53439	11.27051
12.00529	-15.53439	11.27051
12.00947	-15.53439	11.27051
12.01366	-15.53439	11.27051
12.01784	-15.53439	11.27051
12.02228	-15.53439	11.27051
12.02649	-15.55636	11.27051
12.03068	-15.53439	11.27051
12.03487	-15.55636	11.27051
12.03905	-15.55636	11.27051
12.04324	-15.55636	11.27051
12.04742	-15.55636	11.27051
12.05183	-15.55636	11.27051
12.05611	-15.55636	11.27051
12.06031	-15.55636	11.27051
12.06451	-15.55636	11.27051
12.06869	-15.55636	11.27051
12.07288	-15.55636	11.27051
12.07706	-15.55636	11.27051
12.08125	-15.55636	11.27051
12.08554	-15.55636	11.27051
12.08975	-15.55636	11.27051
12.09393	-15.55636	11.27051
12.09812	-15.55636	11.27051
12.10231	-15.55636	11.27051
12.10649	-15.55636	11.27051
12.11068	-15.55636	11.27051
12.11493	-15.55636	11.27051
12.11921	-15.55636	11.27051
12.12341	-15.55636	11.27051
12.12760	-15.55636	11.27051
12.13180	-15.55636	11.27051
12.13599	-15.55636	11.27051
12.14017	-15.55636	11.27051
12.14436	-15.55636	11.27051
12.14868	-15.55636	11.27051
12.15299	-15.55636	11.27051
12.15718	-15.55636	11.27051
12.16136	-15.55636	11.27051
12.16555	-15.55636	11.27051
12.16974	-15.55636	11.27051
12.17393	-15.53439	11.27051
12.17839	-15.53439	11.27051
12.18260	-15.55636	11.27051
12.18679	-15.53439	11.27051
12.19098	-15.53439	11.27051
12.19517	-15.53439	11.27051
12.19935	-15.53439	11.27051
12.20354	-15.53439	11.27051
12.20781	-15.53439	11.27051
12.21209	-15.53439	11.27051
12.21630	-15.53439	11.27051
12.22049	-15.53439	11.27051
12.22468	-15.53439	11.27051
12.22886	-15.53439	11.27051
12.23305	-15.53439	11.27051
12.23723	-15.53439	11.27051
12.24154	-15.53439	11.27051
12.24574	-15.53439	11.27051
12.24993	-15.53439	11.27051
12.25422	-15.53439	11.27051
12.25842	-15.51242	11.27051
12.26260	-15.51242	11.27051
12.26679	-15.51242	11.27051
12.27105	-15.51242	11.27051
12.27533	-15.51242	11.27051
12.27953	-15.51242	11.27051
12.28372	-15.51242	11.27051
12.28790	-15.51242	11.27051
12.29209	-15.51242	11.27051
12.29628	-15.51242	11.27051
12.30046	-15.49045	11.27051
12.30478	-15.49045	11.27051
12.30898	-15.51242	11.27051
12.31316	-15.51242	11.27051
12.31735	-15.49045	11.27051
12.32153	-15.51242	11.27051
12.32572	-15.49045	11.27051
12.32990	-15.49045	11.27051
12.33416	-15.49045	11.27051
12.33843	-15.49045	11.27051
12.34262	-15.49045	11.27051
12.34681	-15.49045	11.27051
12.35099	-15.49045	11.27051
12.35528	-15.49045	11.27051
12.35948	-15.49045	11.27051
12.36366	-15.49045	11.27051
12.36797	-15.49045	11.27051
12.37217	-15.49045	11.27051
12.37635	-15.49045	11.27051
12.38054	-15.49045	11.27051
12.38468	-15.49045	11.27051
12.38887	-15.49045	11.27051
12.39305	-15.49045	11.27051
12.39731	-15.49045	11.27051
12.40158	-15.49045	11.27051
12.40578	-15.49045	11.27051
12.40996	-15.49045	11.27051
12.41415	-15.49045	11.27051
12.41833	-15.49045	11.27051
12.42252	-15.49045	11.27051
12.42670	-15.49045	11.27051
12.43100	-15.51242	11.27051
12.43520	-15.51242	11.27051
12.43938	-15.51242	11.27051
12.44357	-15.49045	11.27051
12.44775	-15.49045	11.27051
12.45194	-15.49045	11.27051
12.45623	-15.51242	11.27051
12.46068	-15.51242	11.27051
12.46488	-15.51242	11.27051
12.46907	-15.51242	11.27051
12.47326	-15.51242	11.27051
12.47744	-15.51242	11.27051
12.48163	-15.51242	11.27051
12.48581	-15.51242	11.27051
12.49006	-15.51242	11.27051
12.49435	-15.51242	11.27051
12.49855	-15.51242	11.27051
12.50278	-15.51242	11.27051
12.50697	-15.51242	11.27051
12.51115	-15.51242	11.27051
12.51534	-15.51242	11.27051
12.51953	-15.51242	11.27051
12.52383	-15.51242	11.27051
12.52804	-15.53439	11.27051
12.53223	-15.53439	11.27051
12.53641	-15.53439	11.27051
12.54061	-15.53439	11.27051
12.54479	-15.53439	11.27051
12.54898	-15.53439	11.27051
12.55323	-15.53439	11.27051
12.55761	-15.53439	11.27051
12.56180	-15.55636	11.27051
12.56599	-15.55636	11.27051
12.57017	-15.53439	11.27051
12.57435	-15.55636	11.27051
12.57854	-15.55636	11.27051
12.58272	-15.55636	11.27051
12.58703	-15.55636	11.27051
12.59123	-15.55636	11.27051
12.59541	-15.57834	11.27051
12.59960	-15.55636	11.27051
12.60378	-15.57834	11.27051
12.60797	-15.57834	11.27051
12.61215	-15.57834	11.27051
12.61641	-15.57834	11.27051
12.62069	-15.57834	11.27051
12.62489	-15.57834	11.27051
12.62908	-15.57834	11.27051
12.63327	-15.60031	11.27051
12.63745	-15.60031	11.27051
12.64164	-15.60031	11.27051
12.64582	-15.60031	11.27051
12.65012	-15.60031	11.27051
12.65432	-15.62228	11.27051
12.65861	-15.62228	11.27051
12.66279	-15.62228	11.27051
12.66698	-15.62228	11.27051
12.67116	-15.62228	11.27051
12.67535	-15.62228	11.27051
12.67979	-15.62228	11.27051
12.68400	-15.64425	11.27051
12.68818	-15.64425	11.27051
12.69237	-15.64425	11.27051
12.69657	-15.64425	11.27051
12.70075	-15.64425	11.27051
12.70494	-15.64425	11.27051
12.70918	-15.64425	11.27051
12.71347	-15.66623	11.27051
12.71767	-15.66623	11.27051
12.72185	-15.66623	11.27051
12.72604	-15.66623	11.27051
12.73022	-15.68820	11.27051
12.73441	-15.68820	11.27051
12.73859	-15.68820	11.27051
12.74289	-15.68820	11.27051
12.74709	-15.71017	11.27051
12.75128	-15.71017	11.27051
12.75547	-15.71017	11.27051
12.75976	-15.71017	11.27051
12.76395	-15.71017	11.27051
12.76813	-15.71017	11.27051
12.77238	-15.73214	11.27051
12.77666	-15.73214	11.27051
12.78086	-15.73214	11.27051
12.78505	-15.73214	11.27051
12.78924	-15.73214	11.27051
12.79342	-15.73214	11.27051
12.79760	-15.73214	11.27051
12.80179	-15.75412	11.27051
12.80608	-15.75412	11.27051
12.81028	-15.75412	11.27051
12.81447	-15.75412	11.27051
12.81865	-15.75412	11.27051
12.82284	-15.77609	11.27051
12.82702	-15.77609	11.27051
12.83120	-15.77609	11.27051
12.83545	-15.77609	11.27051
12.83974	-15.79806	11.27051
12.84393	-15.79806	11.27051
12.84812	-15.79806	11.27051
12.85231	-15.79806	11.27051
12.85649	-15.79806	11.27051
12.86079	-15.79806	11.27051
12.86498	-15.82004	11.27051
12.86928	-15.82004	11.27051
12.87348	-15.82004	11.27051
12.87767	-15.82004	11.27051
12.88186	-15.82004	11.27051
12.88604	-15.84201	11.27051
12.89023	-15.84201	11.27051
12.89441	-15.84201	11.27051
12.89866	-15.84201	11.27051
12.90295	-15.86398	11.27051
12.90715	-15.86398	11.27051
12.91133	-15.86398	11.27051
12.91552	-15.86398	11.27051
12.91970	-15.86398	11.27051
12.92389	-15.88595	11.27051
12.92807	-15.88595	11.27051
12.93237	-15.88595	11.27051
12.93659	-15.88595	11.27051
12.94078	-15.88595	11.27051
12.94496	-15.88595	11.27051
12.94915	-15.90793	11.27051
12.95334	-15.90793	11.27051
12.95753	-15.90793	11.27051
12.96190	-15.90793	11.27051
12.96617	-15.90793	11.27051
12.97036	-15.92990	11.27051
12.97455	-15.92990	11.27051
12.97874	-15.92990	11.27051
12.98292	-15.92990	11.27051
12.98711	-15.92990	11.27051
12.99130	-15.92990	11.27051
12.99561	-15.92990	11.27051
12.99982	-15.95187	11.27051
13.00400	-15.95187	11.27051
13.00819	-15.95187	11.27051
13.01238	-15.95187	11.27051
13.01657	-15.95187	11.27051
13.02075	-15.97384	11.27051
13.02501	-15.97384	11.27051
13.02928	-15.97384	11.27051
13.03347	-15.97384	11.27051
13.03766	-15.97384	11.27051
13.04187	-15.97384	11.27051
13.04606	-15.97384	11.27051
13.05025	-15.99582	11.27051
13.05444	-15.99582	11.27051
13.05874	-15.99582	11.27051
13.06306	-15.99582	11.27051
13.06727	-15.99582	11.27051
13.07145	-15.99582	11.27051
13.07564	-15.99582	11.27051
13.07983	-15.99582	11.27051
13.08402	-16.01779	11.27051
13.08846	-16.01779	11.27051
13.09268	-16.01779	11.27051
13.09688	-16.01779	11.27051
13.10107	-16.01779	11.27051
13.10525	-16.01779	11.27051
13.10944	-16.03976	11.27051
13.11362	-16.03976	11.27051
13.11790	-16.01779	11.27051
13.12218	-16.01779	11.27051
13.12638	-16.03976	11.27051
13.13057	-16.01779	11.27051
13.13476	-16.03976	11.27051
13.13894	-16.03976	11.27051
13.14313	-16.03976	11.27051
13.14731	-16.03976	11.27051
13.15162	-16.03976	11.27051
13.15582	-16.03976	11.27051
13.16001	-16.06173	11.27051
13.16431	-16.03976	11.27051
13.16850	-16.06173	11.27051
13.17268	-16.06173	11.27051
13.17687	-16.06173	11.27051
13.18112	-16.06173	11.27051
13.18539	-16.06173	11.27051
13.18958	-16.06173	11.27051
13.19377	-16.06173	11.27051
13.19795	-16.06173	11.27051
13.20214	-16.06173	11.27051
13.20632	-16.08371	11.27051
13.21051	-16.08371	11.27051
13.21481	-16.08371	11.27051
13.21902	-16.08371	11.27051
13.22320	-16.08371	11.27051
13.22739	-16.08371	11.27051
13.23157	-16.08371	11.27051
13.23576	-16.08371	11.27051
13.23995	-16.08371	11.27051
13.24420	-16.08371	11.27051
13.24847	-16.08371	11.27051
13.25268	-16.08371	11.27051
13.25687	-16.10568	11.27051
13.26105	-16.10568	11.27051
13.26534	-16.10568	11.27051
13.26954	-16.10568	11.27051
13.27373	-16.10568	11.27051
13.27804	-16.10568	11.27051
13.28224	-16.10568	11.27051
13.28643	-16.10568	11.27051
13.29062	-16.10568	11.27051
13.29481	-16.10568	11.27051
13.29899	-16.10568	11.27051
13.30318	-16.10568	11.27051
13.30743	-16.10568	11.27051
13.31170	-16.12765	11.27051
13.31590	-16.10568	11.27051
13.32009	-16.12765	11.27051
13.32428	-16.12765	11.27051
13.32847	-16.12765	11.27051
13.33266	-16.12765	11.27051
13.33685	-16.12765	11.27051
13.34115	-16.12765	11.27051
13.34535	-16.12765	11.27051
13.34954	-16.14963	11.27051
13.35373	-16.14963	11.27051
13.35792	-16.14963	11.27051
13.36210	-16.12765	11.27051
13.36639	-16.14963	11.27051
13.37083	-16.14963	11.27051
13.37504	-16.14963	11.27051
13.37923	-16.14963	11.27051
13.38342	-16.14963	11.27051
13.38760	-16.14963	11.27051
13.39179	-16.14963	11.27051
13.39597	-16.14963	11.27051
13.40023	-16.14963	11.27051
13.40451	-16.14963	11.27051
13.40870	-16.14963	11.27051
13.41288	-16.14963	11.27051
13.41707	-16.14963	11.27051
13.42125	-16.17160	11.27051
13.42544	-16.14963	11.27051
13.42962	-16.17160	11.27051
13.43392	-16.17160	11.27051
13.43812	-16.17160	11.27051
13.44230	-16.17160	11.27051
13.44649	-16.17160	11.27051
13.45067	-16.17160	11.27051
13.45486	-16.17160	11.27051
13.45904	-16.17160	11.27051
13.46330	-16.17160	11.27051
13.46768	-16.19357	11.27051
13.47189	-16.17160	11.27051
13.47608	-16.17160	11.27051
13.48027	-16.17160	11.27051
13.48446	-16.17160	11.27051
13.48865	-16.19357	11.27051
13.49284	-16.19357	11.27051
13.49714	-16.19357	11.27051
13.50134	-16.19357	11.27051
13.50555	-16.19357	11.27051
13.50975	-16.19357	11.27051
13.51394	-16.19357	11.27051
13.51813	-16.19357	11.27051
13.52232	-16.19357	11.27051
13.52676	-16.19357	11.27051
13.53098	-16.19357	11.27051
13.53517	-16.19357	11.27051
13.53935	-16.19357	11.27051
13.54354	-16.19357	11.27051
13.54773	-16.19357	11.27051
13.55191	-16.19357	11.27051
13.55618	-16.19357	11.27051
13.56048	-16.19357	11.27051
13.56469	-16.19357	11.27051
13.56899	-16.19357	11.27051
13.57318	-16.19357	11.27051
13.57736	-16.19357	11.27051
13.58155	-16.19357	11.27051
13.58574	-16.19357	11.27051
13.59004	-16.19357	11.27051
13.59425	-16.19357	11.27051
13.59844	-16.19357	11.27051
13.60263	-16.17160	11.27051
13.60681	-16.17160	11.27051
13.61100	-16.17160	11.27051
13.61519	-16.17160	11.27051
13.61960	-16.19357	11.27051
13.62381	-16.17160	11.27051
13.62800	-16.17160	11.27051
13.63219	-16.17160	11.27051
13.63638	-16.17160	11.27051
13.64057	-16.17160	11.27051
13.64476	-16.17160	11.27051
13.64901	-16.17160	11.27051
13.65329	-16.14963	11.27051
13.65749	-16.14963	11.27051
13.66168	-16.14963	11.27051
13.66587	-16.14963	11.27051
13.67016	-16.14963	11.27051
13.67436	-16.14963	11.27051
13.67854	-16.14963	11.27051
13.68284	-16.12765	11.27051
13.68705	-16.12765	11.27051
13.69124	-16.12765	11.27051
13.69542	-16.12765	11.27051
13.69962	-16.12765	11.27051
13.70380	-16.12765	11.27051
13.70799	-16.10568	11.27051
13.71225	-16.10568	11.27051
13.71652	-16.10568	11.27051
13.72070	-16.10568	11.27051
13.72488	-16.10568	11.27051
13.72907	-16.10568	11.27051
13.73326	-16.10568	11.27051
13.73745	-16.08371	11.27051
13.74163	-16.08371	11.27051
13.74593	-16.08371	11.27051
13.75013	-16.08371	11.27051
13.75432	-16.08371	11.27051
13.75851	-16.06173	11.27051
13.76269	-16.06173	11.27051
13.76688	-16.06173	11.27051
13.77117	-16.06173	11.27051
13.77559	-16.03976	11.27051
13.77982	-16.03976	11.27051
13.78401	-16.03976	11.27051
13.78819	-16.03976	11.27051
13.79238	-16.03976	11.27051
13.79657	-16.01779	11.27051
13.80076	-16.01779	11.27051
13.80501	-16.01779	11.27051
13.80930	-16.01779	11.27051
13.81350	-15.99582	11.27051
13.81769	-15.99582	11.27051
13.82187	-15.99582	11.27051
13.82606	-15.97384	11.27051
13.83024	-15.97384	11.27051
13.83443	-15.97384	11.27051
13.83873	-15.97384	11.27051
13.84294	-15.97384	11.27051
13.84713	-15.95187	11.27051
13.85132	-15.95187	11.27051
13.85550	-15.95187	11.27051
13.85969	-15.95187	11.27051
13.86387	-15.95187	11.27051
13.86813	-15.92990	11.27051
13.87251	-15.92990	11.27051
13.87669	-15.92990	11.27051
13.88088	-15.92990	11.27051
13.88507	-15.90793	11.27051
13.88925	-15.90793	11.27051
13.89344	-15.90793	11.27051
13.89763	-15.88595	11.27051
13.90193	-15.88595	11.27051
13.90613	-15.88595	11.27051
13.91032	-15.88595	11.27051
13.91451	-15.88595	11.27051
13.91870	-15.88595	11.27051
13.92288	-15.86398	11.27051
13.92707	-15.86398	11.27051
13.93150	-15.84201	11.27051
13.93573	-15.84201	11.27051
13.93992	-15.84201	11.27051
13.94411	-15.84201	11.27051
13.94830	-15.84201	11.27051
13.95249	-15.84201	11.27051
13.95668	-15.84201	11.27051
13.96097	-15.82004	11.27051
13.96526	-15.82004	11.27051
13.96946	-15.79806	11.27051
13.97375	-15.79806	11.27051
13.97794	-15.79806	11.27051
13.98213	-15.79806	11.27051
13.98632	-15.79806	11.27051
13.99051	-15.79806	11.27051
13.99481	-15.77609	11.27051
13.99902	-15.77609	11.27051
14.00321	-15.75412	11.27051
14.00740	-15.77609	11.27051
14.01158	-15.77609	11.27051
14.01577	-15.75412	11.27051
14.01996	-15.73214	11.27051
14.02441	-15.73214	11.27051
14.02864	-15.73214	11.27051
14.03283	-15.73214	11.27051
14.03702	-15.71017	11.27051
14.04121	-15.71017	11.27051
14.04539	-15.73214	11.27051
14.04958	-15.71017	11.27051
14.05384	-15.68820	11.27051
14.05812	-15.71017	11.27051
14.06232	-15.68820	11.27051
14.06651	-15.68820	11.27051
14.07070	-15.68820	11.27051
14.07499	-15.68820	11.27051
14.07918	-15.66623	11.27051
14.08337	-15.66623	11.27051
14.08767	-15.66623	11.27051
14.09188	-15.66623	11.27051
14.09607	-15.64425	11.27051
14.10026	-15.64425	11.27051
14.10445	-15.64425	11.27051
14.10864	-15.64425	11.27051
14.11283	-15.64425	11.27051
14.11711	-15.64425	11.27051
14.12139	-15.62228	11.27051
14.12559	-15.62228	11.27051
14.12978	-15.62228	11.27051
14.13397	-15.60031	11.27051
14.13816	-15.62228	11.27051
14.14235	-15.62228	11.27051
14.14653	-15.60031	11.27051
14.15084	-15.60031	11.27051
14.15504	-15.60031	11.27051
14.15923	-15.60031	11.27051
14.16342	-15.57834	11.27051
14.16761	-15.57834	11.27051
14.17180	-15.57834	11.27051
14.17609	-15.57834	11.27051
14.18053	-15.57834	11.27051
14.18470	-15.57834	11.27051
14.18889	-15.57834	11.27051
14.19308	-15.57834	11.27051
14.19727	-15.57834	11.27051
14.20146	-15.55636	11.27051
14.20564	-15.55636	11.27051
14.20992	-15.55636	11.27051
14.21420	-15.55636	11.27051
14.21840	-15.53439	11.27051
14.22259	-15.53439	11.27051
14.22677	-15.53439	11.27051
14.23096	-15.53439	11.27051
14.23515	-15.53439	11.27051
14.23933	-15.53439	11.27051
14.24363	-15.53439	11.27051
14.24784	-15.53439	11.27051
14.25203	-15.53439	11.27051
14.25622	-15.53439	11.27051
14.26040	-15.51242	11.27051
14.26461	-15.51242	11.27051
14.26880	-15.51242	11.27051
14.27306	-15.51242	11.27051
14.27745	-15.51242	11.27051
14.28165	-15.51242	11.27051
14.28584	-15.49045	11.27051
14.29003	-15.49045	11.27051
14.29422	-15.49045	11.27051
14.29840	-15.49045	11.27051
14.30259	-15.49045	11.27051
14.30689	-15.49045	11.27051
14.31109	-15.46847	11.27051
14.31529	-15.49045	11.27051
14.31947	-15.46847	11.27051
14.32366	-15.46847	11.27051
14.32785	-15.46847	11.27051
14.33203	-15.46847	11.27051
14.33645	-15.46847	11.27051
14.34067	-15.46847	11.27051
14.34485	-15.46847	11.27051
14.34904	-15.46847	11.27051
14.35323	-15.44650	11.27051
14.35742	-15.44650	11.27051
14.36160	-15.44650	11.27051
14.36588	-15.44650	11.27051
14.37017	-15.44650	11.27051
14.37437	-15.44650	11.27051
14.37867	-15.44650	11.27051
14.38287	-15.44650	11.27051
14.38705	-15.44650	11.27051
14.39124	-15.44650	11.27051
14.39542	-15.42453	11.27051
14.39972	-15.44650	11.27051
14.40393	-15.44650	11.27051
14.40812	-15.44650	11.27051
14.41230	-15.44650	11.27051
14.41649	-15.44650	11.27051
14.42068	-15.42453	11.27051
14.42487	-15.44650	11.27051
14.42928	-15.44650	11.27051
14.43349	-15.44650	11.27051
14.43771	-15.42453	11.27051
14.44191	-15.44650	11.27051
14.44610	-15.44650	11.27051
14.45030	-15.42453	11.27051
14.45449	-15.44650	11.27051
14.45876	-15.44650	11.27051
14.46305	-15.44650	11.27051
14.46725	-15.44650	11.27051
14.47145	-15.42453	11.27051
14.47564	-15.42453	11.27051
14.47995	-15.42453	11.27051
14.48414	-15.44650	11.27051
14.48832	-15.44650	11.27051
14.49264	-15.44650	11.27051
14.49685	-15.44650	11.27051
14.50104	-15.44650	11.27051
14.50524	-15.44650	11.27051
14.50944	-15.44650	11.27051
14.51364	-15.44650	11.27051
14.51782	-15.44650	11.27051
14.52226	-15.44650	11.27051
14.52648	-15.44650	11.27051
14.53067	-15.44650	11.27051
14.53486	-15.44650	11.27051
14.53905	-15.44650	11.27051
14.54324	-15.44650	11.27051
14.54742	-15.44650	11.27051
14.55169	-15.46847	11.27051
14.55598	-15.46847	11.27051
14.56018	-15.46847	11.27051
14.56437	-15.46847	11.27051
14.56858	-15.46847	11.27051
14.57277	-15.46847	11.27051
14.57696	-15.46847	11.27051
14.58125	-15.46847	11.27051
14.58556	-15.46847	11.27051
14.58977	-15.46847	11.27051
14.59396	-15.49045	11.27051
14.59815	-15.49045	11.27051
14.60234	-15.49045	11.27051
14.60653	-15.49045	11.27051
14.61072	-15.49045	11.27051
14.61498	-15.49045	11.27051
14.61926	-15.49045	11.27051
14.62346	-15.49045	11.27051
14.62765	-15.49045	11.27051
14.63184	-15.51242	11.27051
14.63603	-15.51242	11.27051
14.64022	-15.51242	11.27051
14.64440	-15.51242	11.27051
14.64872	-15.51242	11.27051
14.65292	-15.51242	11.27051
14.65711	-15.51242	11.27051
14.66130	-15.51242	11.27051
14.66549	-15.51242	11.27051
14.66968	-15.51242	11.27051
14.67386	-15.51242	11.27051
14.67829	-15.51242	11.27051
14.68262	-15.53439	11.27051
14.68681	-15.51242	11.27051
14.69099	-15.51242	11.27051
14.69518	-15.53439	11.27051
14.69937	-15.51242	11.27051
14.70356	-15.51242	11.27051
14.70782	-15.53439	11.27051
14.71209	-15.53439	11.27051
14.71628	-15.53439	11.27051
14.72047	-15.51242	11.27051
14.72467	-15.51242	11.27051
14.72885	-15.53439	11.27051
14.73304	-15.53439	11.27051
14.73722	-15.51242	11.27051
14.74152	-15.53439	11.27051
14.74574	-15.53439	11.27051
14.74993	-15.51242	11.27051
14.75411	-15.51242	11.27051
14.75830	-15.53439	11.27051
14.76248	-15.53439	11.27051
14.76667	-15.53439	11.27051
14.77111	-15.53439	11.27051
14.77532	-15.53439	11.27051
14.77951	-15.53439	11.27051
14.78381	-15.53439	11.27051
14.78800	-15.53439	11.27051
14.79218	-15.53439	11.27051
14.79637	-15.53439	11.27051
14.80065	-15.53439	11.27051
14.80492	-15.53439	11.27051
14.80912	-15.53439	11.27051
14.81331	-15.53439	11.27051
14.81750	-15.53439	11.27051
14.82169	-15.53439	11.27051
14.82588	-15.53439	11.27051
14.83007	-15.53439	11.27051
14.83437	-15.51242	11.27051
14.83857	-15.51242	11.27051
14.84276	-15.51242	11.27051
14.84695	-15.51242	11.27051
14.85114	-15.51242	11.27051
14.85532	-15.51242	11.27051
14.85951	-15.51242	11.27051
14.86393	-15.51242	11.27051
14.86814	-15.51242	11.27051
14.87233	-15.51242	11.27051
14.87651	-15.51242	11.27051
14.88068	-15.51242	11.27051
14.88499	-15.51242	11.27051
14.88918	-15.51242	11.27051
14.89344	-15.51242	11.27051
14.89770	-15.51242	11.27051
14.90190	-15.51242	11.27051
14.90609	-15.51242	11.27051
14.91028	-15.51242	11.27051
14.91446	-15.49045	11.27051
14.91865	-15.49045	11.27051
14.92283	-15.49045	11.27051
14.92713	-15.51242	11.27051
14.93134	-15.49045	11.27051
14.93553	-15.49045	11.27051
14.93972	-15.49045	11.27051
14.94390	-15.49045	11.27051
14.94809	-15.49045	11.27051
14.95228	-15.49045	11.27051
14.95674	-15.49045	11.27051
14.96095	-15.49045	11.27051
14.96514	-15.49045	11.27051
14.96933	-15.46847	11.27051
14.97352	-15.49045	11.27051
14.97770	-15.49045	11.27051
14.98189	-15.46847	11.27051
14.98631	-15.46847	11.27051
14.99059	-15.46847	11.27051
14.99479	-15.46847	11.27051
14.99900	-15.46847	11.27051
15.00359	-15.44650	-4.29274
15.00778	-15.46847	-4.29274
15.01196	-15.46847	-4.29274
15.01615	-15.44650	-4.29274
15.02046	-15.44650	-4.29274
15.02467	-15.44650	-4.29274
15.02885	-15.44650	-4.29274
15.03304	-15.44650	-4.29274
15.03722	-15.44650	-4.29274
15.04141	-15.44650	-4.29274
15.04559	-15.44650	-4.29274
15.04985	-15.44650	-4.29274
15.05413	-15.44650	-4.29274
15.05833	-15.42453	-4.29274
15.06252	-15.42453	-4.29274
15.06670	-15.42453	-4.29274
15.07089	-15.42453	-4.29274
15.07508	-15.40256	-4.29274
15.07926	-15.40256	-4.29274
15.08357	-15.40256	-4.29274
15.08777	-15.38058	-4.29274
15.09196	-15.38058	-4.29274
15.09615	-15.35861	-4.29274
15.10034	-15.35861	-4.29274
15.10464	-15.33664	-4.29274
15.10883	-15.33664	-4.29274
15.11326	-15.31466	-4.29274
15.11748	-15.29269	-4.29274
15.12168	-15.27072	-4.29274
15.12587	-15.27072	-4.29274
15.13006	-15.24875	-4.29274
15.13434	-15.22677	-4.29274
15.13853	-15.20480	-4.29274
15.14281	-15.18283	-4.29274
15.14708	-15.16086	-4.29274
15.15128	-15.16086	-4.29274
15.15547	-15.13888	-4.29274
15.15965	-15.09494	-4.29274
15.16384	-15.07297	-4.29274
15.16803	-15.02902	-4.29274
15.17221	-15.00705	-4.29274
15.17652	-14.96310	-4.29274
15.18071	-14.96310	-4.29274
15.18489	-14.91916	-4.29274
15.18908	-14.87521	-4.29274
15.19327	-14.83127	-4.29274
15.19745	-14.78732	-4.29274
15.20164	-14.78732	-4.29274
15.20600	-14.74338	-4.29274
15.21026	-14.69943	-4.29274
15.21445	-14.65548	-4.29274
15.21864	-14.61154	-4.29274
15.22283	-14.54562	-4.29274
15.22701	-14.47970	-4.29274
15.23119	-14.47970	-4.29274
15.23538	-14.43576	-4.29274
15.23967	-14.36984	-4.29274
15.24388	-14.30392	-4.29274
15.24806	-14.23800	-4.29274
15.25225	-14.17209	-4.29274
15.25643	-14.12814	-4.29274
15.26063	-14.12814	-4.29274
15.26481	-14.04025	-4.29274
15.26928	-13.97433	-4.29274
15.27349	-13.90841	-4.29274
15.27767	-13.82052	-4.29274
15.28186	-13.75461	-4.29274
15.28605	-13.75461	-4.29274
15.29025	-13.66672	-4.29274
15.29443	-13.57882	-4.29274
15.29870	-13.51291	-4.29274
15.30298	-13.42502	-4.29274
15.30728	-13.33713	-4.29274
15.31147	-13.33713	-4.29274
15.31566	-13.24923	-4.29274
15.31984	-13.16134	-4.29274
15.32403	-13.05148	-4.29274
15.32821	-12.96359	-4.29274
15.33251	-12.85373	-4.29274
15.33670	-12.85373	-4.29274
15.34089	-12.74386	-4.29274
15.34507	-12.67795	-4.29274
15.34926	-12.56808	-4.29274
15.35344	-12.45822	-4.29274
15.35763	-12.34836	-4.29274
15.36188	-12.23849	-4.29274
15.36615	-12.23849	-4.29274
15.37034	-12.12863	-4.29274
15.37453	-12.01877	-4.29274
15.37871	-11.90890	-4.29274
15.38290	-11.77707	-4.29274
15.38709	-11.77707	-4.29274
15.39128	-11.66720	-4.29274
15.39557	-11.53537	-4.29274
15.39978	-11.40353	-4.29274
15.40397	-11.27170	-4.29274
15.40826	-11.16183	-4.29274
15.41244	-11.16183	-4.29274
15.41664	-11.03000	-4.29274
15.42082	-10.89816	-4.29274
15.42523	-10.76632	-4.29274
15.42945	-10.65646	-4.29274
15.43364	-10.52463	-4.29274
15.43782	-10.37082	-4.29274
15.44200	-10.37082	-4.29274
15.44619	-10.23898	-4.29274
15.45037	-10.08517	-4.29274
15.45463	-9.93136	-4.29274
15.45891	-9.79953	-4.29274
15.46311	-9.64572	-4.29274
15.46730	-9.51388	-4.29274
15.47149	-9.51388	-4.29274
15.47567	-9.38205	-4.29274
15.47986	-9.22824	-4.29274
15.48404	-9.05246	-4.29274
15.48834	-8.92062	-4.29274
15.49257	-8.92062	-4.29274
15.49677	-8.74484	-4.29274
15.50096	-8.59103	-4.29274
15.50516	-8.43722	-4.29274
15.50945	-8.26144	-4.29274
15.51364	-8.12961	-4.29274
15.51805	-7.97580	-4.29274
15.52226	-7.97580	-4.29274
15.52645	-7.80002	-4.29274
15.53063	-7.64621	-4.29274
15.53482	-7.47043	-4.29274
15.53901	-7.29464	-4.29274
15.54319	-7.11886	-4.29274
15.54745	-7.11886	-4.29274
15.55172	-6.94308	-4.29274
15.55592	-6.81125	-4.29274
15.56011	-6.63547	-4.29274
15.56429	-6.45968	-4.29274
15.56848	-6.28390	-4.29274
15.57267	-6.28390	-4.29274
15.57686	-6.08615	-4.29274
15.58128	-5.93234	-4.29274
15.58548	-5.73459	-4.29274
15.58967	-5.55881	-4.29274
15.59386	-5.38302	-4.29274
15.59804	-5.22922	-4.29274
15.60222	-5.22922	-4.29274
15.60641	-5.03146	-4.29274
15.61078	-4.85568	-4.29274
15.61503	-4.65793	-4.29274
15.61922	-4.48214	-4.29274
15.62341	-4.28439	-4.29274
15.62759	-4.28439	-4.29274
15.63178	-4.10861	-4.29274
15.63596	-3.88888	-4.29274
15.64015	-3.71310	-4.29274
15.64444	-3.51535	-4.29274
15.64865	-3.31759	-4.29274
15.65284	-3.31759	-4.29274
15.65703	-3.11984	-4.29274
15.66121	-2.92209	-4.29274
15.66540	-2.72433	-4.29274
15.66958	-2.52658	-4.29274
15.67384	-2.52658	-4.29274
15.67810	-2.32882	-4.29274
15.68230	-2.13107	-4.29274
15.68648	-1.95529	-4.29274
15.69067	-1.75754	-4.29274
15.69485	-1.55978	-4.29274
15.69903	-1.36203	-4.29274
15.70322	-1.36203	-4.29274
15.70751	-1.16427	-4.29274
15.71182	-0.94455	-4.29274
15.71601	-0.74679	-4.29274
15.72020	-0.54904	-4.29274
15.72438	-0.37326	-4.29274
15.72857	-0.17550	-4.29274
15.73276	-0.17550	-4.29274
15.73717	0.02225	-4.29274
15.74138	0.24198	-4.29274
15.74557	0.43973	-4.29274
15.74975	0.65946	-4.29274
15.75394	0.65946	-4.29274
15.75812	0.85721	-4.29274
15.76230	1.07694	-4.29274
15.76658	1.27469	-4.29274
15.77086	1.45047	-4.29274
15.77506	1.67020	-4.29274
15.77924	1.86795	-4.29274
15.78343	1.86795	-4.29274
15.78762	2.08768	-4.29274
15.79180	2.30741	-4.29274
15.79599	2.50516	-4.29274
15.80029	2.72489	-4.29274
15.80449	2.92264	-4.29274
15.80868	3.09842	-4.29274
15.81297	3.09842	-4.29274
15.81716	3.31815	-4.29274
15.82134	3.51590	-4.29274
15.82553	3.73563	-4.29274
15.82978	3.93338	-4.29274
15.83404	4.15311	-4.29274
15.83823	4.15311	-4.29274
15.84242	4.37284	-4.29274
15.84660	4.57059	-4.29274
15.85079	4.79032	-4.29274
15.85498	4.94412	-4.29274
15.85916	5.16385	-4.29274
15.86346	5.16385	-4.29274
15.86766	5.36161	-4.29274
15.87184	5.55936	-4.29274
15.87603	5.77909	-4.29274
15.88022	5.99881	-4.29274
15.88441	6.19657	-4.29274
15.88860	6.19657	-4.29274
15.89303	6.39432	-4.29274
15.89724	6.61405	-4.29274
15.90142	6.81180	-4.29274
15.90561	7.00955	-4.29274
15.90979	7.22928	-4.29274
15.91408	7.22928	-4.29274
15.91826	7.42703	-4.29274
15.92251	7.62479	-4.29274
15.92678	7.84452	-4.29274
15.93098	8.04227	-4.29274
15.93517	8.04227	-4.29274
15.93936	8.41580	-4.29274
15.94354	8.41580	-4.29274
15.94773	8.61356	-4.29274
15.95191	8.81131	-4.29274
15.95621	9.00907	-4.29274
15.96041	9.20682	-4.29274
15.96461	9.20682	-4.29274
15.96880	9.40457	-4.29274
15.97298	9.60233	-4.29274
15.97717	9.80008	-4.29274
15.98135	9.95389	-4.29274
15.98577	10.15164	-4.29274
15.98997	10.34940	-4.29274
15.99417	10.34940	-4.29274
15.99837	10.52518	-4.29274
16.00255	10.72293	-4.29274
16.00674	10.92069	-4.29274
16.01092	11.09647	-4.29274
16.01533	11.29422	-4.29274
16.01960	11.29422	-4.29274
16.02380	11.47000	-4.29274
16.02799	11.62381	-4.29274
16.03218	11.82157	-4.29274
16.03637	11.99735	-4.29274
16.04057	12.19510	-4.29274
16.04475	12.19510	-4.29274
16.04905	12.37088	-4.29274
16.05325	12.54666	-4.29274
16.05743	12.72244	-4.29274
16.06162	12.92020	-4.29274
16.06581	13.05203	-4.29274
16.07000	13.22782	-4.29274
16.07418	13.22782	-4.29274
16.07864	13.42557	-4.29274
16.08285	13.60135	-4.29274
16.08704	13.75516	-4.29274
16.09122	13.93094	-4.29274
16.09541	14.10672	-4.29274
16.09959	14.10672	-4.29274
16.10378	14.26053	-4.29274
16.10803	14.43631	-4.29274
16.11232	14.56815	-4.29274
16.11665	14.74393	-4.29274
16.12085	14.89774	-4.29274
16.12503	15.07352	-4.29274
16.12922	15.07352	-4.29274
16.13340	15.22733	-4.29274
16.13759	15.38114	-4.29274
16.14189	15.53494	-4.29274
16.14610	15.71073	-4.29274
16.15029	15.84256	-4.29274
16.15447	15.84256	-4.29274
16.15866	15.99637	-4.29274
16.16284	16.15018	-4.29274
16.16703	16.30399	-4.29274
16.17146	16.45780	-4.29274
16.17567	16.45780	-4.29274
16.17986	16.58963	-4.29274
16.18405	16.74344	-4.29274
16.18823	16.87528	-4.29274
16.19242	17.02909	-4.29274
16.19662	17.13895	-4.29274
16.20089	17.29276	-4.29274
16.20518	17.29276	-4.29274
16.20938	17.42459	-4.29274
16.21356	17.55643	-4.29274
16.21786	17.68827	-4.29274
16.22204	17.82010	-4.29274
16.22623	17.95194	-4.29274
16.23041	17.95194	-4.29274
16.23471	18.08377	-4.29274
16.23891	18.19364	-4.29274
16.24309	18.30350	-4.29274
16.24728	18.43534	-4.29274
16.25147	18.54520	-4.29274
16.25565	18.54520	-4.29274
16.25983	18.67703	-4.29274
16.26409	18.78690	-4.29274
16.26835	18.91873	-4.29274
16.27256	19.02860	-4.29274
16.27675	19.13846	-4.29274
16.28094	19.22635	-4.29274
16.28513	19.22635	-4.29274
16.28931	19.33621	-4.29274
16.29350	19.44608	-4.29274
16.29780	19.55594	-4.29274
16.30200	19.64383	-4.29274
16.30619	19.77567	-4.29274
16.31037	19.77567	-4.29274
16.31456	19.86356	-4.29274
16.31885	19.97342	-4.29274
16.32303	20.03934	-4.29274
16.32745	20.12723	-4.29274
16.33166	20.21512	-4.29274
16.33585	20.30301	-4.29274
16.34003	20.30301	-4.29274
16.34422	20.39090	-4.29274
16.34840	20.47879	-4.29274
16.35260	20.54471	-4.29274
16.35687	20.61063	-4.29274
16.36114	20.67655	-4.29274
16.36535	20.72049	-4.29274
16.36953	20.72049	-4.29274
16.37372	20.76444	-4.29274
16.37790	20.83036	-4.29274
16.38209	20.85233	-4.29274
16.38627	20.87430	-4.29274
16.39057	20.87430	-4.29274
16.39477	20.89627	-4.29274
16.39897	20.91825	-4.29274
16.40316	20.91825	-4.29274
16.40734	20.91825	-4.29274
16.41153	20.91825	-4.29274
16.41571	20.91825	-4.29274
16.42007	20.89627	-4.29274
16.42432	20.87430	-4.29274
16.42852	20.85233	-4.29274
16.43268	20.80838	-4.29274
16.43687	20.80838	-4.29274
16.44105	20.78641	-4.29274
16.44524	20.72049	-4.29274
16.44942	20.67655	-4.29274
16.45372	20.63260	-4.29274
16.45792	20.56668	-4.29274
16.46211	20.52274	-4.29274
16.46629	20.52274	-4.29274
16.47048	20.43485	-4.29274
16.47467	20.39090	-4.29274
16.47885	20.30301	-4.29274
16.48326	20.23709	-4.29274
16.48746	20.17118	-4.29274
16.49165	20.10526	-4.29274
16.49584	20.10526	-4.29274
16.50004	20.01737	-4.29274
16.50422	19.95145	-4.29274
16.50843	19.86356	-4.29274
16.51274	19.77567	-4.29274
16.51703	19.68778	-4.29274
16.52134	19.68778	-4.29274
16.52552	19.59989	-4.29274
16.52971	19.51200	-4.29274
16.53390	19.44608	-4.29274
16.53808	19.35819	-4.29274
16.54227	19.27030	-4.29274
16.54657	19.18241	-4.29274
16.55078	19.18241	-4.29274
16.55497	19.09452	-4.29274
16.55915	19.00662	-4.29274
16.56334	18.91873	-4.29274
16.56753	18.80887	-4.29274
16.57172	18.80887	-4.29274
16.57615	18.72098	-4.29274
16.58036	18.63309	-4.29274
16.58456	18.54520	-4.29274
16.58875	18.43534	-4.29274
16.59294	18.32547	-4.29274
16.59712	18.23758	-4.29274
16.60131	18.23758	-4.29274
16.60557	18.12772	-4.29274
16.60986	18.03983	-4.29274
16.61407	17.92996	-4.29274
16.61826	17.82010	-4.29274
16.62255	17.73221	-4.29274
16.62674	17.62235	-4.29274
16.63092	17.62235	-4.29274
16.63510	17.53446	-4.29274
16.63940	17.42459	-4.29274
16.64360	17.29276	-4.29274
16.64779	17.20487	-4.29274
16.65198	17.20487	-4.29274
16.65616	17.07303	-4.29274
16.66035	16.96317	-4.29274
16.66453	16.85330	-4.29274
16.66875	16.74344	-4.29274
16.67301	16.61161	-4.29274
16.67720	16.61161	-4.29274
16.68139	16.50174	-4.29274
16.68557	16.39188	-4.29274
16.68976	16.28202	-4.29274
16.69394	16.15018	-4.29274
16.69813	16.04032	-4.29274
16.70242	16.04032	-4.29274
16.70662	15.90848	-4.29274
16.71081	15.82059	-4.29274
16.71500	15.71073	-4.29274
16.71919	15.57889	-4.29274
16.72348	15.44705	-4.29274
16.72766	15.44705	-4.29274
16.73208	15.33719	-4.29274
16.73628	15.20536	-4.29274
16.74046	15.07352	-4.29274
16.74466	14.96366	-4.29274
16.74884	14.85379	-4.29274
16.75303	14.72196	-4.29274
16.75721	14.72196	-4.29274
16.76147	14.59012	-4.29274
16.76575	14.48026	-4.29274
16.76995	14.34842	-4.29274
16.77414	14.21659	-4.29274
16.77832	14.08475	-4.29274
16.78251	14.08475	-4.29274
16.78669	13.95291	-4.29274
16.79088	13.82108	-4.29274
16.79517	13.73319	-4.29274
16.79938	13.60135	-4.29274
16.80357	13.46952	-4.29274
16.80775	13.33768	-4.29274
16.81194	13.33768	-4.29274
16.81612	13.20584	-4.29274
16.82031	13.07401	-4.29274
16.82469	12.94217	-4.29274
16.82895	12.81034	-4.29274
16.83315	12.70047	-4.29274
16.83733	12.70047	-4.29274
16.84152	12.56864	-4.29274
16.84570	12.41483	-4.29274
16.84989	12.28299	-4.29274
16.85407	12.15116	-4.29274
16.85837	12.01932	-4.29274
16.86257	12.01932	-4.29274
16.86676	11.88748	-4.29274
16.87095	11.75565	-4.29274
16.87513	11.62381	-4.29274
16.87932	11.51395	-4.29274
16.88350	11.38211	-4.29274
16.88791	11.25028	-4.29274
16.89212	11.25028	-4.29274
16.89631	11.11844	-4.29274
16.90050	10.98661	-4.29274
16.90468	10.85477	-4.29274
16.90886	10.72293	-4.29274
16.91305	10.72293	-4.29274
16.91731	10.56912	-4.29274
16.92159	10.45926	-4.29274
16.92589	10.30545	-4.29274
16.93008	10.17362	-4.29274
16.93427	10.04178	-4.29274
16.93846	10.04178	-4.29274
16.94264	9.90994	-4.29274
16.94683	9.77811	-4.29274
16.95113	9.64627	-4.29274
16.95533	9.51444	-4.29274
16.95952	9.38260	-4.29274
16.96371	9.27274	-4.29274
16.96790	9.27274	-4.29274
16.97209	9.14090	-4.29274
16.97627	9.00907	-4.29274
16.98053	8.87723	-4.29274
16.98476	8.74539	-4.29274
16.98895	8.61356	-4.29274
16.99314	8.61356	-4.29274
16.99733	8.48172	-4.29274
17.00152	8.34989	-4.29274
17.00573	8.24002	-4.29274
17.00991	8.10819	-4.29274
17.01422	7.97635	-4.29274
17.01843	7.97635	-4.29274
17.02261	7.86649	-4.29274
17.02691	7.73465	-4.29274
17.03110	7.60282	-4.29274
17.03529	7.47098	-4.29274
17.03947	7.33914	-4.29274
17.04397	7.33914	-4.29274
17.04821	7.20731	-4.29274
17.05241	7.11942	-4.29274
17.05660	6.98758	-4.29274
17.06079	6.85575	-4.29274
17.06498	6.72391	-4.29274
17.06917	6.61405	-4.29274
17.07344	6.61405	-4.29274
17.07772	6.48221	-4.29274
17.08192	6.35037	-4.29274
17.08611	6.24051	-4.29274
17.09030	6.13065	-4.29274
17.09448	5.99881	-4.29274
17.09867	5.88895	-4.29274
17.10285	5.88895	-4.29274
17.10716	5.75711	-4.29274
17.11137	5.64725	-4.29274
17.11556	5.51541	-4.29274
17.11975	5.40555	-4.29274
17.12393	5.40555	-4.29274
17.12822	5.29569	-4.29274
17.13241	5.16385	-4.29274
17.13692	5.07596	-4.29274
17.14114	4.94412	-4.29274
17.14533	4.85623	-4.29274
17.14952	4.72440	-4.29274
17.15371	4.72440	-4.29274
17.15789	4.61453	-4.29274
17.16208	4.50467	-4.29274
17.16634	4.37284	-4.29274
17.17061	4.28494	-4.29274
17.17480	4.15311	-4.29274
17.17899	4.15311	-4.29274
17.18318	4.04325	-4.29274
17.18737	3.93338	-4.29274
17.19156	3.84549	-4.29274
17.19574	3.71366	-4.29274
17.20005	3.60379	-4.29274
17.20425	3.60379	-4.29274
17.20845	3.51590	-4.29274
17.21265	3.40604	-4.29274
17.21683	3.29618	-4.29274
17.22102	3.20828	-4.29274
17.22520	3.09842	-4.29274
17.22976	3.01053	-4.29274
17.23397	3.01053	-4.29274
17.23815	2.90067	-4.29274
17.24234	2.79080	-4.29274
17.24653	2.70291	-4.29274
17.25071	2.61502	-4.29274
17.25490	2.61502	-4.29274
17.25916	2.50516	-4.29274
17.26342	2.43924	-4.29274
17.26762	2.32938	-4.29274
17.27181	2.24149	-4.29274
17.27600	2.13162	-4.29274
17.28019	2.06571	-4.29274
17.28437	2.06571	-4.29274
17.28857	1.95584	-4.29274
17.29288	1.86795	-4.29274
17.29709	1.78006	-4.29274
17.30128	1.69217	-4.29274
17.30547	1.62625	-4.29274
17.30965	1.53836	-4.29274
17.31384	1.53836	-4.29274
17.31802	1.45047	-4.29274
17.32247	1.36258	-4.29274
17.32668	1.27469	-4.29274
17.33098	1.20877	-4.29274
17.33516	1.12088	-4.29274
17.33935	1.12088	-4.29274
17.34354	1.03299	-4.29274
17.34772	0.96707	-4.29274
17.35197	0.90116	-4.29274
17.35624	0.81327	-4.29274
17.36044	0.74735	-4.29274
17.36464	0.74735	-4.29274
17.36883	0.65946	-4.29274
17.37302	0.59354	-4.29274
17.37720	0.52762	-4.29274
17.38139	0.43973	-4.29274
17.38571	0.37381	-4.29274
17.38992	0.32987	-4.29274
17.39411	0.32987	-4.29274
17.39830	0.26395	-4.29274
17.40249	0.19803	-4.29274
17.40668	0.13211	-4.29274
17.41087	0.06619	-4.29274
17.41533	0.02225	-4.29274
17.41954	0.02225	-4.29274
17.42373	-0.04367	-4.29274
17.42792	-0.08761	-4.29274
17.43221	-0.15353	-4.29274
17.43641	-0.19748	-4.29274
17.44060	-0.26339	-4.29274
17.44486	-0.26339	-4.29274
17.44914	-0.32931	-4.29274
17.45333	-0.37326	-4.29274
17.45752	-0.41720	-4.29274
17.46171	-0.46115	-4.29274
17.46589	-0.46115	-4.29274
17.47008	-0.50509	-4.29274
17.47426	-0.54904	-4.29274
17.47856	-0.59298	-4.29274
17.48277	-0.63693	-4.29274
17.48696	-0.68088	-4.29274
17.49114	-0.72482	-4.29274
17.49533	-0.72482	-4.29274
17.49951	-0.76877	-4.29274
17.50370	-0.79074	-4.29274
17.50797	-0.83468	-4.29274
17.51225	-0.87863	-4.29274
17.51645	-0.90060	-4.29274
17.52064	-0.92257	-4.29274
17.52483	-0.92257	-4.29274
17.52902	-0.94455	-4.29274
17.53331	-0.98849	-4.29274
17.53749	-1.01047	-4.29274
17.54179	-1.03244	-4.29274
17.54600	-1.03244	-4.29274
17.55019	-1.05441	-4.29274
17.55437	-1.07638	-4.29274
17.55856	-1.09836	-4.29274
17.56274	-1.12033	-4.29274
17.56693	-1.14230	-4.29274
17.57118	-1.16427	-4.29274
17.57544	-1.16427	-4.29274
17.57964	-1.16427	-4.29274
17.58383	-1.18625	-4.29274
17.58802	-1.20822	-4.29274
17.59221	-1.23019	-4.29274
17.59639	-1.23019	-4.29274
17.60059	-1.23019	-4.29274
17.60489	-1.23019	-4.29274
17.60910	-1.25216	-4.29274
17.61329	-1.25216	-4.29274
17.61747	-1.25216	-4.29274
17.62166	-1.25216	-4.29274
17.62584	-1.25216	-4.29274
17.63003	-1.27414	-4.29274
17.63457	-1.27414	-4.29274
17.63877	-1.27414	-4.29274
17.64296	-1.27414	-4.29274
17.64715	-1.27414	-4.29274
17.65133	-1.25216	-4.29274
17.65552	-1.25216	-4.29274
17.65971	-1.25216	-4.29274
17.66396	-1.25216	-4.29274
17.66823	-1.25216	-4.29274
17.67242	-1.23019	-4.29274
17.67662	-1.23019	-4.29274
17.68080	-1.23019	-4.29274
17.68499	-1.20822	-4.29274
17.68917	-1.20822	-4.29274
17.69336	-1.18625	-4.29274
17.69766	-1.16427	-4.29274
17.70186	-1.16427	-4.29274
17.70605	-1.16427	-4.29274
17.71023	-1.14230	-4.29274
17.71442	-1.12033	-4.29274
17.71860	-1.09836	-4.29274
17.72279	-1.07638	-4.29274
17.72703	-1.07638	-4.29274
17.73131	-1.05441	-4.29274
17.73561	-1.03244	-4.29274
17.73979	-1.01047	-4.29274
17.74398	-0.98849	-4.29274
17.74816	-0.96652	-4.29274
17.75235	-0.92257	-4.29274
17.75653	-0.92257	-4.29274
17.76089	-0.90060	-4.29274
17.76511	-0.87863	-4.29274
17.76932	-0.83468	-4.29274
17.77351	-0.81271	-4.29274
17.77771	-0.76877	-4.29274
17.78190	-0.74679	-4.29274
17.78609	-0.74679	-4.29274
17.79047	-0.70285	-4.29274
17.79471	-0.68088	-4.29274
17.79890	-0.61496	-4.29274
17.80309	-0.59298	-4.29274
17.80728	-0.54904	-4.29274
17.81147	-0.54904	-4.29274
17.81565	-0.50509	-4.29274
17.81991	-0.46115	-4.29274
17.82419	-0.41720	-4.29274
17.82841	-0.37326	-4.29274
17.83260	-0.32931	-4.29274
17.83690	-0.28537	-4.29274
17.84109	-0.28537	-4.29274
17.84527	-0.24142	-4.29274
17.84946	-0.19748	-4.29274
17.85375	-0.13156	-4.29274
17.85796	-0.08761	-4.29274
17.86214	-0.04367	-4.29274
17.86633	-0.04367	-4.29274
17.87052	0.00028	-4.29274
17.87470	0.06619	-4.29274
17.87889	0.11014	-4.29274
17.88314	0.17606	-4.29274
17.88741	0.22000	-4.29274
17.89161	0.22000	-4.29274
17.89580	0.28592	-4.29274
17.89998	0.35184	-4.29274
17.90417	0.37381	-4.29274
17.90835	0.43973	-4.29274
17.91253	0.50565	-4.29274
17.91679	0.54959	-4.29274
17.92099	0.54959	-4.29274
17.92518	0.61551	-4.29274
17.92937	0.68143	-4.29274
17.93355	0.74735	-4.29274
17.93785	0.81327	-4.29274
17.94203	0.81327	-4.29274
17.94640	0.87918	-4.29274
17.95064	0.94510	-4.29274
17.95484	1.01102	-4.29274
17.95902	1.07694	-4.29274
17.96321	1.16483	-4.29274
17.96739	1.16483	-4.29274
17.97158	1.23075	-4.29274
17.97585	1.27469	-4.29274
17.98015	1.36258	-4.29274
17.98435	1.42850	-4.29274
17.98854	1.49442	-4.29274
17.99268	1.56034	-4.29274
17.99687	1.56034	-4.29274
18.00106	1.64823	-4.29274
18.00524	1.71414	-4.29274
18.00955	1.80203	-4.29274
18.01377	1.86795	-4.29274
18.01795	1.86795	-4.29274
18.02214	1.95584	-4.29274
18.02632	1.99979	-4.29274
18.03051	2.08768	-4.29274
18.03469	2.15360	-4.29274
18.03906	2.24149	-4.29274
18.04333	2.30741	-4.29274
18.04752	2.30741	-4.29274
18.05171	2.39530	-4.29274
18.05590	2.46121	-4.29274
18.06008	2.54911	-4.29274
18.06427	2.61502	-4.29274
18.06846	2.72489	-4.29274
18.07278	2.76883	-4.29274
18.07699	2.76883	-4.29274
18.08118	2.85672	-4.29274
18.08537	2.94461	-4.29274
18.08955	3.03250	-4.29274
18.09374	3.09842	-4.29274
18.09792	3.09842	-4.29274
18.10239	3.18631	-4.29274
18.10662	3.25223	-4.29274
18.11082	3.34012	-4.29274
18.11502	3.40604	-4.29274
18.11922	3.49393	-4.29274
18.12341	3.58182	-4.29274
18.12761	3.58182	-4.29274
18.13187	3.66971	-4.29274
18.13617	3.75760	-4.29274
18.14049	3.82352	-4.29274
18.14469	3.91141	-4.29274
18.14888	3.99930	-4.29274
18.15307	3.99930	-4.29274
18.15726	4.08719	-4.29274
18.16145	4.15311	-4.29274
18.16576	4.24100	-4.29274
18.16997	4.30692	-4.29274
18.17417	4.39481	-4.29274
18.17836	4.48270	-4.29274
18.18255	4.48270	-4.29274
18.18674	4.57059	-4.29274
18.19093	4.65848	-4.29274
18.19538	4.74637	-4.29274
18.19959	4.83426	-4.29274
18.20378	4.92215	-4.29274
18.20798	4.92215	-4.29274
18.21217	4.98807	-4.29274
18.21637	5.07596	-4.29274
18.22057	5.16385	-4.29274
18.22483	5.25174	-4.29274
18.22913	5.33963	-4.29274
18.23333	5.33963	-4.29274
18.23752	5.42752	-4.29274
18.24183	5.49344	-4.29274
18.24601	5.55936	-4.29274
18.25020	5.64725	-4.29274
18.25438	5.73514	-4.29274
18.25867	5.73514	-4.29274
18.26287	5.82303	-4.29274
18.26706	5.91092	-4.29274
18.27125	5.99881	-4.29274
18.27544	6.06473	-4.29274
18.27963	6.15262	-4.29274
18.28382	6.21854	-4.29274
18.28829	6.21854	-4.29274
18.29252	6.30643	-4.29274
18.29670	6.39432	-4.29274
18.30089	6.46024	-4.29274
18.30508	6.54813	-4.29274
18.30927	6.63602	-4.29274
18.31346	6.63602	-4.29274
18.31773	6.70194	-4.29274
18.32203	6.78983	-4.29274
18.32623	6.87772	-4.29274
18.33043	6.94364	-4.29274
18.33462	7.00955	-4.29274
18.33881	7.09744	-4.29274
18.34312	7.09744	-4.29274
18.34731	7.18534	-4.29274
18.35161	7.25125	-4.29274
18.35582	7.33914	-4.29274
18.36002	7.42703	-4.29274
18.36421	7.42703	-4.29274
18.36840	7.55887	-4.29274
18.37260	7.55887	-4.29274
18.37680	7.62479	-4.29274
18.38124	7.71268	-4.29274
18.38546	7.77860	-4.29274
18.38965	7.86649	-4.29274
18.39384	7.86649	-4.29274
18.39803	7.93241	-4.29274
18.40223	8.02030	-4.29274
18.40641	8.08621	-4.29274
18.41069	8.15213	-4.29274
18.41496	8.21805	-4.29274
18.41916	8.28397	-4.29274
18.42336	8.28397	-4.29274
18.42755	8.37186	-4.29274
18.43173	8.43778	-4.29274
18.43592	8.50369	-4.29274
18.44018	8.59159	-4.29274
18.44459	8.65750	-4.29274
18.44879	8.65750	-4.29274
18.45297	8.72342	-4.29274
18.45716	8.78934	-4.29274
18.46134	8.85526	-4.29274
18.46552	8.92118	-4.29274
18.46971	8.92118	-4.29274
18.47401	8.98709	-4.29274
18.47822	9.07498	-4.29274
18.48240	9.14090	-4.29274
18.48659	9.20682	-4.29274
18.49077	9.27274	-4.29274
18.49496	9.27274	-4.29274
18.49914	9.31668	-4.29274
18.50339	9.38260	-4.29274
18.50767	9.44852	-4.29274
18.51187	9.51444	-4.29274
18.51606	9.58036	-4.29274
18.52025	9.62430	-4.29274
18.52444	9.62430	-4.29274
18.52864	9.69022	-4.29274
18.53282	9.75614	-4.29274
18.53712	9.82205	-4.29274
18.54132	9.86600	-4.29274
18.54561	9.93192	-4.29274
18.54980	9.97586	-4.29274
18.55398	9.97586	-4.29274
18.55817	10.04178	-4.29274
18.56236	10.10770	-4.29274
18.56679	10.15164	-4.29274
18.57101	10.19559	-4.29274
18.57521	10.19559	-4.29274
18.57940	10.26151	-4.29274
18.58359	10.32743	-4.29274
18.58779	10.37137	-4.29274
18.59198	10.41532	-4.29274
18.59625	10.48123	-4.29274
18.60055	10.52518	-4.29274
18.60476	10.52518	-4.29274
18.60895	10.56912	-4.29274
18.61315	10.61307	-4.29274
18.61734	10.67899	-4.29274
18.62153	10.72293	-4.29274
18.62572	10.76688	-4.29274
18.63003	10.81082	-4.29274
18.63424	10.81082	-4.29274
18.63843	10.85477	-4.29274
18.64262	10.89871	-4.29274
18.64693	10.94266	-4.29274
18.65112	10.98661	-4.29274
18.65531	11.03055	-4.29274
18.65973	11.03055	-4.29274
18.66395	11.07450	-4.29274
18.66814	11.11844	-4.29274
18.67234	11.14041	-4.29274
18.67653	11.18436	-4.29274
18.68068	11.22830	-4.29274
18.68487	11.27225	-4.29274
18.68914	11.27225	-4.29274
18.69343	11.31619	-4.29274
18.69764	11.36014	-4.29274
18.70183	11.38211	-4.29274
18.70601	11.40409	-4.29274
18.71020	11.40409	-4.29274
18.71438	11.47000	-4.29274
18.71857	11.49198	-4.29274
18.72287	11.51395	-4.29274
18.72708	11.55789	-4.29274
18.73127	11.57987	-4.29274
18.73546	11.57987	-4.29274
18.73964	11.62381	-4.29274
18.74383	11.64578	-4.29274
18.74812	11.66776	-4.29274
18.75257	11.71170	-4.29274
18.75678	11.73368	-4.29274
18.76097	11.75565	-4.29274
18.76515	11.75565	-4.29274
18.76934	11.79959	-4.29274
18.77352	11.79959	-4.29274
18.77771	11.84354	-4.29274
18.78197	11.86551	-4.29274
18.78625	11.88748	-4.29274
18.79045	11.88748	-4.29274
18.79463	11.90946	-4.29274
18.79882	11.93143	-4.29274
18.80300	11.95340	-4.29274
18.80719	11.95340	-4.29274
18.81137	11.97537	-4.29274
18.81567	11.97537	-4.29274
18.81988	11.99735	-4.29274
18.82408	12.01932	-4.29274
18.82827	12.04129	-4.29274
18.83245	12.06327	-4.29274
18.83665	12.06327	-4.29274
18.84084	12.08524	-4.29274
18.84509	12.08524	-4.29274
18.84947	12.08524	-4.29274
18.85366	12.10721	-4.29274
18.85785	12.12918	-4.29274
18.86203	12.12918	-4.29274
18.86622	12.12918	-4.29274
18.87041	12.12918	-4.29274
18.87459	12.15116	-4.29274
18.87889	12.15116	-4.29274
18.88309	12.15116	-4.29274
18.88728	12.17313	-4.29274
18.89147	12.17313	-4.29274
18.89565	12.17313	-4.29274
18.89984	12.17313	-4.29274
18.90403	12.17313	-4.29274
18.90844	12.17313	-4.29274
18.91267	12.19510	-4.29274
18.91686	12.19510	-4.29274
18.92105	12.19510	-4.29274
18.92525	12.17313	-4.29274
18.92944	12.19510	-4.29274
18.93362	12.19510	-4.29274
18.93794	12.17313	-4.29274
18.94224	12.17313	-4.29274
18.94645	12.17313	-4.29274
18.95075	12.17313	-4.29274
18.95494	12.17313	-4.29274
18.95914	12.17313	-4.29274
18.96333	12.15116	-4.29274
18.96752	12.15116	-4.29274
18.97185	12.15116	-4.29274
18.97606	12.15116	-4.29274
18.98025	12.12918	-4.29274
18.98444	12.12918	-4.29274
18.98864	12.10721	-4.29274
18.99283	12.10721	-4.29274
18.99701	12.10721	-4.29274
19.00144	12.08524	-4.29274
19.00566	12.06327	-4.29274
19.00985	12.06327	-4.29274
19.01405	12.04129	-4.29274
19.01824	12.01932	-4.29274
19.02243	12.01932	-4.29274
19.02662	12.01932	-4.29274
19.03088	11.99735	-4.29274
19.03517	11.97537	-4.29274
19.03937	11.95340	-4.29274
19.04357	11.93143	-4.29274
19.04776	11.90946	-4.29274
19.05206	11.88748	-4.29274
19.05625	11.88748	-4.29274
19.06044	11.88748	-4.29274
19.06477	11.86551	-4.29274
19.06898	11.82157	-4.29274
19.07319	11.82157	-4.29274
19.07739	11.77762	-4.29274
19.08160	11.77762	-4.29274
19.08579	11.75565	-4.29274
19.08998	11.73368	-4.29274
19.09442	11.71170	-4.29274
19.09864	11.68973	-4.29274
19.10283	11.64578	-4.29274
19.10702	11.62381	-4.29274
19.11122	11.62381	-4.29274
19.11541	11.60184	-4.29274
19.11960	11.57987	-4.29274
19.12388	11.53592	-4.29274
19.12816	11.51395	-4.29274
19.13237	11.47000	-4.29274
19.13657	11.44803	-4.29274
19.14075	11.44803	-4.29274
19.14494	11.40409	-4.29274
19.14912	11.38211	-4.29274
19.15353	11.36014	-4.29274
19.15782	11.31619	-4.29274
19.16201	11.27225	-4.29274
19.16620	11.27225	-4.29274
19.17038	11.25028	-4.29274
19.17458	11.20633	-4.29274
19.17877	11.16239	-4.29274
19.18297	11.14041	-4.29274
19.18727	11.09647	-4.29274
19.19148	11.09647	-4.29274
19.19567	11.07450	-4.29274
19.19986	11.03055	-4.29274
19.20405	10.98661	-4.29274
19.20824	10.94266	-4.29274
19.21242	10.89871	-4.29274
19.21687	10.89871	-4.29274
19.22108	10.85477	-4.29274
19.22528	10.81082	-4.29274
19.22948	10.76688	-4.29274
19.23367	10.74491	-4.29274
19.23786	10.67899	-4.29274
19.24205	10.67899	-4.29274
19.24631	10.63504	-4.29274
19.25061	10.59110	-4.29274
19.25492	10.54715	-4.29274
19.25912	10.50321	-4.29274
19.26331	10.50321	-4.29274
19.26750	10.41532	-4.29274
19.27171	10.41532	-4.29274
19.27593	10.37137	-4.29274
19.28025	10.32743	-4.29274
19.28446	10.26151	-4.29274
19.28867	10.21756	-4.29274
19.29287	10.21756	-4.29274
19.29706	10.15164	-4.29274
19.30126	10.10770	-4.29274
19.30544	10.06375	-4.29274
19.30990	10.01981	-4.29274
19.31411	9.97586	-4.29274
19.31830	9.93192	-4.29274
19.32249	9.93192	-4.29274
19.32668	9.86600	-4.29274
19.33087	9.80008	-4.29274
19.33505	9.75614	-4.29274
19.33930	9.71219	-4.29274
19.34359	9.64627	-4.29274
19.34779	9.64627	-4.29274
19.35198	9.60233	-4.29274
19.35627	9.55838	-4.29274
19.36045	9.49246	-4.29274
19.36465	9.44852	-4.29274
19.36883	9.38260	-4.29274
19.37315	9.31668	-4.29274
19.37737	9.31668	-4.29274
19.38156	9.27274	-4.29274
19.38575	9.20682	-4.29274
19.38994	9.14090	-4.29274
19.39412	9.09696	-4.29274
19.39831	9.05301	-4.29274
19.40256	9.05301	-4.29274
19.40682	8.98709	-4.29274
19.41102	8.94315	-4.29274
19.41521	8.87723	-4.29274
19.41939	8.81131	-4.29274
19.42358	8.74539	-4.29274
19.42776	8.74539	-4.29274
19.43195	8.67948	-4.29274
19.43625	8.61356	-4.29274
19.44045	8.59159	-4.29274
19.44465	8.52567	-4.29274
19.44884	8.45975	-4.29274
19.45302	8.39383	-4.29274
19.45731	8.39383	-4.29274
19.46150	8.34989	-4.29274
19.46592	8.28397	-4.29274
19.47013	8.19608	-4.29274
19.47435	8.15213	-4.29274
19.47855	8.08621	-4.29274
19.48274	8.08621	-4.29274
19.48693	8.02030	-4.29274
19.49113	7.95438	-4.29274
19.49539	7.91043	-4.29274
19.49968	7.84452	-4.29274
19.50389	7.84452	-4.29274
19.50808	7.77860	-4.29274
19.51227	7.71268	-4.29274
19.51647	7.64676	-4.29274
19.52066	7.58084	-4.29274
19.52487	7.53690	-4.29274
19.52919	7.47098	-4.29274
19.53341	7.47098	-4.29274
19.53760	7.40506	-4.29274
19.54180	7.33914	-4.29274
19.54599	7.27323	-4.29274
19.55018	7.20731	-4.29274
19.55437	7.14139	-4.29274
19.55878	7.14139	-4.29274
19.56303	7.07547	-4.29274
19.56723	7.03153	-4.29274
19.57144	6.96561	-4.29274
19.57563	6.89969	-4.29274
19.57982	6.83377	-4.29274
19.58401	6.76786	-4.29274
19.58828	6.76786	-4.29274
19.59260	6.70194	-4.29274
19.59681	6.63602	-4.29274
19.60100	6.57010	-4.29274
19.60519	6.50418	-4.29274
19.60937	6.46024	-4.29274
19.61356	6.46024	-4.29274
19.61774	6.39432	-4.29274
19.62204	6.32840	-4.29274
19.62625	6.26248	-4.29274
19.63044	6.19657	-4.29274
19.63463	6.13065	-4.29274
19.63881	6.13065	-4.29274
19.64300	6.06473	-4.29274
19.64719	5.99881	-4.29274
19.65145	5.95487	-4.29274
19.65573	5.88895	-4.29274
19.66005	5.82303	-4.29274
19.66425	5.75711	-4.29274
19.66843	5.75711	-4.29274
19.67265	5.69119	-4.29274
19.67684	5.62528	-4.29274
19.68110	5.55936	-4.29274
19.68539	5.51541	-4.29274
19.68959	5.44950	-4.29274
19.69377	5.38358	-4.29274
19.69796	5.38358	-4.29274
19.70215	5.33963	-4.29274
19.70633	5.27371	-4.29274
19.71052	5.20780	-4.29274
19.71483	5.14188	-4.29274
19.71903	5.14188	-4.29274
19.72322	5.07596	-4.29274
19.72741	5.01004	-4.29274
19.73160	4.96610	-4.29274
19.73579	4.90018	-4.29274
19.73997	4.83426	-4.29274
19.74423	4.83426	-4.29274
19.74851	4.79032	-4.29274
19.75271	4.70243	-4.29274
19.75690	4.65848	-4.29274
19.76120	4.59256	-4.29274
19.76539	4.54862	-4.29274
19.76958	4.54862	-4.29274
19.77387	4.48270	-4.29274
19.77817	4.41678	-4.29274
19.78237	4.37284	-4.29274
19.78656	4.30692	-4.29274
19.79075	4.26297	-4.29274
19.79493	4.19705	-4.29274
19.79912	4.19705	-4.29274
19.80331	4.13114	-4.29274
19.80761	4.06522	-4.29274
19.81183	4.02127	-4.29274
19.81602	3.95536	-4.29274
19.82020	3.93338	-4.29274
19.82439	3.93338	-4.29274
19.82858	3.86746	-4.29274
19.83277	3.82352	-4.29274
19.83702	3.75760	-4.29274
19.84129	3.69168	-4.29274
19.84549	3.64774	-4.29274
19.84967	3.64774	-4.29274
19.85386	3.60379	-4.29274
19.85804	3.53787	-4.29274
19.86234	3.49393	-4.29274
19.86653	3.44998	-4.29274
19.87083	3.40604	-4.29274
19.87506	3.34012	-4.29274
19.87925	3.34012	-4.29274
19.88344	3.29618	-4.29274
19.88762	3.25223	-4.29274
19.89181	3.20828	-4.29274
19.89599	3.14237	-4.29274
19.90041	3.09842	-4.29274
19.90463	3.05448	-4.29274
19.90882	3.05448	-4.29274
19.91302	3.01053	-4.29274
19.91721	2.96659	-4.29274
19.92140	2.92264	-4.29274
19.92559	2.87869	-4.29274
19.92985	2.87869	-4.29274
19.93414	2.83475	-4.29274
19.93836	2.79080	-4.29274
19.94256	2.72489	-4.29274
19.94676	2.70291	-4.29274
19.95096	2.65897	-4.29274
19.95515	2.61502	-4.29274
19.95934	2.61502	-4.29274
19.96377	2.57108	-4.29274
19.96798	2.52713	-4.29274
19.97219	2.50516	-4.29274
19.97639	2.43924	-4.29274
19.98059	2.41727	-4.29274
19.98479	2.41727	-4.29274
19.98898	2.37332	-4.29274
19.99342	2.32938	-4.29274
19.99764	2.30741	-4.29274
20.00183	2.26346	-4.29274
20.00603	2.21952	-4.29274
20.01023	2.21952	-4.29274
20.01442	2.19754	-4.29274
20.01862	2.15360	-4.29274
20.02288	2.13162	-4.29274
20.02717	2.08768	-4.29274
20.03138	2.08768	-4.29274
20.03558	2.04373	-4.29274
20.03977	2.04373	-4.29274
20.04396	2.02176	-4.29274
20.04815	1.97782	-4.29274
20.05234	1.95584	-4.29274
20.05668	1.91190	-4.29274
20.06090	1.91190	-4.29274
20.06562	1.88993	-4.29274
20.06983	1.86795	-4.29274
20.07404	1.84598	-4.29274
20.07824	1.82401	-4.29274
20.08243	1.80203	-4.29274
20.08687	1.78006	-4.29274
20.09109	1.75809	-4.29274
20.09529	1.75809	-4.29274
20.09948	1.73612	-4.29274
20.10367	1.71414	-4.29274
20.10785	1.69217	-4.29274
20.11204	1.67020	-4.29274
20.11630	1.67020	-4.29274
20.12063	1.64823	-4.29274
20.12483	1.64823	-4.29274
20.12902	1.62625	-4.29274
20.13321	1.62625	-4.29274
20.13740	1.60428	-4.29274
20.14158	1.58231	-4.29274
20.14577	1.58231	-4.29274
20.15007	1.58231	-4.29274
20.15427	1.56034	-4.29274
20.15846	1.56034	-4.29274
20.16265	1.56034	-4.29274
20.16694	1.53836	-4.29274
20.17113	1.51639	-4.29274
20.17533	1.51639	-4.29274
20.17977	1.53836	-4.29274
20.18400	1.51639	-4.29274
20.18819	1.51639	-4.29274
20.19239	1.51639	-4.29274
20.19659	1.51639	-4.29274
20.20079	1.51639	-4.29274
20.20498	1.49442	-4.29274
20.20925	1.49442	-4.29274
20.21355	1.49442	-4.29274
20.21775	1.49442	-4.29274
20.22195	1.49442	-4.29274
20.22614	1.51639	-4.29274
20.23033	1.51639	-4.29274
20.23452	1.51639	-4.29274
20.23872	1.51639	-4.29274
20.24304	1.51639	-4.29274
20.24725	1.51639	-4.29274
20.25145	1.51639	-4.29274
20.25564	1.53836	-4.29274
20.25983	1.53836	-4.29274
20.26402	1.53836	-4.29274
20.26838	1.56034	-4.29274
20.27293	1.56034	-4.29274
20.27718	1.56034	-4.29274
20.28139	1.56034	-4.29274
20.28558	1.58231	-4.29274
20.28977	1.60428	-4.29274
20.29398	1.60428	-4.29274
20.29817	1.62625	-4.29274
20.30244	1.64823	-4.29274
20.30672	1.64823	-4.29274
20.31092	1.67020	-4.29274
20.31511	1.69217	-4.29274
20.31930	1.69217	-4.29274
20.32348	1.71414	-4.29274
20.32767	1.73612	-4.29274
20.33185	1.75809	-4.29274
20.33616	1.75809	-4.29274
20.34037	1.78006	-4.29274
20.34457	1.80203	-4.29274
20.34876	1.82401	-4.29274
20.35295	1.84598	-4.29274
20.35713	1.86795	-4.29274
20.36132	1.86795	-4.29274
20.36574	1.91190	-4.29274
20.37006	1.93387	-4.29274
20.37427	1.95584	-4.29274
20.37848	1.97782	-4.29274
20.38268	1.99979	-4.29274
20.38687	2.04373	-4.29274
20.39106	2.04373	-4.29274
20.39534	2.06571	-4.29274
20.39962	2.10965	-4.29274
20.40383	2.13162	-4.29274
20.40803	2.15360	-4.29274
20.41223	2.15360	-4.29274
20.41642	2.19754	-4.29274
20.42062	2.21952	-4.29274
20.42481	2.26346	-4.29274
20.42913	2.28543	-4.29274
20.43334	2.30741	-4.29274
20.43753	2.35135	-4.29274
20.44172	2.35135	-4.29274
20.44591	2.39530	-4.29274
20.45011	2.43924	-4.29274
20.45430	2.46121	-4.29274
20.45872	2.50516	-4.29274
20.46293	2.52713	-4.29274
20.46712	2.57108	-4.29274
20.47141	2.57108	-4.29274
20.47561	2.61502	-4.29274
20.47980	2.65897	-4.29274
20.48400	2.68094	-4.29274
20.48826	2.72489	-4.29274
20.49253	2.76883	-4.29274
20.49670	2.76883	-4.29274
20.50089	2.81278	-4.29274
20.50507	2.85672	-4.29274
20.50926	2.90067	-4.29274
20.51344	2.94461	-4.29274
20.51763	2.94461	-4.29274
20.52193	2.98856	-4.29274
20.52613	3.03250	-4.29274
20.53032	3.07645	-4.29274
20.53450	3.12039	-4.29274
20.53869	3.16434	-4.29274
20.54287	3.16434	-4.29274
20.54706	3.18631	-4.29274
20.55131	3.23026	-4.29274
20.55558	3.27420	-4.29274
20.55977	3.34012	-4.29274
20.56396	3.38407	-4.29274
20.56815	3.42801	-4.29274
20.57244	3.42801	-4.29274
20.57663	3.47196	-4.29274
20.58082	3.51590	-4.29274
20.58513	3.58182	-4.29274
20.58933	3.60379	-4.29274
20.59352	3.64774	-4.29274
20.59771	3.64774	-4.29274
20.60189	3.71366	-4.29274
20.60608	3.75760	-4.29274
20.61027	3.80155	-4.29274
20.61471	3.86746	-4.29274
20.61892	3.91141	-4.29274
20.62312	3.91141	-4.29274
20.62732	3.95536	-4.29274
20.63151	3.99930	-4.29274
20.63570	4.06522	-4.29274
20.63989	4.10916	-4.29274
20.64417	4.15311	-4.29274
20.64846	4.19705	-4.29274
20.65268	4.19705	-4.29274
20.65687	4.26297	-4.29274
20.66106	4.30692	-4.29274
20.66525	4.35086	-4.29274
20.66944	4.41678	-4.29274
20.67374	4.46073	-4.29274
20.67805	4.50467	-4.29274
20.68226	4.50467	-4.29274
20.68645	4.54862	-4.29274
20.69064	4.61453	-4.29274
20.69484	4.65848	-4.29274
20.69903	4.72440	-4.29274
20.70322	4.76834	-4.29274
20.70765	4.76834	-4.29274
20.71187	4.83426	-4.29274
20.71606	4.87821	-4.29274
20.72025	4.92215	-4.29274
20.72444	4.98807	-4.29274
20.72864	5.03202	-4.29274
20.73283	5.03202	-4.29274
20.73709	5.07596	-4.29274
20.74139	5.14188	-4.29274
20.74559	5.18582	-4.29274
20.74978	5.25174	-4.29274
20.75397	5.29569	-4.29274
20.75818	5.29569	-4.29274
20.76237	5.36161	-4.29274
20.76656	5.40555	-4.29274
20.77086	5.47147	-4.29274
20.77517	5.51541	-4.29274
20.77936	5.58133	-4.29274
20.78355	5.58133	-4.29274
20.78773	5.62528	-4.29274
20.79192	5.66922	-4.29274
20.79611	5.73514	-4.29274
20.80057	5.77909	-4.29274
20.80478	5.82303	-4.29274
20.80896	5.88895	-4.29274
20.81315	5.88895	-4.29274
20.81734	5.93289	-4.29274
20.82152	5.99881	-4.29274
20.82571	6.04276	-4.29274
20.82996	6.08670	-4.29274
20.83425	6.15262	-4.29274
20.83845	6.15262	-4.29274
20.84264	6.19657	-4.29274
20.84683	6.24051	-4.29274
20.85102	6.30643	-4.29274
20.85520	6.35037	-4.29274
20.85939	6.39432	-4.29274
20.86369	6.39432	-4.29274
20.86789	6.46024	-4.29274
20.87208	6.50418	-4.29274
20.87637	6.54813	-4.29274
20.88058	6.59207	-4.29274
20.88476	6.65799	-4.29274
20.88895	6.67996	-4.29274
20.89338	6.67996	-4.29274
20.89759	6.74588	-4.29274
20.90179	6.78983	-4.29274
20.90598	6.85575	-4.29274
20.91017	6.89969	-4.29274
20.91436	6.94364	-4.29274
20.91855	6.94364	-4.29274
20.92280	6.98758	-4.29274
20.92709	7.05350	-4.29274
20.93129	7.07547	-4.29274
20.93549	7.14139	-4.29274
20.93969	7.18534	-4.29274
20.94388	7.22928	-4.29274
20.94808	7.22928	-4.29274
20.95227	7.27323	-4.29274
20.95660	7.31717	-4.29274
20.96082	7.36112	-4.29274
20.96501	7.42703	-4.29274
20.96921	7.42703	-4.29274
20.97340	7.47098	-4.29274
20.97770	7.51493	-4.29274
20.98189	7.55887	-4.29274
20.98633	7.60282	-4.29274
20.99054	7.64676	-4.29274
20.99473	7.69071	-4.29274
20.99892	7.69071	-4.29274
21.00312	7.73465	-4.29274
21.00731	7.77860	-4.29274
21.01149	7.82254	-4.29274
21.01575	7.86649	-4.29274
21.02001	7.91043	-4.29274
21.02421	7.91043	-4.29274
21.02840	7.95438	-4.29274
21.03259	7.99832	-4.29274
21.03678	8.04227	-4.29274
21.04096	8.08621	-4.29274
21.04515	8.08621	-4.29274
21.04948	8.13016	-4.29274
21.05369	8.17411	-4.29274
21.05788	8.21805	-4.29274
21.06207	8.24002	-4.29274
21.06626	8.28397	-4.29274
21.07045	8.32791	-4.29274
21.07463	8.32791	-4.29274
21.07921	8.37186	-4.29274
21.08342	8.39383	-4.29274
21.08762	8.43778	-4.29274
21.09181	8.48172	-4.29274
21.09601	8.52567	-4.29274
21.10020	8.54764	-4.29274
21.10439	8.54764	-4.29274
21.10869	8.59159	-4.29274
21.11296	8.61356	-4.29274
21.11721	8.65750	-4.29274
21.12142	8.70145	-4.29274
21.12561	8.74539	-4.29274
21.12981	8.74539	-4.29274
21.13400	8.76737	-4.29274
21.13819	8.81131	-4.29274
21.14251	8.83328	-4.29274
21.14672	8.87723	-4.29274
21.15091	8.89920	-4.29274
21.15511	8.94315	-4.29274
21.15930	8.94315	-4.29274
21.16349	8.96512	-4.29274
21.16768	9.00907	-4.29274
21.17213	9.05301	-4.29274
21.17635	9.07498	-4.29274
21.18067	9.09696	-4.29274
21.18487	9.11893	-4.29274
21.18905	9.11893	-4.29274
21.19324	9.16287	-4.29274
21.19742	9.18485	-4.29274
21.20168	9.22879	-4.29274
21.20595	9.25077	-4.29274
21.21015	9.27274	-4.29274
21.21433	9.27274	-4.29274
21.21852	9.31668	-4.29274
21.22270	9.33866	-4.29274
21.22689	9.36063	-4.29274
21.23107	9.38260	-4.29274
21.23537	9.42655	-4.29274
21.23958	9.42655	-4.29274
21.24377	9.44852	-4.29274
21.24796	9.47049	-4.29274
21.25214	9.49246	-4.29274
21.25633	9.51444	-4.29274
21.26051	9.55838	-4.29274
21.26476	9.55838	-4.29274
21.26902	9.58036	-4.29274
21.27322	9.60233	-4.29274
21.27741	9.62430	-4.29274
21.28171	9.64627	-4.29274
21.28589	9.66825	-4.29274
21.29008	9.66825	-4.29274
21.29436	9.69022	-4.29274
21.29864	9.71219	-4.29274
21.30284	9.73416	-4.29274
21.30703	9.75614	-4.29274
21.31122	9.75614	-4.29274
21.31540	9.77811	-4.29274
21.31959	9.80008	-4.29274
21.32377	9.80008	-4.29274
21.32807	9.82205	-4.29274
21.33228	9.84403	-4.29274
21.33647	9.86600	-4.29274
21.34066	9.86600	-4.29274
21.34485	9.88797	-4.29274
21.34903	9.90994	-4.29274
21.35322	9.90994	-4.29274
21.35747	9.93192	-4.29274
21.36174	9.93192	-4.29274
21.36593	9.95389	-4.29274
21.37012	9.95389	-4.29274
21.37430	9.95389	-4.29274
21.37849	9.97586	-4.29274
21.38278	9.99784	-4.29274
21.38697	9.99784	-4.29274
21.39127	9.99784	-4.29274
21.39548	10.01981	-4.29274
21.39967	10.01981	-4.29274
21.40385	10.01981	-4.29274
21.40804	10.04178	-4.29274
21.41223	10.06375	-4.29274
21.41641	10.06375	-4.29274
21.42085	10.06375	-4.29274
21.42507	10.06375	-4.29274
21.42926	10.06375	-4.29274
21.43345	10.06375	-4.29274
21.43765	10.08573	-4.29274
21.44184	10.08573	-4.29274
21.44604	10.08573	-4.29274
21.45030	10.08573	-4.29274
21.45459	10.08573	-4.29274
21.45879	10.08573	-4.29274
21.46299	10.10770	-4.29274
21.46718	10.10770	-4.29274
21.47137	10.10770	-4.29274
21.47556	10.10770	-4.29274
21.47975	10.10770	-4.29274
21.48417	10.10770	-4.29274
21.48838	10.10770	-4.29274
21.49258	10.10770	-4.29274
21.49677	10.10770	-4.29274
21.50096	10.10770	-4.29274
21.50515	10.10770	-4.29274
21.50934	10.10770	-4.29274
21.51377	10.10770	-4.29274
21.51799	10.10770	-4.29274
21.52218	10.10770	-4.29274
21.52637	10.10770	-4.29274
21.53056	10.10770	-4.29274
21.53476	10.10770	-4.29274
21.53895	10.08573	-4.29274
21.54321	10.08573	-4.29274
21.54749	10.08573	-4.29274
21.55169	10.08573	-4.29274
21.55588	10.06375	-4.29274
21.56006	10.06375	-4.29274
21.56425	10.06375	-4.29274
21.56843	10.04178	-4.29274
21.57263	10.04178	-4.29274
21.57693	10.04178	-4.29274
21.58113	10.04178	-4.29274
21.58543	10.01981	-4.29274
21.58961	10.01981	-4.29274
21.59380	9.99784	-4.29274
21.59799	9.99784	-4.29274
21.60217	9.99784	-4.29274
21.60642	9.97586	-4.29274
21.61069	9.95389	-4.29274
21.61489	9.95389	-4.29274
21.61907	9.93192	-4.29274
21.62326	9.93192	-4.29274
21.62745	9.90994	-4.29274
21.63163	9.90994	-4.29274
21.63582	9.88797	-4.29274
21.64012	9.88797	-4.29274
21.64433	9.86600	-4.29274
21.64852	9.84403	-4.29274
21.65268	9.84403	-4.29274
21.65686	9.82205	-4.29274
21.66105	9.82205	-4.29274
21.66523	9.80008	-4.29274
21.66949	9.80008	-4.29274
21.67376	9.77811	-4.29274
21.67796	9.75614	-4.29274
21.68215	9.75614	-4.29274
21.68644	9.73416	-4.29274
21.69062	9.71219	-4.29274
21.69481	9.69022	-4.29274
21.69899	9.69022	-4.29274
21.70329	9.66825	-4.29274
21.70749	9.64627	-4.29274
21.71168	9.64627	-4.29274
21.71586	9.62430	-4.29274
21.72005	9.60233	-4.29274
21.72423	9.58036	-4.29274
21.72842	9.55838	-4.29274
21.73268	9.53641	-4.29274
21.73695	9.53641	-4.29274
21.74114	9.51444	-4.29274
21.74533	9.51444	-4.29274
21.74952	9.49246	-4.29274
21.75370	9.44852	-4.29274
21.75789	9.44852	-4.29274
21.76207	9.44852	-4.29274
21.76636	9.40457	-4.29274
21.77057	9.38260	-4.29274
21.77475	9.36063	-4.29274
21.77894	9.33866	-4.29274
21.78312	9.31668	-4.29274
21.78741	9.31668	-4.29274
21.79160	9.29471	-4.29274
21.79601	9.27274	-4.29274
21.80023	9.25077	-4.29274
21.80442	9.22879	-4.29274
21.80862	9.20682	-4.29274
21.81281	9.20682	-4.29274
21.81701	9.16287	-4.29274
21.82120	9.14090	-4.29274
21.82545	9.11893	-4.29274
21.82974	9.09696	-4.29274
21.83394	9.07498	-4.29274
21.83814	9.05301	-4.29274
21.84233	9.05301	-4.29274
21.84652	9.00907	-4.29274
21.85072	8.98709	-4.29274
21.85491	8.96512	-4.29274
21.85923	8.94315	-4.29274
21.86344	8.94315	-4.29274
21.86764	8.87723	-4.29274
21.87182	8.87723	-4.29274
21.87601	8.85526	-4.29274
21.88019	8.83328	-4.29274
21.88438	8.81131	-4.29274
21.88896	8.78934	-4.29274
21.89317	8.74539	-4.29274
21.89736	8.74539	-4.29274
21.90155	8.72342	-4.29274
21.90574	8.70145	-4.29274
21.90993	8.67948	-4.29274
21.91412	8.65750	-4.29274
21.91839	8.63553	-4.29274
21.92266	8.63553	-4.29274
21.92687	8.59159	-4.29274
21.93106	8.56961	-4.29274
21.93526	8.54764	-4.29274
21.93945	8.52567	-4.29274
21.94365	8.48172	-4.29274
21.94784	8.48172	-4.29274
21.95214	8.45975	-4.29274
21.95635	8.43778	-4.29274
21.96054	8.41580	-4.29274
21.96468	8.39383	-4.29274
21.96887	8.34989	-4.29274
21.97306	8.32791	-4.29274
21.97724	8.32791	-4.29274
21.98168	8.30594	-4.29274
21.98590	8.28397	-4.29274
21.99020	8.24002	-4.29274
21.99440	8.21805	-4.29274
21.99859	8.19608	-4.29274
22.00278	8.17411	-4.29274
22.00697	8.17411	-4.29274
22.01125	8.15213	-4.29274
22.01553	8.13016	-4.29274
22.01973	8.10819	-4.29274
22.02392	8.06424	-4.29274
22.02812	8.06424	-4.29274
22.03231	8.04227	-4.29274
22.03650	8.02030	-4.29274
22.04069	7.99832	-4.29274
22.04500	7.97635	-4.29274
22.04920	7.95438	-4.29274
22.05340	7.95438	-4.29274
22.05759	7.91043	-4.29274
22.06178	7.88846	-4.29274
22.06597	7.86649	-4.29274
22.07016	7.84452	-4.29274
22.07459	7.82254	-4.29274
22.07881	7.82254	-4.29274
22.08300	7.80057	-4.29274
22.08719	7.77860	-4.29274
22.09150	7.75662	-4.29274
22.09569	7.73465	-4.29274
22.09988	7.71268	-4.29274
22.10416	7.66873	-4.29274
22.10843	7.66873	-4.29274
22.11265	7.64676	-4.29274
22.11685	7.62479	-4.29274
22.12106	7.60282	-4.29274
22.12525	7.60282	-4.29274
22.12944	7.55887	-4.29274
22.13369	7.55887	-4.29274
22.13798	7.53690	-4.29274
22.14218	7.51493	-4.29274
22.14637	7.49295	-4.29274
22.15056	7.47098	-4.29274
22.15475	7.44901	-4.29274
22.15893	7.44901	-4.29274
22.16312	7.42703	-4.29274
22.16742	7.40506	-4.29274
22.17162	7.38309	-4.29274
22.17581	7.36112	-4.29274
22.17999	7.33914	-4.29274
22.18418	7.31717	-4.29274
22.18836	7.31717	-4.29274
22.19267	7.29520	-4.29274
22.19693	7.27323	-4.29274
22.20122	7.25125	-4.29274
22.20541	7.22928	-4.29274
22.20960	7.20731	-4.29274
22.21378	7.20731	-4.29274
22.21797	7.20731	-4.29274
22.22215	7.18534	-4.29274
22.22634	7.16336	-4.29274
22.23063	7.14139	-4.29274
22.23484	7.11942	-4.29274
22.23902	7.11942	-4.29274
22.24321	7.09744	-4.29274
22.24739	7.07547	-4.29274
22.25157	7.07547	-4.29274
22.25576	7.05350	-4.29274
22.26000	7.00955	-4.29274
22.26428	7.00955	-4.29274
22.26847	7.00955	-4.29274
22.27267	6.98758	-4.29274
22.27686	6.96561	-4.29274
22.28104	6.94364	-4.29274
22.28523	6.94364	-4.29274
22.28942	6.94364	-4.29274
22.29382	6.92166	-4.29274
22.29802	6.89969	-4.29274
22.30221	6.87772	-4.29274
22.30639	6.85575	-4.29274
22.31058	6.85575	-4.29274
22.31476	6.85575	-4.29274
22.31895	6.83377	-4.29274
22.32336	6.81180	-4.29274
22.32758	6.81180	-4.29274
22.33177	6.78983	-4.29274
22.33595	6.76786	-4.29274
22.34014	6.76786	-4.29274
22.34432	6.76786	-4.29274
22.34851	6.74588	-4.29274
22.35276	6.74588	-4.29274
22.35705	6.72391	-4.29274
22.36125	6.70194	-4.29274
22.36544	6.70194	-4.29274
22.36962	6.70194	-4.29274
22.37381	6.67996	-4.29274
22.37799	6.67996	-4.29274
22.38218	6.65799	-4.29274
22.38648	6.65799	-4.29274
22.39068	6.63602	-4.29274
22.39497	6.63602	-4.29274
22.39915	6.63602	-4.29274
22.40334	6.61405	-4.29274
22.40752	6.59207	-4.29274
22.41171	6.59207	-4.29274
22.41596	6.59207	-4.29274
22.42023	6.59207	-4.29274
22.42443	6.57010	-4.29274
22.42863	6.57010	-4.29274
22.43281	6.54813	-4.29274
22.43700	6.54813	-4.29274
22.44118	6.54813	-4.29274
22.44537	6.52616	-4.29274
22.44968	6.52616	-4.29274
22.45388	6.52616	-4.29274
22.45806	6.50418	-4.29274
22.46225	6.50418	-4.29274
22.46643	6.50418	-4.29274
22.47062	6.48221	-4.29274
22.47480	6.48221	-4.29274
22.47906	6.48221	-4.29274
22.48333	6.48221	-4.29274
22.48752	6.46024	-4.29274
22.49171	6.46024	-4.29274
22.49600	6.46024	-4.29274
22.50018	6.46024	-4.29274
22.50436	6.46024	-4.29274
22.50855	6.43827	-4.29274
22.51287	6.43827	-4.29274
22.51708	6.43827	-4.29274
22.52127	6.43827	-4.29274
22.52546	6.41629	-4.29274
22.52965	6.41629	-4.29274
22.53385	6.41629	-4.29274
22.53804	6.41629	-4.29274
22.54245	6.41629	-4.29274
22.54667	6.41629	-4.29274
22.55086	6.41629	-4.29274
22.55506	6.41629	-4.29274
22.55924	6.39432	-4.29274
22.56343	6.39432	-4.29274
22.56761	6.39432	-4.29274
22.57186	6.39432	-4.29274
22.57615	6.39432	-4.29274
22.58035	6.39432	-4.29274
22.58453	6.39432	-4.29274
22.58868	6.39432	-4.29274
22.59287	6.39432	-4.29274
22.59716	6.39432	-4.29274
22.60134	6.39432	-4.29274
22.60564	6.39432	-4.29274
22.60985	6.39432	-4.29274
22.61404	6.37235	-4.29274
22.61822	6.37235	-4.29274
22.62241	6.37235	-4.29274
22.62659	6.39432	-4.29274
22.63078	6.39432	-4.29274
22.63503	6.39432	-4.29274
22.63929	6.39432	-4.29274
22.64349	6.39432	-4.29274
22.64767	6.39432	-4.29274
22.65186	6.39432	-4.29274
22.65605	6.39432	-4.29274
22.66024	6.39432	-4.29274
22.66442	6.39432	-4.29274
22.66874	6.39432	-4.29274
22.67294	6.39432	-4.29274
22.67713	6.41629	-4.29274
22.68132	6.41629	-4.29274
22.68550	6.41629	-4.29274
22.68969	6.41629	-4.29274
22.69387	6.41629	-4.29274
22.69823	6.41629	-4.29274
22.70250	6.41629	-4.29274
22.70669	6.41629	-4.29274
22.71088	6.41629	-4.29274
22.71507	6.43827	-4.29274
22.71925	6.43827	-4.29274
22.72343	6.43827	-4.29274
22.72762	6.43827	-4.29274
22.73193	6.43827	-4.29274
22.73613	6.46024	-4.29274
22.74031	6.46024	-4.29274
22.74450	6.46024	-4.29274
22.74868	6.46024	-4.29274
22.75287	6.48221	-4.29274
22.75705	6.48221	-4.29274
22.76130	6.48221	-4.29274
22.76558	6.48221	-4.29274
22.76977	6.48221	-4.29274
22.77395	6.50418	-4.29274
22.77814	6.50418	-4.29274
22.78232	6.50418	-4.29274
22.78651	6.52616	-4.29274
22.79069	6.52616	-4.29274
22.79499	6.52616	-4.29274
22.79929	6.54813	-4.29274
22.80348	6.54813	-4.29274
22.80766	6.54813	-4.29274
22.81185	6.54813	-4.29274
22.81603	6.54813	-4.29274
22.82021	6.57010	-4.29274
22.82467	6.57010	-4.29274
22.82888	6.57010	-4.29274
22.83307	6.59207	-4.29274
22.83726	6.59207	-4.29274
22.84144	6.59207	-4.29274
22.84563	6.59207	-4.29274
22.84981	6.61405	-4.29274
22.85405	6.61405	-4.29274
22.85834	6.61405	-4.29274
22.86254	6.63602	-4.29274
22.86672	6.63602	-4.29274
22.87091	6.63602	-4.29274
22.87509	6.63602	-4.29274
22.87928	6.65799	-4.29274
22.88346	6.67996	-4.29274
22.88776	6.67996	-4.29274
22.89196	6.67996	-4.29274
22.89615	6.67996	-4.29274
22.90044	6.67996	-4.29274
22.90463	6.70194	-4.29274
22.90881	6.70194	-4.29274
22.91300	6.72391	-4.29274
22.91725	6.72391	-4.29274
22.92151	6.72391	-4.29274
22.92571	6.74588	-4.29274
22.92989	6.74588	-4.29274
22.93408	6.74588	-4.29274
22.93826	6.74588	-4.29274
22.94245	6.76786	-4.29274
22.94664	6.76786	-4.29274
22.95094	6.78983	-4.29274
22.95514	6.78983	-4.29274
22.95933	6.81180	-4.29274
22.96351	6.81180	-4.29274
22.96770	6.81180	-4.29274
22.97188	6.81180	-4.29274
22.97607	6.83377	-4.29274
22.98033	6.83377	-4.29274
22.98461	6.85575	-4.29274
22.98881	6.85575	-4.29274
22.99300	6.85575	-4.29274
22.99718	6.87772	-4.29274
23.00151	6.87772	-4.29274
23.00571	6.87772	-4.29274
23.01002	6.89969	-4.29274
23.01431	6.92166	-4.29274
23.01851	6.92166	-4.29274
23.02269	6.94364	-4.29274
23.02688	6.94364	-4.29274
23.03107	6.94364	-4.29274
23.03525	6.94364	-4.29274
23.03944	6.96561	-4.29274
23.04374	6.96561	-4.29274
23.04794	6.98758	-4.29274
23.05213	6.98758	-4.29274
23.05631	6.98758	-4.29274
23.06050	6.98758	-4.29274
23.06468	7.00955	-4.29274
23.06887	7.00955	-4.29274
23.07312	7.03153	-4.29274
23.07739	7.03153	-4.29274
23.08159	7.03153	-4.29274
23.08578	7.05350	-4.29274
23.08996	7.05350	-4.29274
23.09415	7.07547	-4.29274
23.09833	7.07547	-4.29274
23.10262	7.09744	-4.29274
23.10693	7.09744	-4.29274
23.11113	7.09744	-4.29274
23.11532	7.11942	-4.29274
23.11954	7.11942	-4.29274
23.12373	7.14139	-4.29274
23.12791	7.14139	-4.29274
23.13210	7.14139	-4.29274
23.13651	7.16336	-4.29274
23.14071	7.16336	-4.29274
23.14490	7.18534	-4.29274
23.14909	7.18534	-4.29274
23.15328	7.20731	-4.29274
23.15747	7.20731	-4.29274
23.16166	7.20731	-4.29274
23.16592	7.22928	-4.29274
23.17021	7.22928	-4.29274
23.17441	7.25125	-4.29274
23.17860	7.25125	-4.29274
23.18279	7.25125	-4.29274
23.18698	7.27323	-4.29274
23.19116	7.27323	-4.29274
23.19535	7.29520	-4.29274
23.19965	7.29520	-4.29274
23.20396	7.29520	-4.29274
23.20815	7.31717	-4.29274
23.21233	7.31717	-4.29274
23.21652	7.31717	-4.29274
23.22068	7.33914	-4.29274
23.22487	7.33914	-4.29274
23.22913	7.36112	-4.29274
23.23340	7.36112	-4.29274
23.23759	7.36112	-4.29274
23.24178	7.38309	-4.29274
23.24596	7.38309	-4.29274
23.25015	7.40506	-4.29274
23.25433	7.40506	-4.29274
23.25852	7.42703	-4.29274
23.26282	7.42703	-4.29274
23.26702	7.42703	-4.29274
23.27121	7.44901	-4.29274
23.27539	7.44901	-4.29274
23.27959	7.44901	-4.29274
23.28378	7.47098	-4.29274
23.28797	7.47098	-4.29274
23.29224	7.47098	-4.29274
23.29651	7.49295	-4.29274
23.30070	7.49295	-4.29274
23.30499	7.49295	-4.29274
23.30918	7.51493	-4.29274
23.31336	7.51493	-4.29274
23.31755	7.51493	-4.29274
23.32173	7.53690	-4.29274
23.32603	7.53690	-4.29274
23.33023	7.55887	-4.29274
23.33442	7.55887	-4.29274
23.33860	7.55887	-4.29274
23.34279	7.55887	-4.29274
23.34697	7.58084	-4.29274
23.35116	7.58084	-4.29274
23.35541	7.60282	-4.29274
23.35967	7.60282	-4.29274
23.36387	7.60282	-4.29274
23.36806	7.60282	-4.29274
23.37225	7.62479	-4.29274
23.37643	7.62479	-4.29274
23.38063	7.62479	-4.29274
23.38481	7.64676	-4.29274
23.38912	7.64676	-4.29274
23.39333	7.64676	-4.29274
23.39752	7.64676	-4.29274
23.40170	7.66873	-4.29274
23.40599	7.66873	-4.29274
23.41018	7.69071	-4.29274
23.41436	7.69071	-4.29274
23.41879	7.69071	-4.29274
23.42301	7.69071	-4.29274
23.42720	7.71268	-4.29274
23.43139	7.71268	-4.29274
23.43557	7.71268	-4.29274
23.43976	7.71268	-4.29274
23.44394	7.71268	-4.29274
23.44820	7.73465	-4.29274
23.45250	7.73465	-4.29274
23.45670	7.75662	-4.29274
23.46088	7.75662	-4.29274
23.46507	7.75662	-4.29274
23.46926	7.75662	-4.29274
23.47344	7.75662	-4.29274
23.47763	7.77860	-4.29274
23.48193	7.77860	-4.29274
23.48613	7.77860	-4.29274
23.49032	7.77860	-4.29274
23.49450	7.80057	-4.29274
23.49869	7.80057	-4.29274
23.50287	7.80057	-4.29274
23.50716	7.80057	-4.29274
23.51141	7.80057	-4.29274
23.51570	7.82254	-4.29274
23.51990	7.82254	-4.29274
23.52408	7.82254	-4.29274
23.52827	7.82254	-4.29274
23.53246	7.84452	-4.29274
23.53665	7.84452	-4.29274
23.54084	7.84452	-4.29274
23.54514	7.84452	-4.29274
23.54933	7.84452	-4.29274
23.55352	7.84452	-4.29274
23.55771	7.84452	-4.29274
23.56189	7.84452	-4.29274
23.56609	7.86649	-4.29274
23.57027	7.86649	-4.29274
23.57453	7.86649	-4.29274
23.57880	7.86649	-4.29274
23.58299	7.86649	-4.29274
23.58718	7.88846	-4.29274
23.59136	7.88846	-4.29274
23.59555	7.88846	-4.29274
23.59974	7.88846	-4.29274
23.60393	7.88846	-4.29274
23.60834	7.88846	-4.29274
23.61255	7.88846	-4.29274
23.61674	7.88846	-4.29274
23.62093	7.91043	-4.29274
23.62511	7.91043	-4.29274
23.62930	7.91043	-4.29274
23.63348	7.91043	-4.29274
23.63793	7.91043	-4.29274
23.64215	7.91043	-4.29274
23.64635	7.91043	-4.29274
23.65054	7.91043	-4.29274
23.65473	7.91043	-4.29274
23.65893	7.91043	-4.29274
23.66312	7.91043	-4.29274
23.66738	7.93241	-4.29274
23.67167	7.91043	-4.29274
23.67588	7.93241	-4.29274
23.68007	7.93241	-4.29274
23.68426	7.91043	-4.29274
23.68846	7.93241	-4.29274
23.69266	7.93241	-4.29274
23.69685	7.93241	-4.29274
23.70117	7.93241	-4.29274
23.70538	7.93241	-4.29274
23.70969	7.93241	-4.29274
23.71389	7.91043	-4.29274
23.71808	7.91043	-4.29274
23.72227	7.93241	-4.29274
23.72646	7.91043	-4.29274
23.73089	7.91043	-4.29274
23.73510	7.91043	-4.29274
23.73929	7.91043	-4.29274
23.74348	7.93241	-4.29274
23.74768	7.93241	-4.29274
23.75187	7.91043	-4.29274
23.75606	7.91043	-4.29274
23.76032	7.91043	-4.29274
23.76462	7.91043	-4.29274
23.76883	7.91043	-4.29274
23.77302	7.91043	-4.29274
23.77721	7.91043	-4.29274
23.78140	7.91043	-4.29274
23.78559	7.91043	-4.29274
23.78977	7.91043	-4.29274
23.79407	7.91043	-4.29274
23.79828	7.91043	-4.29274
23.80247	7.91043	-4.29274
23.80665	7.91043	-4.29274
23.81094	7.91043	-4.29274
23.81513	7.91043	-4.29274
23.81931	7.88846	-4.29274
23.82374	7.91043	-4.29274
23.82796	7.91043	-4.29274
23.83215	7.88846	-4.29274
23.83635	7.88846	-4.29274
23.84055	7.88846	-4.29274
23.84474	7.88846	-4.29274
23.84893	7.88846	-4.29274
23.85321	7.88846	-4.29274
23.85749	7.88846	-4.29274
23.86170	7.88846	-4.29274
23.86590	7.88846	-4.29274
23.87009	7.86649	-4.29274
23.87428	7.86649	-4.29274
23.87847	7.86649	-4.29274
23.88266	7.86649	-4.29274
23.88697	7.86649	-4.29274
23.89118	7.86649	-4.29274
23.89538	7.86649	-4.29274
23.89957	7.84452	-4.29274
23.90376	7.86649	-4.29274
23.90795	7.84452	-4.29274
23.91226	7.84452	-4.29274
23.91668	7.84452	-4.29274
23.92090	7.82254	-4.29274
23.92510	7.82254	-4.29274
23.92929	7.84452	-4.29274
23.93348	7.82254	-4.29274
23.93768	7.82254	-4.29274
23.94187	7.82254	-4.29274
23.94613	7.82254	-4.29274
23.95039	7.82254	-4.29274
23.95459	7.82254	-4.29274
23.95879	7.80057	-4.29274
23.96298	7.80057	-4.29274
23.96716	7.80057	-4.29274
23.97135	7.80057	-4.29274
23.97554	7.80057	-4.29274
23.97984	7.80057	-4.29274
23.98405	7.77860	-4.29274
23.98823	7.77860	-4.29274
23.99243	7.77860	-4.29274
23.99665	7.75662	-4.29274
24.00084	7.75662	-4.29274
24.00504	7.75662	-4.29274
24.00931	7.75662	-4.29274
24.01369	7.75662	-4.29274
24.01789	7.73465	-4.29274
24.02208	7.73465	-4.29274
24.02628	7.73465	-4.29274
24.03047	7.73465	-4.29274
24.03466	7.73465	-4.29274
24.03892	7.73465	-4.29274
24.04320	7.71268	-4.29274
24.04742	7.73465	-4.29274
24.05161	7.71268	-4.29274
24.05580	7.71268	-4.29274
24.05999	7.71268	-4.29274
24.06418	7.71268	-4.29274
24.06840	7.69071	-4.29274
24.07272	7.69071	-4.29274
24.07694	7.69071	-4.29274
24.08113	7.69071	-4.29274
24.08532	7.66873	-4.29274
24.08950	7.66873	-4.29274
24.09369	7.66873	-4.29274
24.09788	7.66873	-4.29274
24.10213	7.64676	-4.29274
24.10639	7.64676	-4.29274
24.11060	7.64676	-4.29274
24.11489	7.64676	-4.29274
24.11911	7.64676	-4.29274
24.12331	7.62479	-4.29274
24.12749	7.62479	-4.29274
24.13168	7.62479	-4.29274
24.13597	7.62479	-4.29274
24.14018	7.62479	-4.29274
24.14438	7.62479	-4.29274
24.14857	7.60282	-4.29274
24.15276	7.60282	-4.29274
24.15695	7.60282	-4.29274
24.16113	7.60282	-4.29274
24.16556	7.58084	-4.29274
24.16978	7.58084	-4.29274
24.17397	7.58084	-4.29274
24.17816	7.58084	-4.29274
24.18236	7.55887	-4.29274
24.18655	7.55887	-4.29274
24.19074	7.55887	-4.29274
24.19502	7.55887	-4.29274
24.19930	7.53690	-4.29274
24.20351	7.53690	-4.29274
24.20771	7.53690	-4.29274
24.21190	7.53690	-4.29274
24.21620	7.53690	-4.29274
24.22040	7.51493	-4.29274
24.22460	7.51493	-4.29274
24.22890	7.51493	-4.29274
24.23312	7.51493	-4.29274
24.23731	7.49295	-4.29274
24.24150	7.49295	-4.29274
24.24570	7.49295	-4.29274
24.24989	7.49295	-4.29274
24.25408	7.49295	-4.29274
24.25848	7.47098	-4.29274
24.26270	7.47098	-4.29274
24.26689	7.47098	-4.29274
24.27109	7.44901	-4.29274
24.27528	7.47098	-4.29274
24.27947	7.44901	-4.29274
24.28367	7.44901	-4.29274
24.28797	7.44901	-4.29274
24.29231	7.44901	-4.29274
24.29652	7.44901	-4.29274
24.30069	7.44901	-4.29274
24.30487	7.42703	-4.29274
24.30906	7.42703	-4.29274
24.31325	7.42703	-4.29274
24.31754	7.40506	-4.29274
24.32183	7.40506	-4.29274
24.32604	7.40506	-4.29274
24.33023	7.40506	-4.29274
24.33442	7.40506	-4.29274
24.33861	7.40506	-4.29274
24.34279	7.38309	-4.29274
24.34698	7.38309	-4.29274
24.35140	7.38309	-4.29274
24.35562	7.38309	-4.29274
24.35982	7.38309	-4.29274
24.36402	7.36112	-4.29274
24.36821	7.36112	-4.29274
24.37240	7.38309	-4.29274
24.37660	7.38309	-4.29274
24.38088	7.36112	-4.29274
24.38517	7.36112	-4.29274
24.38938	7.36112	-4.29274
24.39357	7.36112	-4.29274
24.39777	7.36112	-4.29274
24.40196	7.36112	-4.29274
24.40615	7.36112	-4.29274
24.41034	7.33914	-4.29274
24.41464	7.33914	-4.29274
24.41897	7.33914	-4.29274
24.42316	7.33914	-4.29274
24.42735	7.33914	-4.29274
24.43154	7.33914	-4.29274
24.43573	7.33914	-4.29274
24.43992	7.33914	-4.29274
24.44433	7.33914	-4.29274
24.44858	7.33914	-4.29274
24.45277	7.33914	-4.29274
24.45697	7.33914	-4.29274
24.46116	7.33914	-4.29274
24.46535	7.33914	-4.29274
24.46954	7.33914	-4.29274
24.47383	7.33914	-4.29274
24.47811	7.33914	-4.29274
24.48232	7.33914	-4.29274
24.48651	7.36112	-4.29274
24.49069	7.33914	-4.29274
24.49488	7.33914	-4.29274
24.49907	7.33914	-4.29274
24.50325	7.33914	-4.29274
24.50754	7.33914	-4.29274
24.51176	7.36112	-4.29274
24.51597	7.36112	-4.29274
24.52027	7.36112	-4.29274
24.52446	7.36112	-4.29274
24.52866	7.36112	-4.29274
24.53286	7.36112	-4.29274
24.53730	7.36112	-4.29274
24.54153	7.38309	-4.29274
24.54572	7.38309	-4.29274
24.54991	7.38309	-4.29274
24.55410	7.38309	-4.29274
24.55829	7.38309	-4.29274
24.56247	7.38309	-4.29274
24.56673	7.40506	-4.29274
24.57100	7.38309	-4.29274
24.57520	7.38309	-4.29274
24.57939	7.40506	-4.29274
24.58358	7.40506	-4.29274
24.58777	7.40506	-4.29274
24.59196	7.40506	-4.29274
24.59614	7.42703	-4.29274
24.60043	7.42703	-4.29274
24.60468	7.42703	-4.29274
24.60888	7.42703	-4.29274
24.61307	7.44901	-4.29274
24.61726	7.44901	-4.29274
24.62154	7.44901	-4.29274
24.62573	7.47098	-4.29274
24.62998	7.47098	-4.29274
24.63423	7.47098	-4.29274
24.63843	7.47098	-4.29274
24.64262	7.47098	-4.29274
24.64681	7.49295	-4.29274
24.65100	7.49295	-4.29274
24.65518	7.49295	-4.29274
24.65937	7.51493	-4.29274
24.66366	7.51493	-4.29274
24.66787	7.51493	-4.29274
24.67206	7.51493	-4.29274
24.67625	7.53690	-4.29274
24.68043	7.53690	-4.29274
24.68463	7.53690	-4.29274
24.68881	7.53690	-4.29274
24.69307	7.53690	-4.29274
24.69732	7.55887	-4.29274
24.70152	7.55887	-4.29274
24.70571	7.55887	-4.29274
24.70990	7.58084	-4.29274
24.71408	7.58084	-4.29274
24.71827	7.58084	-4.29274
24.72256	7.60282	-4.29274
24.72684	7.60282	-4.29274
24.73105	7.60282	-4.29274
24.73524	7.62479	-4.29274
24.73943	7.62479	-4.29274
24.74361	7.62479	-4.29274
24.74780	7.62479	-4.29274
24.75198	7.64676	-4.29274
24.75639	7.64676	-4.29274
24.76062	7.64676	-4.29274
24.76482	7.66873	-4.29274
24.76901	7.66873	-4.29274
24.77320	7.66873	-4.29274
24.77740	7.66873	-4.29274
24.78159	7.69071	-4.29274
24.78586	7.69071	-4.29274
24.79013	7.71268	-4.29274
24.79435	7.71268	-4.29274
24.79854	7.71268	-4.29274
24.80273	7.71268	-4.29274
24.80692	7.73465	-4.29274
24.81112	7.73465	-4.29274
24.81531	7.75662	-4.29274
24.81961	7.75662	-4.29274
24.82397	7.75662	-4.29274
24.82817	7.75662	-4.29274
24.83237	7.77860	-4.29274
24.83657	7.77860	-4.29274
24.84076	7.80057	-4.29274
24.84496	7.80057	-4.29274
24.84938	7.80057	-4.29274
24.85360	7.82254	-4.29274
24.85780	7.82254	-4.29274
24.86199	7.84452	-4.29274
24.86618	7.84452	-4.29274
24.87037	7.86649	-4.29274
24.87455	7.86649	-4.29274
24.87880	7.86649	-4.29274
24.88306	7.88846	-4.29274
24.88725	7.88846	-4.29274
24.89144	7.91043	-4.29274
24.89563	7.91043	-4.29274
24.89982	7.93241	-4.29274
24.90400	7.93241	-4.29274
24.90819	7.93241	-4.29274
24.91248	7.93241	-4.29274
24.91669	7.95438	-4.29274
24.92088	7.97635	-4.29274
24.92518	7.97635	-4.29274
24.92936	7.97635	-4.29274
24.93355	7.99832	-4.29274
24.93775	7.99832	-4.29274
24.94213	7.99832	-4.29274
24.94635	8.02030	-4.29274
24.95054	8.02030	-4.29274
24.95473	8.02030	-4.29274
24.95892	8.04227	-4.29274
24.96310	8.04227	-4.29274
24.96729	8.06424	-4.29274
24.97157	8.06424	-4.29274
24.97584	8.06424	-4.29274
24.98005	8.06424	-4.29274
24.98424	8.08621	-4.29274
24.98843	8.08621	-4.29274
24.99263	8.10819	-4.29274
24.99681	8.10819	-4.29274
25.00100	8.13016	-4.29274
25.00529	8.13016	-4.29274
25.00951	8.13016	-4.29274
25.01370	8.15213	-4.29274
25.01789	8.15213	-4.29274
25.02207	8.15213	-4.29274
25.02640	8.17411	-4.29274
25.03059	8.17411	-4.29274
25.03504	8.19608	-4.29274
25.03927	8.19608	-4.29274
25.04347	8.19608	-4.29274
25.04766	8.19608	-4.29274
25.05188	8.21805	-4.29274
25.05608	8.21805	-4.29274
25.06027	8.21805	-4.29274
25.06458	8.21805	-4.29274
25.06887	8.24002	-4.29274
25.07308	8.24002	-4.29274
25.07728	8.26200	-4.29274
25.08147	8.26200	-4.29274
25.08567	8.26200	-4.29274
25.08986	8.26200	-4.29274
25.09406	8.28397	-4.29274
25.09837	8.28397	-4.29274
25.10259	8.30594	-4.29274
25.10678	8.30594	-4.29274
25.11098	8.30594	-4.29274
25.11517	8.30594	-4.29274
25.11940	8.32791	-4.29274
25.12360	8.32791	-4.29274
25.12799	8.32791	-4.29274
25.13224	8.34989	-4.29274
25.13644	8.34989	-4.29274
25.14065	8.34989	-4.29274
25.14484	8.34989	-4.29274
25.14904	8.37186	-4.29274
25.15323	8.37186	-4.29274
25.15750	8.37186	-4.29274
25.16179	8.37186	-4.29274
25.16599	8.37186	-4.29274
25.17019	8.39383	-4.29274
25.17438	8.39383	-4.29274
25.17857	8.39383	-4.29274
25.18276	8.41580	-4.29274
25.18694	8.41580	-4.29274
25.19124	8.41580	-4.29274
25.19545	8.41580	-4.29274
25.19964	8.41580	-4.29274
25.20383	8.41580	-4.29274
25.20801	8.43778	-4.29274
25.21220	8.43778	-4.29274
25.21639	8.43778	-4.29274
25.22066	8.43778	-4.29274
25.22490	8.45975	-4.29274
25.22921	8.45975	-4.29274
25.23339	8.45975	-4.29274
25.23758	8.45975	-4.29274
25.24176	8.48172	-4.29274
25.24595	8.48172	-4.29274
25.25013	8.48172	-4.29274
25.25442	8.48172	-4.29274
25.25863	8.50369	-4.29274
25.26283	8.50369	-4.29274
25.26701	8.50369	-4.29274
25.27120	8.50369	-4.29274
25.27538	8.50369	-4.29274
25.27958	8.52567	-4.29274
25.28402	8.52567	-4.29274
25.28825	8.52567	-4.29274
25.29244	8.52567	-4.29274
25.29664	8.52567	-4.29274
25.30083	8.52567	-4.29274
25.30501	8.54764	-4.29274
25.30920	8.54764	-4.29274
25.31347	8.56961	-4.29274
25.31774	8.56961	-4.29274
25.32194	8.56961	-4.29274
25.32613	8.56961	-4.29274
25.33042	8.56961	-4.29274
25.33461	8.56961	-4.29274
25.33879	8.59159	-4.29274
25.34298	8.59159	-4.29274
25.34727	8.59159	-4.29274
25.35148	8.61356	-4.29274
25.35567	8.61356	-4.29274
25.35986	8.61356	-4.29274
25.36405	8.61356	-4.29274
25.36823	8.61356	-4.29274
25.37242	8.61356	-4.29274
25.37668	8.61356	-4.29274
25.38094	8.63553	-4.29274
25.38514	8.63553	-4.29274
25.38933	8.63553	-4.29274
25.39351	8.65750	-4.29274
25.39770	8.65750	-4.29274
25.40189	8.65750	-4.29274
25.40607	8.65750	-4.29274
25.41036	8.65750	-4.29274
25.41457	8.65750	-4.29274
25.41876	8.67948	-4.29274
25.42295	8.67948	-4.29274
25.42713	8.67948	-4.29274
25.43142	8.67948	-4.29274
25.43561	8.70145	-4.29274
25.44003	8.70145	-4.29274
25.44426	8.70145	-4.29274
25.44845	8.72342	-4.29274
25.45264	8.72342	-4.29274
25.45683	8.72342	-4.29274
25.46101	8.72342	-4.29274
25.46520	8.72342	-4.29274
25.46946	8.72342	-4.29274
25.47374	8.72342	-4.29274
25.47794	8.72342	-4.29274
25.48214	8.72342	-4.29274
25.48633	8.74539	-4.29274
25.49052	8.74539	-4.29274
25.49470	8.74539	-4.29274
25.49889	8.74539	-4.29274
25.50318	8.76737	-4.29274
25.50739	8.76737	-4.29274
25.51159	8.76737	-4.29274
25.51579	8.76737	-4.29274
25.51998	8.76737	-4.29274
25.52417	8.76737	-4.29274
25.52836	8.76737	-4.29274
25.53274	8.78934	-4.29274
25.53699	8.78934	-4.29274
25.54119	8.78934	-4.29274
25.54538	8.78934	-4.29274
25.54957	8.78934	-4.29274
25.55376	8.78934	-4.29274
25.55794	8.78934	-4.29274
25.56213	8.78934	-4.29274
25.56642	8.78934	-4.29274
25.57063	8.78934	-4.29274
25.57482	8.78934	-4.29274
25.57901	8.78934	-4.29274
25.58321	8.78934	-4.29274
25.58739	8.81131	-4.29274
25.59158	8.81131	-4.29274
25.59600	8.81131	-4.29274
25.60022	8.81131	-4.29274
25.60442	8.81131	-4.29274
25.60862	8.81131	-4.29274
25.61282	8.78934	-4.29274
25.61701	8.78934	-4.29274
25.62120	8.81131	-4.29274
25.62546	8.81131	-4.29274
25.62974	8.81131	-4.29274
25.63407	8.78934	-4.29274
25.63826	8.81131	-4.29274
25.64245	8.81131	-4.29274
25.64665	8.81131	-4.29274
25.65084	8.78934	-4.29274
25.65503	8.78934	-4.29274
25.65933	8.78934	-4.29274
25.66355	8.78934	-4.29274
25.66774	8.78934	-4.29274
25.67194	8.78934	-4.29274
25.67613	8.78934	-4.29274
25.68032	8.78934	-4.29274
25.68452	8.78934	-4.29274
25.68877	8.78934	-4.29274
25.69303	8.78934	-4.29274
25.69724	8.76737	-4.29274
25.70143	8.76737	-4.29274
25.70562	8.76737	-4.29274
25.70981	8.76737	-4.29274
25.71401	8.74539	-4.29274
25.71820	8.74539	-4.29274
25.72250	8.74539	-4.29274
25.72671	8.74539	-4.29274
25.73090	8.74539	-4.29274
25.73519	8.74539	-4.29274
25.73938	8.72342	-4.29274
25.74356	8.72342	-4.29274
25.74775	8.72342	-4.29274
25.75215	8.72342	-4.29274
25.75638	8.70145	-4.29274
25.76059	8.70145	-4.29274
25.76478	8.67948	-4.29274
25.76904	8.67948	-4.29274
25.77324	8.67948	-4.29274
25.77743	8.67948	-4.29274
25.78171	8.65750	-4.29274
25.78599	8.63553	-4.29274
25.79020	8.63553	-4.29274
25.79440	8.63553	-4.29274
25.79859	8.63553	-4.29274
25.80278	8.63553	-4.29274
25.80697	8.61356	-4.29274
25.81117	8.59159	-4.29274
25.81546	8.59159	-4.29274
25.81968	8.59159	-4.29274
25.82388	8.56961	-4.29274
25.82807	8.56961	-4.29274
25.83226	8.54764	-4.29274
25.83658	8.54764	-4.29274
25.84077	8.52567	-4.29274
25.84518	8.50369	-4.29274
25.84940	8.50369	-4.29274
25.85359	8.48172	-4.29274
25.85778	8.48172	-4.29274
25.86198	8.45975	-4.29274
25.86617	8.45975	-4.29274
25.87036	8.43778	-4.29274
25.87461	8.41580	-4.29274
25.87890	8.41580	-4.29274
25.88311	8.41580	-4.29274
25.88730	8.37186	-4.29274
25.89149	8.37186	-4.29274
25.89568	8.34989	-4.29274
25.89986	8.34989	-4.29274
25.90405	8.34989	-4.29274
25.90834	8.32791	-4.29274
25.91256	8.30594	-4.29274
25.91676	8.28397	-4.29274
25.92094	8.26200	-4.29274
25.92513	8.26200	-4.29274
25.92931	8.24002	-4.29274
25.93350	8.24002	-4.29274
25.93789	8.21805	-4.29274
25.94215	8.19608	-4.29274
25.94636	8.17411	-4.29274
25.95055	8.15213	-4.29274
25.95473	8.13016	-4.29274
25.95892	8.13016	-4.29274
25.96310	8.10819	-4.29274
25.96729	8.10819	-4.29274
25.97159	8.06424	-4.29274
25.97581	8.06424	-4.29274
25.98000	8.04227	-4.29274
25.98420	8.04227	-4.29274
25.98840	8.02030	-4.29274
25.99260	7.99832	-4.29274
25.99678	7.97635	-4.29274
26.00121	7.95438	-4.29274
26.00544	7.93241	-4.29274
26.00963	7.91043	-4.29274
26.01382	7.91043	-4.29274
26.01801	7.88846	-4.29274
26.02220	7.86649	-4.29274
26.02638	7.84452	-4.29274
26.03066	7.82254	-4.29274
26.03493	7.80057	-4.29274
26.03924	7.80057	-4.29274
26.04343	7.80057	-4.29274
26.04762	7.77860	-4.29274
26.05181	7.73465	-4.29274
26.05599	7.71268	-4.29274
26.06018	7.71268	-4.29274
26.06447	7.66873	-4.29274
26.06869	7.66873	-4.29274
26.07288	7.66873	-4.29274
26.07707	7.64676	-4.29274
26.08126	7.62479	-4.29274
26.08545	7.60282	-4.29274
26.08963	7.60282	-4.29274
26.09389	7.55887	-4.29274
26.09814	7.55887	-4.29274
26.10234	7.53690	-4.29274
26.10653	7.51493	-4.29274
26.11072	7.49295	-4.29274
26.11490	7.47098	-4.29274
26.11912	7.47098	-4.29274
26.12332	7.44901	-4.29274
26.12761	7.42703	-4.29274
26.13183	7.40506	-4.29274
26.13602	7.40506	-4.29274
26.14031	7.36112	-4.29274
26.14450	7.36112	-4.29274
26.14868	7.36112	-4.29274
26.15287	7.33914	-4.29274
26.15729	7.31717	-4.29274
26.16152	7.29520	-4.29274
26.16572	7.27323	-4.29274
26.16991	7.27323	-4.29274
26.17410	7.25125	-4.29274
26.17829	7.22928	-4.29274
26.18248	7.20731	-4.29274
26.18676	7.20731	-4.29274
26.19104	7.18534	-4.29274
26.19526	7.16336	-4.29274
26.19945	7.16336	-4.29274
26.20364	7.14139	-4.29274
26.20784	7.11942	-4.29274
26.21203	7.09744	-4.29274
26.21622	7.09744	-4.29274
26.22052	7.07547	-4.29274
26.22472	7.07547	-4.29274
26.22892	7.05350	-4.29274
26.23311	7.03153	-4.29274
26.23730	7.03153	-4.29274
26.24160	7.00955	-4.29274
26.24579	6.98758	-4.29274
26.25006	6.98758	-4.29274
26.25432	6.96561	-4.29274
26.25852	6.94364	-4.29274
26.26272	6.94364	-4.29274
26.26691	6.92166	-4.29274
26.27110	6.89969	-4.29274
26.27529	6.89969	-4.29274
26.27950	6.89969	-4.29274
26.28381	6.87772	-4.29274
26.28802	6.85575	-4.29274
26.29222	6.85575	-4.29274
26.29642	6.83377	-4.29274
26.30062	6.83377	-4.29274
26.30480	6.81180	-4.29274
26.30899	6.81180	-4.29274
26.31343	6.78983	-4.29274
26.31764	6.76786	-4.29274
26.32183	6.74588	-4.29274
26.32602	6.74588	-4.29274
26.33021	6.74588	-4.29274
26.33439	6.74588	-4.29274
26.33858	6.72391	-4.29274
26.34297	6.70194	-4.29274
26.34724	6.70194	-4.29274
26.35145	6.67996	-4.29274
26.35564	6.65799	-4.29274
26.35982	6.65799	-4.29274
26.36401	6.65799	-4.29274
26.36819	6.63602	-4.29274
26.37238	6.63602	-4.29274
26.37669	6.63602	-4.29274
26.38090	6.61405	-4.29274
26.38509	6.61405	-4.29274
26.38928	6.61405	-4.29274
26.39347	6.59207	-4.29274
26.39765	6.59207	-4.29274
26.40184	6.57010	-4.29274
26.40610	6.57010	-4.29274
26.41035	6.57010	-4.29274
26.41455	6.57010	-4.29274
26.41874	6.54813	-4.29274
26.42292	6.52616	-4.29274
26.42710	6.52616	-4.29274
26.43129	6.52616	-4.29274
26.43548	6.52616	-4.29274
26.43977	6.52616	-4.29274
26.44409	6.50418	-4.29274
26.44828	6.50418	-4.29274
26.45246	6.48221	-4.29274
26.45665	6.48221	-4.29274
26.46084	6.48221	-4.29274
26.46502	6.48221	-4.29274
26.46942	6.48221	-4.29274
26.47363	6.46024	-4.29274
26.47783	6.46024	-4.29274
26.48202	6.46024	-4.29274
26.48622	6.46024	-4.29274
26.49041	6.46024	-4.29274
26.49460	6.43827	-4.29274
26.49886	6.43827	-4.29274
26.50315	6.43827	-4.29274
26.50735	6.43827	-4.29274
26.51155	6.43827	-4.29274
26.51578	6.43827	-4.29274
26.51998	6.43827	-4.29274
26.52417	6.41629	-4.29274
26.52836	6.43827	-4.29274
26.53269	6.43827	-4.29274
26.53690	6.41629	-4.29274
26.54110	6.41629	-4.29274
26.54541	6.41629	-4.29274
26.54960	6.41629	-4.29274
26.55379	6.41629	-4.29274
26.55799	6.41629	-4.29274
26.56239	6.41629	-4.29274
26.56661	6.41629	-4.29274
26.57081	6.41629	-4.29274
26.57500	6.41629	-4.29274
26.57919	6.41629	-4.29274
26.58337	6.41629	-4.29274
26.58756	6.41629	-4.29274
26.59182	6.41629	-4.29274
26.59608	6.41629	-4.29274
26.60028	6.41629	-4.29274
26.60447	6.41629	-4.29274
26.60866	6.43827	-4.29274
26.61285	6.43827	-4.29274
26.61704	6.43827	-4.29274
26.62122	6.43827	-4.29274
26.62551	6.43827	-4.29274
26.62972	6.43827	-4.29274
26.63391	6.46024	-4.29274
26.63810	6.46024	-4.29274
26.64229	6.46024	-4.29274
26.64658	6.46024	-4.29274
26.65077	6.46024	-4.29274
26.65518	6.46024	-4.29274
26.65941	6.48221	-4.29274
26.66361	6.48221	-4.29274
26.66780	6.48221	-4.29274
26.67199	6.48221	-4.29274
26.67618	6.48221	-4.29274
26.68038	6.48221	-4.29274
26.68465	6.50418	-4.29274
26.68894	6.50418	-4.29274
26.69315	6.50418	-4.29274
26.69735	6.52616	-4.29274
26.70154	6.52616	-4.29274
26.70573	6.52616	-4.29274
26.70992	6.52616	-4.29274
26.71411	6.54813	-4.29274
26.71842	6.54813	-4.29274
26.72263	6.54813	-4.29274
26.72683	6.54813	-4.29274
26.73102	6.54813	-4.29274
26.73521	6.57010	-4.29274
26.73940	6.57010	-4.29274
26.74359	6.57010	-4.29274
26.74799	6.59207	-4.29274
26.75225	6.59207	-4.29274
26.75645	6.59207	-4.29274
26.76065	6.61405	-4.29274
26.76484	6.61405	-4.29274
26.76904	6.61405	-4.29274
26.77322	6.61405	-4.29274
26.77746	6.63602	-4.29274
26.78174	6.63602	-4.29274
26.78594	6.63602	-4.29274
26.79013	6.65799	-4.29274
26.79432	6.65799	-4.29274
26.79851	6.65799	-4.29274
26.80270	6.67996	-4.29274
26.80688	6.67996	-4.29274
26.81118	6.67996	-4.29274
26.81539	6.70194	-4.29274
26.81958	6.70194	-4.29274
26.82376	6.70194	-4.29274
26.82795	6.70194	-4.29274
26.83214	6.70194	-4.29274
26.83632	6.72391	-4.29274
26.84059	6.72391	-4.29274
26.84484	6.74588	-4.29274
26.84915	6.74588	-4.29274
26.85333	6.76786	-4.29274
26.85752	6.76786	-4.29274
26.86171	6.76786	-4.29274
26.86589	6.76786	-4.29274
26.87008	6.76786	-4.29274
26.87437	6.78983	-4.29274
26.87858	6.78983	-4.29274
26.88277	6.78983	-4.29274
26.88695	6.78983	-4.29274
26.89114	6.78983	-4.29274
26.89533	6.81180	-4.29274
26.89951	6.81180	-4.29274
26.90377	6.81180	-4.29274
26.90802	6.83377	-4.29274
26.91222	6.83377	-4.29274
26.91641	6.83377	-4.29274
26.92060	6.83377	-4.29274
26.92479	6.83377	-4.29274
26.92897	6.85575	-4.29274
26.93315	6.85575	-4.29274
26.93745	6.85575	-4.29274
26.94167	6.85575	-4.29274
26.94586	6.85575	-4.29274
26.95016	6.87772	-4.29274
26.95434	6.85575	-4.29274
26.95853	6.87772	-4.29274
26.96271	6.87772	-4.29274
26.96714	6.87772	-4.29274
26.97136	6.87772	-4.29274
26.97556	6.87772	-4.29274
26.97974	6.87772	-4.29274
26.98393	6.89969	-4.29274
26.98812	6.89969	-4.29274
26.99231	6.89969	-4.29274
26.99661	6.89969	-4.29274
27.00089	6.89969	-4.29274
27.00509	6.89969	-4.29274
27.00928	6.89969	-4.29274
27.01347	6.89969	-4.29274
27.01765	6.89969	-4.29274
27.02184	6.89969	-4.29274
27.02603	6.89969	-4.29274
27.03032	6.92166	-4.29274
27.03454	6.89969	-4.29274
27.03872	6.89969	-4.29274
27.04291	6.89969	-4.29274
27.04710	6.92166	-4.29274
27.05139	6.92166	-4.29274
27.05557	6.92166	-4.29274
27.05983	6.92166	-4.29274
27.06408	6.92166	-4.29274
27.06828	6.92166	-4.29274
27.07247	6.92166	-4.29274
27.07667	6.92166	-4.29274
27.08085	6.92166	-4.29274
27.08504	6.92166	-4.29274
27.08923	6.92166	-4.29274
27.09352	6.92166	-4.29274
27.09773	6.92166	-4.29274
27.10192	6.92166	-4.29274
27.10611	6.92166	-4.29274
27.11030	6.92166	-4.29274
27.11448	6.92166	-4.29274
27.11870	6.92166	-4.29274
27.12315	6.92166	-4.29274
27.12738	6.92166	-4.29274
27.13157	6.89969	-4.29274
27.13576	6.89969	-4.29274
27.13994	6.92166	-4.29274
27.14413	6.89969	-4.29274
27.14832	6.89969	-4.29274
27.15272	6.92166	-4.29274
27.15699	6.89969	-4.29274
27.16120	6.89969	-4.29274
27.16539	6.89969	-4.29274
27.16958	6.89969	-4.29274
27.17376	6.89969	-4.29274
27.17795	6.89969	-4.29274
27.18214	6.89969	-4.29274
27.18643	6.89969	-4.29274
27.19064	6.89969	-4.29274
27.19483	6.89969	-4.29274
27.19903	6.89969	-4.29274
27.20322	6.89969	-4.29274
27.20740	6.89969	-4.29274
27.21159	6.87772	-4.29274
27.21600	6.87772	-4.29274
27.22022	6.87772	-4.29274
27.22442	6.87772	-4.29274
27.22863	6.87772	-4.29274
27.23282	6.87772	-4.29274
27.23701	6.85575	-4.29274
27.24120	6.87772	-4.29274
27.24547	6.87772	-4.29274
27.24975	6.85575	-4.29274
27.25407	6.85575	-4.29274
27.25827	6.85575	-4.29274
27.26247	6.85575	-4.29274
27.26666	6.87772	-4.29274
27.27085	6.85575	-4.29274
27.27505	6.85575	-4.29274
27.27935	6.85575	-4.29274
27.28361	6.85575	-4.29274
27.28781	6.85575	-4.29274
27.29202	6.83377	-4.29274
27.29621	6.85575	-4.29274
27.30041	6.83377	-4.29274
27.30460	6.83377	-4.29274
27.30896	6.83377	-4.29274
27.31317	6.85575	-4.29274
27.31734	6.83377	-4.29274
27.32152	6.83377	-4.29274
27.32569	6.83377	-4.29274
27.32987	6.83377	-4.29274
27.33404	6.83377	-4.29274
27.33830	6.83377	-4.29274
27.34255	6.83377	-4.29274
27.34674	6.83377	-4.29274
27.35091	6.83377	-4.29274
27.35516	6.81180	-4.29274
27.35933	6.81180	-4.29274
27.36349	6.83377	-4.29274
27.36766	6.81180	-4.29274
27.37192	6.81180	-4.29274
27.37612	6.81180	-4.29274
27.38029	6.81180	-4.29274
27.38446	6.81180	-4.29274
27.38863	6.81180	-4.29274
27.39279	6.81180	-4.29274
27.39696	6.81180	-4.29274
27.40122	6.81180	-4.29274
27.40547	6.78983	-4.29274
27.40967	6.78983	-4.29274
27.41386	6.81180	-4.29274
27.41804	6.78983	-4.29274
27.42223	6.78983	-4.29274
27.42641	6.78983	-4.29274
27.43060	6.78983	-4.29274
27.43489	6.78983	-4.29274
27.43910	6.78983	-4.29274
27.44329	6.78983	-4.29274
27.44748	6.78983	-4.29274
27.45167	6.78983	-4.29274
27.45595	6.78983	-4.29274
27.46014	6.76786	-4.29274
27.46457	6.76786	-4.29274
27.46878	6.78983	-4.29274
27.47297	6.78983	-4.29274
27.47716	6.78983	-4.29274
27.48134	6.78983	-4.29274
27.48553	6.78983	-4.29274
27.48972	6.78983	-4.29274
27.49397	6.78983	-4.29274
27.49825	6.78983	-4.29274
27.50245	6.78983	-4.29274
27.50664	6.78983	-4.29274
27.51082	6.78983	-4.29274
27.51501	6.78983	-4.29274
27.51923	6.78983	-4.29274
27.52342	6.76786	-4.29274
27.52771	6.78983	-4.29274
27.53193	6.78983	-4.29274
27.53612	6.78983	-4.29274
27.54032	6.78983	-4.29274
27.54452	6.76786	-4.29274
27.54869	6.78983	-4.29274
27.55287	6.78983	-4.29274
27.55724	6.78983	-4.29274
27.56150	6.78983	-4.29274
27.56570	6.78983	-4.29274
27.56989	6.78983	-4.29274
27.57409	6.78983	-4.29274
27.57827	6.78983	-4.29274
27.58246	6.78983	-4.29274
27.58665	6.78983	-4.29274
27.59095	6.78983	-4.29274
27.59516	6.78983	-4.29274
27.59935	6.78983	-4.29274
27.60355	6.78983	-4.29274
27.60774	6.78983	-4.29274
27.61192	6.78983	-4.29274
27.61611	6.78983	-4.29274
27.62056	6.78983	-4.29274
27.62478	6.78983	-4.29274
27.62897	6.78983	-4.29274
27.63316	6.78983	-4.29274
27.63735	6.78983	-4.29274
27.64153	6.78983	-4.29274
27.64572	6.78983	-4.29274
27.64997	6.78983	-4.29274
27.65425	6.81180	-4.29274
27.65856	6.81180	-4.29274
27.66275	6.81180	-4.29274
27.66694	6.81180	-4.29274
27.67112	6.81180	-4.29274
27.67531	6.81180	-4.29274
27.67950	6.81180	-4.29274
27.68379	6.81180	-4.29274
27.68800	6.81180	-4.29274
27.69220	6.83377	-4.29274
27.69639	6.83377	-4.29274
27.70058	6.83377	-4.29274
27.70477	6.83377	-4.29274
27.70896	6.83377	-4.29274
27.71321	6.83377	-4.29274
27.71747	6.83377	-4.29274
27.72166	6.83377	-4.29274
27.72585	6.83377	-4.29274
27.73004	6.83377	-4.29274
27.73423	6.85575	-4.29274
27.73841	6.83377	-4.29274
27.74260	6.85575	-4.29274
27.74689	6.85575	-4.29274
27.75110	6.85575	-4.29274
27.75529	6.85575	-4.29274
27.75958	6.85575	-4.29274
27.76377	6.87772	-4.29274
27.76796	6.87772	-4.29274
27.77214	6.87772	-4.29274
27.77657	6.87772	-4.29274
27.78079	6.87772	-4.29274
27.78498	6.87772	-4.29274
27.78916	6.87772	-4.29274
27.79335	6.87772	-4.29274
27.79753	6.89969	-4.29274
27.80172	6.89969	-4.29274
27.80598	6.89969	-4.29274
27.81025	6.89969	-4.29274
27.81446	6.89969	-4.29274
27.81865	6.89969	-4.29274
27.82283	6.92166	-4.29274
27.82702	6.92166	-4.29274
27.83121	6.92166	-4.29274
27.83539	6.92166	-4.29274
27.83969	6.94364	-4.29274
27.84390	6.92166	-4.29274
27.84809	6.94364	-4.29274
27.85228	6.94364	-4.29274
27.85646	6.94364	-4.29274
27.86076	6.94364	-4.29274
27.86495	6.94364	-4.29274
27.86920	6.96561	-4.29274
27.87345	6.96561	-4.29274
27.87766	6.96561	-4.29274
27.88185	6.96561	-4.29274
27.88603	6.96561	-4.29274
27.89022	6.96561	-4.29274
27.89441	6.98758	-4.29274
27.89859	6.98758	-4.29274
27.90288	6.98758	-4.29274
27.90710	6.98758	-4.29274
27.91129	6.98758	-4.29274
27.91548	7.00955	-4.29274
27.91966	7.00955	-4.29274
27.92385	7.00955	-4.29274
27.92803	7.00955	-4.29274
27.93229	7.00955	-4.29274
27.93657	7.00955	-4.29274
27.94078	7.00955	-4.29274
27.94498	7.03153	-4.29274
27.94917	7.03153	-4.29274
27.95335	7.05350	-4.29274
27.95754	7.05350	-4.29274
27.96183	7.05350	-4.29274
27.96613	7.07547	-4.29274
27.97034	7.05350	-4.29274
27.97453	7.07547	-4.29274
27.97872	7.07547	-4.29274
27.98291	7.09744	-4.29274
27.98709	7.09744	-4.29274
27.99128	7.09744	-4.29274
27.99572	7.09744	-4.29274
27.99994	7.09744	-4.29274
28.00412	7.09744	-4.29274
28.00832	7.11942	-4.29274
28.01250	7.11942	-4.29274
28.01668	7.11942	-4.29274
28.02087	7.11942	-4.29274
28.02513	7.11942	-4.29274
28.02940	7.11942	-4.29274
28.03361	7.14139	-4.29274
28.03780	7.14139	-4.29274
28.04199	7.14139	-4.29274
28.04617	7.14139	-4.29274
28.05036	7.14139	-4.29274
28.05455	7.14139	-4.29274
28.05884	7.16336	-4.29274
28.06316	7.16336	-4.29274
28.06738	7.16336	-4.29274
28.07157	7.16336	-4.29274
28.07576	7.16336	-4.29274
28.07995	7.18534	-4.29274
28.08414	7.18534	-4.29274
28.08859	7.18534	-4.29274
28.09282	7.18534	-4.29274
28.09702	7.18534	-4.29274
28.10122	7.18534	-4.29274
28.10541	7.18534	-4.29274
28.10960	7.20731	-4.29274
28.11379	7.20731	-4.29274
28.11833	7.20731	-4.29274
28.12263	7.20731	-4.29274
28.12685	7.20731	-4.29274
28.13105	7.22928	-4.29274
28.13525	7.22928	-4.29274
28.13944	7.22928	-4.29274
28.14363	7.22928	-4.29274
28.14782	7.22928	-4.29274
28.15212	7.22928	-4.29274
28.15634	7.22928	-4.29274
28.16054	7.25125	-4.29274
28.16480	7.22928	-4.29274
28.16899	7.25125	-4.29274
28.17318	7.25125	-4.29274
28.17737	7.25125	-4.29274
28.18177	7.27323	-4.29274
28.18599	7.27323	-4.29274
28.19018	7.27323	-4.29274
28.19437	7.27323	-4.29274
28.19856	7.27323	-4.29274
28.20275	7.27323	-4.29274
28.20695	7.29520	-4.29274
28.21121	7.29520	-4.29274
28.21549	7.29520	-4.29274
28.21969	7.31717	-4.29274
28.22389	7.31717	-4.29274
28.22808	7.31717	-4.29274
28.23227	7.31717	-4.29274
28.23646	7.31717	-4.29274
28.24066	7.31717	-4.29274
28.24495	7.31717	-4.29274
28.24916	7.31717	-4.29274
28.25335	7.31717	-4.29274
28.25754	7.31717	-4.29274
28.26172	7.33914	-4.29274
28.26602	7.33914	-4.29274
28.27020	7.33914	-4.29274
28.27445	7.36112	-4.29274
28.27872	7.36112	-4.29274
28.28296	7.36112	-4.29274
28.28715	7.36112	-4.29274
28.29134	7.36112	-4.29274
28.29556	7.38309	-4.29274
28.29976	7.38309	-4.29274
28.30395	7.38309	-4.29274
28.30825	7.38309	-4.29274
28.31248	7.38309	-4.29274
28.31668	7.38309	-4.29274
28.32087	7.40506	-4.29274
28.32507	7.40506	-4.29274
28.32926	7.40506	-4.29274
28.33345	7.40506	-4.29274
28.33785	7.40506	-4.29274
28.34208	7.42703	-4.29274
28.34628	7.42703	-4.29274
28.35047	7.42703	-4.29274
28.35466	7.42703	-4.29274
28.35885	7.44901	-4.29274
28.36304	7.44901	-4.29274
28.36744	7.44901	-4.29274
28.37171	7.44901	-4.29274
28.37592	7.44901	-4.29274
28.38011	7.47098	-4.29274
28.38430	7.47098	-4.29274
28.38848	7.47098	-4.29274
28.39268	7.47098	-4.29274
28.39686	7.47098	-4.29274
28.40116	7.49295	-4.29274
28.40537	7.49295	-4.29274
28.40957	7.49295	-4.29274
28.41375	7.51493	-4.29274
28.41794	7.51493	-4.29274
28.42213	7.51493	-4.29274
28.42631	7.51493	-4.29274
28.43057	7.51493	-4.29274
28.43482	7.53690	-4.29274
28.43902	7.53690	-4.29274
28.44320	7.53690	-4.29274
28.44739	7.53690	-4.29274
28.45158	7.53690	-4.29274
28.45576	7.55887	-4.29274
28.45995	7.55887	-4.29274
28.46424	7.55887	-4.29274
28.46857	7.55887	-4.29274
28.47276	7.55887	-4.29274
28.47694	7.55887	-4.29274
28.48113	7.58084	-4.29274
28.48532	7.58084	-4.29274
28.48950	7.58084	-4.29274
28.49394	7.58084	-4.29274
28.49817	7.60282	-4.29274
28.50236	7.60282	-4.29274
28.50656	7.60282	-4.29274
28.51075	7.60282	-4.29274
28.51494	7.60282	-4.29274
28.51915	7.60282	-4.29274
28.52343	7.62479	-4.29274
28.52773	7.62479	-4.29274
28.53195	7.62479	-4.29274
28.53615	7.64676	-4.29274
28.54034	7.64676	-4.29274
28.54454	7.64676	-4.29274
28.54869	7.64676	-4.29274
28.55288	7.64676	-4.29274
28.55719	7.66873	-4.29274
28.56141	7.66873	-4.29274
28.56560	7.66873	-4.29274
28.56991	7.66873	-4.29274
28.57410	7.69071	-4.29274
28.57829	7.69071	-4.29274
28.58248	7.69071	-4.29274
28.58689	7.69071	-4.29274
28.59112	7.69071	-4.29274
28.59532	7.71268	-4.29274
28.59951	7.71268	-4.29274
28.60370	7.71268	-4.29274
28.60789	7.71268	-4.29274
28.61208	7.71268	-4.29274
28.61636	7.71268	-4.29274
28.62064	7.73465	-4.29274
28.62485	7.73465	-4.29274
28.62904	7.73465	-4.29274
28.63323	7.73465	-4.29274
28.63741	7.75662	-4.29274
28.64160	7.75662	-4.29274
28.64578	7.75662	-4.29274
28.65007	7.75662	-4.29274
28.65428	7.75662	-4.29274
28.65847	7.75662	-4.29274
28.66266	7.77860	-4.29274
28.66684	7.77860	-4.29274
28.67113	7.77860	-4.29274
28.67532	7.77860	-4.29274
28.67973	7.80057	-4.29274
28.68395	7.80057	-4.29274
28.68815	7.80057	-4.29274
28.69234	7.80057	-4.29274
28.69653	7.80057	-4.29274
28.70069	7.80057	-4.29274
28.70488	7.80057	-4.29274
28.70914	7.82254	-4.29274
28.71342	7.82254	-4.29274
28.71763	7.82254	-4.29274
28.72182	7.82254	-4.29274
28.72602	7.84452	-4.29274
28.73021	7.84452	-4.29274
28.73440	7.84452	-4.29274
28.73859	7.84452	-4.29274
28.74291	7.84452	-4.29274
28.74713	7.84452	-4.29274
28.75132	7.84452	-4.29274
28.75552	7.86649	-4.29274
28.75971	7.86649	-4.29274
28.76391	7.86649	-4.29274
28.76810	7.86649	-4.29274
28.77249	7.86649	-4.29274
28.77674	7.86649	-4.29274
28.78094	7.86649	-4.29274
28.78513	7.86649	-4.29274
28.78932	7.86649	-4.29274
28.79351	7.86649	-4.29274
28.79769	7.86649	-4.29274
28.80194	7.88846	-4.29274
28.80621	7.88846	-4.29274
28.81042	7.88846	-4.29274
28.81462	7.88846	-4.29274
28.81880	7.88846	-4.29274
28.82299	7.86649	-4.29274
28.82717	7.88846	-4.29274
28.83136	7.88846	-4.29274
28.83565	7.88846	-4.29274
28.83987	7.88846	-4.29274
28.84406	7.88846	-4.29274
28.84825	7.88846	-4.29274
28.85243	7.88846	-4.29274
28.85663	7.88846	-4.29274
28.86081	7.88846	-4.29274
28.86507	7.88846	-4.29274
28.86932	7.88846	-4.29274
28.87363	7.88846	-4.29274
28.87782	7.86649	-4.29274
28.88200	7.88846	-4.29274
28.88619	7.86649	-4.29274
28.89037	7.86649	-4.29274
28.89456	7.88846	-4.29274
28.89885	7.86649	-4.29274
28.90306	7.86649	-4.29274
28.90725	7.86649	-4.29274
28.91144	7.86649	-4.29274
28.91563	7.86649	-4.29274
28.91981	7.86649	-4.29274
28.92400	7.86649	-4.29274
28.92825	7.86649	-4.29274
28.93251	7.84452	-4.29274
28.93671	7.84452	-4.29274
28.94091	7.84452	-4.29274
28.94510	7.84452	-4.29274
28.94929	7.84452	-4.29274
28.95347	7.84452	-4.29274
28.95766	7.82254	-4.29274
28.96195	7.82254	-4.29274
28.96616	7.82254	-4.29274
28.97035	7.82254	-4.29274
28.97465	7.80057	-4.29274
28.97883	7.80057	-4.29274
28.98302	7.80057	-4.29274
28.98721	7.80057	-4.29274
28.99165	7.80057	-4.29274
28.99587	7.77860	-4.29274
29.00006	7.77860	-4.29274
29.00425	7.77860	-4.29274
29.00844	7.75662	-4.29274
29.01264	7.75662	-4.29274
29.01683	7.75662	-4.29274
29.02109	7.75662	-4.29274
29.02537	7.75662	-4.29274
29.02958	7.73465	-4.29274
29.03376	7.73465	-4.29274
29.03795	7.73465	-4.29274
29.04213	7.71268	-4.29274
29.04632	7.71268	-4.29274
29.05051	7.71268	-4.29274
29.05487	7.69071	-4.29274
29.05909	7.69071	-4.29274
29.06328	7.69071	-4.29274
29.06747	7.69071	-4.29274
29.07166	7.69071	-4.29274
29.07595	7.66873	-4.29274
29.08013	7.66873	-4.29274
29.08458	7.64676	-4.29274
29.08881	7.64676	-4.29274
29.09301	7.62479	-4.29274
29.09721	7.62479	-4.29274
29.10140	7.62479	-4.29274
29.10559	7.62479	-4.29274
29.10979	7.60282	-4.29274
29.11407	7.60282	-4.29274
29.11836	7.58084	-4.29274
29.12258	7.58084	-4.29274
29.12677	7.58084	-4.29274
29.13097	7.58084	-4.29274
29.13516	7.55887	-4.29274
29.13935	7.55887	-4.29274
29.14354	7.53690	-4.29274
29.14785	7.53690	-4.29274
29.15207	7.51493	-4.29274
29.15626	7.51493	-4.29274
29.16045	7.51493	-4.29274
29.16465	7.49295	-4.29274
29.16884	7.49295	-4.29274
29.17305	7.49295	-4.29274
29.17745	7.47098	-4.29274
29.18171	7.44901	-4.29274
29.18591	7.44901	-4.29274
29.19010	7.42703	-4.29274
29.19430	7.42703	-4.29274
29.19849	7.40506	-4.29274
29.20269	7.40506	-4.29274
29.20695	7.40506	-4.29274
29.21122	7.40506	-4.29274
29.21543	7.38309	-4.29274
29.21963	7.36112	-4.29274
29.22382	7.36112	-4.29274
29.22800	7.33914	-4.29274
29.23219	7.33914	-4.29274
29.23638	7.31717	-4.29274
29.24068	7.31717	-4.29274
29.24489	7.31717	-4.29274
29.24908	7.29520	-4.29274
29.25327	7.27323	-4.29274
29.25746	7.27323	-4.29274
29.26164	7.27323	-4.29274
29.26583	7.25125	-4.29274
29.27007	7.22928	-4.29274
29.27432	7.22928	-4.29274
29.27863	7.20731	-4.29274
29.28285	7.18534	-4.29274
29.28704	7.18534	-4.29274
29.29123	7.18534	-4.29274
29.29541	7.16336	-4.29274
29.29960	7.14139	-4.29274
29.30389	7.14139	-4.29274
29.30812	7.11942	-4.29274
29.31231	7.11942	-4.29274
29.31649	7.09744	-4.29274
29.32068	7.09744	-4.29274
29.32487	7.07547	-4.29274
29.32905	7.05350	-4.29274
29.33348	7.03153	-4.29274
29.33770	7.03153	-4.29274
29.34190	7.03153	-4.29274
29.34609	6.98758	-4.29274
29.35029	6.98758	-4.29274
29.35448	6.96561	-4.29274
29.35867	6.94364	-4.29274
29.36293	6.94364	-4.29274
29.36721	6.94364	-4.29274
29.37142	6.89969	-4.29274
29.37561	6.89969	-4.29274
29.37992	6.87772	-4.29274
29.38411	6.85575	-4.29274
29.38830	6.85575	-4.29274
29.39249	6.83377	-4.29274
29.39680	6.83377	-4.29274
29.40101	6.81180	-4.29274
29.40520	6.78983	-4.29274
29.40940	6.76786	-4.29274
29.41359	6.74588	-4.29274
29.41778	6.74588	-4.29274
29.42197	6.72391	-4.29274
29.42638	6.72391	-4.29274
29.43060	6.70194	-4.29274
29.43479	6.67996	-4.29274
29.43899	6.65799	-4.29274
29.44318	6.63602	-4.29274
29.44737	6.63602	-4.29274
29.45156	6.61405	-4.29274
29.45582	6.61405	-4.29274
29.46010	6.57010	-4.29274
29.46430	6.57010	-4.29274
29.46849	6.54813	-4.29274
29.47268	6.54813	-4.29274
29.47687	6.52616	-4.29274
29.48116	6.52616	-4.29274
29.48534	6.50418	-4.29274
29.48963	6.48221	-4.29274
29.49385	6.46024	-4.29274
29.49804	6.46024	-4.29274
29.50222	6.43827	-4.29274
29.50641	6.41629	-4.29274
29.51060	6.41629	-4.29274
29.51478	6.39432	-4.29274
29.51906	6.37235	-4.29274
29.52332	6.37235	-4.29274
29.52752	6.37235	-4.29274
29.53171	6.35037	-4.29274
29.53590	6.35037	-4.29274
29.54008	6.30643	-4.29274
29.54427	6.30643	-4.29274
29.54845	6.28446	-4.29274
29.55276	6.28446	-4.29274
29.55699	6.28446	-4.29274
29.56118	6.26248	-4.29274
29.56537	6.24051	-4.29274
29.56955	6.24051	-4.29274
29.57374	6.21854	-4.29274
29.57793	6.21854	-4.29274
29.58248	6.19657	-4.29274
29.58669	6.19657	-4.29274
29.59088	6.17459	-4.29274
29.59508	6.17459	-4.29274
29.59927	6.15262	-4.29274
29.60347	6.15262	-4.29274
29.60766	6.15262	-4.29274
29.61193	6.13065	-4.29274
29.61621	6.10868	-4.29274
29.62042	6.10868	-4.29274
29.62463	6.08670	-4.29274
29.62882	6.08670	-4.29274
29.63301	6.06473	-4.29274
29.63720	6.06473	-4.29274
29.64140	6.06473	-4.29274
29.64570	6.04276	-4.29274
29.64992	6.04276	-4.29274
29.65410	6.02078	-4.29274
29.65829	6.02078	-4.29274
29.66248	6.02078	-4.29274
29.66667	5.99881	-4.29274
29.67085	5.99881	-4.29274
29.67511	5.97684	-4.29274
29.67936	5.97684	-4.29274
29.68366	5.97684	-4.29274
29.68785	5.97684	-4.29274
29.69204	5.95487	-4.29274
29.69623	5.95487	-4.29274
29.70041	5.95487	-4.29274
29.70461	5.93289	-4.29274
29.70891	5.93289	-4.29274
29.71312	5.93289	-4.29274
29.71731	5.93289	-4.29274
29.72149	5.91092	-4.29274
29.72568	5.91092	-4.29274
29.72987	5.91092	-4.29274
29.73405	5.91092	-4.29274
29.73847	5.88895	-4.29274
29.74269	5.88895	-4.29274
29.74689	5.88895	-4.29274
29.75108	5.88895	-4.29274
29.75527	5.88895	-4.29274
29.75946	5.88895	-4.29274
29.76365	5.86698	-4.29274
29.76792	5.86698	-4.29274
29.77220	5.86698	-4.29274
29.77642	5.86698	-4.29274
29.78063	5.86698	-4.29274
29.78494	5.86698	-4.29274
29.78913	5.86698	-4.29274
29.79332	5.86698	-4.29274
29.79751	5.84500	-4.29274
29.80181	5.86698	-4.29274
29.80602	5.86698	-4.29274
29.81022	5.86698	-4.29274
29.81442	5.86698	-4.29274
29.81861	5.86698	-4.29274
29.82280	5.84500	-4.29274
29.82699	5.84500	-4.29274
29.83139	5.84500	-4.29274
29.83561	5.84500	-4.29274
29.83980	5.84500	-4.29274
29.84400	5.86698	-4.29274
29.84819	5.86698	-4.29274
29.85238	5.86698	-4.29274
29.85658	5.86698	-4.29274
29.86085	5.86698	-4.29274
29.86513	5.86698	-4.29274
29.86934	5.86698	-4.29274
29.87353	5.86698	-4.29274
29.87772	5.86698	-4.29274
29.88191	5.88895	-4.29274
29.88620	5.86698	-4.29274
29.89038	5.86698	-4.29274
29.89467	5.88895	-4.29274
29.89888	5.88895	-4.29274
29.90307	5.88895	-4.29274
29.90726	5.91092	-4.29274
29.91145	5.88895	-4.29274
29.91563	5.91092	-4.29274
29.91982	5.91092	-4.29274
29.92407	5.91092	-4.29274
29.92833	5.91092	-4.29274
29.93253	5.93289	-4.29274
29.93669	5.93289	-4.29274
29.94089	5.93289	-4.29274
29.94508	5.95487	-4.29274
29.94927	5.95487	-4.29274
29.95345	5.95487	-4.29274
29.95776	5.95487	-4.29274
29.96197	5.95487	-4.29274
29.96616	5.97684	-4.29274
29.97034	5.97684	-4.29274
29.97453	5.97684	-4.29274
29.97872	5.97684	-4.29274
29.98290	5.99881	-4.29274
29.98728	5.99881	-4.29274
29.99154	6.02078	-4.29274
29.99574	6.02078	-4.29274
29.99993	6.02078	-4.29274
