Time (s)   roll (deg)   Delta
0.00040	-10.54660	11.27051
0.00462	-10.54660	11.27051
0.00882	-10.54660	11.27051
0.01301	-10.52463	11.27051
0.01720	-10.52463	11.27051
0.02149	-10.52463	11.27051
0.02570	-10.52463	11.27051
0.02988	-10.52463	11.27051
0.03406	-10.52463	11.27051
0.03824	-10.52463	11.27051
0.04243	-10.52463	11.27051
0.04661	-10.52463	11.27051
0.05097	-10.52463	11.27051
0.05518	-10.52463	11.27051
0.05937	-10.52463	11.27051
0.06355	-10.52463	11.27051
0.06774	-10.52463	11.27051
0.07191	-10.52463	11.27051
0.07608	-10.52463	11.27051
0.08040	-10.52463	11.27051
0.08464	-10.52463	11.27051
0.08882	-10.52463	11.27051
0.09300	-10.52463	11.27051
0.09717	-10.54660	11.27051
0.10144	-10.54660	11.27051
0.10561	-10.54660	11.27051
0.10985	-10.54660	11.27051
0.11410	-10.54660	11.27051
0.11828	-10.54660	11.27051
0.12245	-10.54660	11.27051
0.12662	-10.54660	11.27051
0.13079	-10.56857	11.27051
0.13496	-10.56857	11.27051
0.13913	-10.56857	11.27051
0.14340	-10.56857	11.27051
0.14759	-10.59054	11.27051
0.15176	-10.59054	11.27051
0.15593	-10.59054	11.27051
0.16010	-10.61252	11.27051
0.16427	-10.61252	11.27051
0.16846	-10.61252	11.27051
0.17284	-10.63449	11.27051
0.17707	-10.63449	11.27051
0.18126	-10.65646	11.27051
0.18544	-10.65646	11.27051
0.18963	-10.67843	11.27051
0.19382	-10.67843	11.27051
0.19803	-10.70041	11.27051
0.20245	-10.70041	11.27051
0.20675	-10.72238	11.27051
0.21095	-10.72238	11.27051
0.21514	-10.74435	11.27051
0.21933	-10.76632	11.27051
0.22353	-10.78830	11.27051
0.22772	-10.78830	11.27051
0.23197	-10.81027	11.27051
0.23625	-10.81027	11.27051
0.24046	-10.83224	11.27051
0.24465	-10.85422	11.27051
0.24884	-10.87619	11.27051
0.25304	-10.89816	11.27051
0.25723	-10.92013	11.27051
0.26142	-10.92013	11.27051
0.26573	-10.94211	11.27051
0.26994	-10.96408	11.27051
0.27414	-10.98605	11.27051
0.27833	-11.03000	11.27051
0.28252	-11.03000	11.27051
0.28671	-11.03000	11.27051
0.29090	-11.07394	11.27051
0.29525	-11.09591	11.27051
0.29946	-11.11789	11.27051
0.30376	-11.13986	11.27051
0.30795	-11.18381	11.27051
0.31214	-11.20578	11.27051
0.31634	-11.20578	11.27051
0.32053	-11.22775	11.27051
0.32487	-11.24972	11.27051
0.32915	-11.29367	11.27051
0.33334	-11.31564	11.27051
0.33753	-11.35959	11.27051
0.34173	-11.38156	11.27051
0.34592	-11.38156	11.27051
0.35011	-11.42550	11.27051
0.35435	-11.44748	11.27051
0.35864	-11.46945	11.27051
0.36285	-11.51339	11.27051
0.36706	-11.55734	11.27051
0.37126	-11.55734	11.27051
0.37546	-11.57931	11.27051
0.37966	-11.62326	11.27051
0.38385	-11.64523	11.27051
0.38815	-11.68918	11.27051
0.39237	-11.71115	11.27051
0.39656	-11.71115	11.27051
0.40075	-11.75509	11.27051
0.40507	-11.79904	11.27051
0.40926	-11.84298	11.27051
0.41344	-11.88693	11.27051
0.41783	-11.90890	11.27051
0.42206	-11.95285	11.27051
0.42626	-11.95285	11.27051
0.43045	-11.99679	11.27051
0.43464	-12.04074	11.27051
0.43883	-12.08468	11.27051
0.44302	-12.12863	11.27051
0.44735	-12.17257	11.27051
0.45162	-12.17257	11.27051
0.45582	-12.21652	11.27051
0.46001	-12.26047	11.27051
0.46421	-12.30441	11.27051
0.46842	-12.34836	11.27051
0.47262	-12.39230	11.27051
0.47688	-12.39230	11.27051
0.48117	-12.43625	11.27051
0.48537	-12.48019	11.27051
0.48957	-12.52414	11.27051
0.49376	-12.59006	11.27051
0.49795	-12.59006	11.27051
0.50214	-12.61203	11.27051
0.50645	-12.67795	11.27051
0.51075	-12.72189	11.27051
0.51495	-12.76584	11.27051
0.51914	-12.80978	11.27051
0.52333	-12.85373	11.27051
0.52753	-12.85373	11.27051
0.53172	-12.89767	11.27051
0.53591	-12.94162	11.27051
0.54024	-13.00754	11.27051
0.54445	-13.05148	11.27051
0.54864	-13.09543	11.27051
0.55283	-13.13937	11.27051
0.55703	-13.13937	11.27051
0.56122	-13.20529	11.27051
0.56541	-13.24923	11.27051
0.56980	-13.29318	11.27051
0.57408	-13.35910	11.27051
0.57828	-13.40304	11.27051
0.58248	-13.40304	11.27051
0.58667	-13.46896	11.27051
0.59086	-13.51291	11.27051
0.59506	-13.55685	11.27051
0.59930	-13.60080	11.27051
0.60359	-13.66672	11.27051
0.60791	-13.71066	11.27051
0.61211	-13.71066	11.27051
0.61630	-13.77658	11.27051
0.62049	-13.82052	11.27051
0.62468	-13.86447	11.27051
0.62887	-13.93039	11.27051
0.63318	-13.97433	11.27051
0.63738	-14.04025	11.27051
0.64157	-14.04025	11.27051
0.64576	-14.08420	11.27051
0.64995	-14.12814	11.27051
0.65414	-14.19406	11.27051
0.65833	-14.23800	11.27051
0.66266	-14.23800	11.27051
0.66690	-14.30392	11.27051
0.67110	-14.34787	11.27051
0.67530	-14.41379	11.27051
0.67949	-14.43576	11.27051
0.68368	-14.50168	11.27051
0.68787	-14.56759	11.27051
0.69221	-14.56759	11.27051
0.69647	-14.61154	11.27051
0.70067	-14.65548	11.27051
0.70486	-14.69943	11.27051
0.70918	-14.76535	11.27051
0.71337	-14.80929	11.27051
0.71755	-14.80929	11.27051
0.72179	-14.87521	11.27051
0.72607	-14.91916	11.27051
0.73027	-14.98507	11.27051
0.73446	-15.02902	11.27051
0.73865	-15.02902	11.27051
0.74284	-15.09494	11.27051
0.74703	-15.13888	11.27051
0.75122	-15.20480	11.27051
0.75551	-15.22677	11.27051
0.75971	-15.29269	11.27051
0.76390	-15.33664	11.27051
0.76811	-15.33664	11.27051
0.77231	-15.40256	11.27051
0.77651	-15.44650	11.27051
0.78070	-15.49045	11.27051
0.78506	-15.55636	11.27051
0.78928	-15.60031	11.27051
0.79347	-15.60031	11.27051
0.79767	-15.64425	11.27051
0.80186	-15.68820	11.27051
0.80605	-15.75412	11.27051
0.81035	-15.79806	11.27051
0.81467	-15.84201	11.27051
0.81894	-15.88595	11.27051
0.82315	-15.88595	11.27051
0.82734	-15.95187	11.27051
0.83153	-15.99582	11.27051
0.83572	-16.03976	11.27051
0.83991	-16.08371	11.27051
0.84415	-16.14963	11.27051
0.84842	-16.17160	11.27051
0.85263	-16.17160	11.27051
0.85682	-16.23752	11.27051
0.86102	-16.25949	11.27051
0.86521	-16.32541	11.27051
0.86941	-16.34738	11.27051
0.87361	-16.34738	11.27051
0.87792	-16.41330	11.27051
0.88213	-16.45724	11.27051
0.88632	-16.50119	11.27051
0.89051	-16.54513	11.27051
0.89470	-16.58908	11.27051
0.89889	-16.63302	11.27051
0.90308	-16.63302	11.27051
0.90741	-16.67697	11.27051
0.91173	-16.72091	11.27051
0.91592	-16.76486	11.27051
0.92011	-16.78683	11.27051
0.92430	-16.85275	11.27051
0.92849	-16.85275	11.27051
0.93268	-16.87472	11.27051
0.93702	-16.91867	11.27051
0.94129	-16.96261	11.27051
0.94549	-16.98459	11.27051
0.94968	-17.05050	11.27051
0.95386	-17.07248	11.27051
0.95805	-17.07248	11.27051
0.96224	-17.11642	11.27051
0.96651	-17.16037	11.27051
0.97080	-17.20431	11.27051
0.97501	-17.22629	11.27051
0.97921	-17.22629	11.27051
0.98340	-17.27023	11.27051
0.98760	-17.31418	11.27051
0.99188	-17.33615	11.27051
0.99610	-17.38009	11.27051
1.00042	-17.40207	11.27051
1.00464	-17.40207	11.27051
1.00884	-17.44601	11.27051
1.01315	-17.48996	11.27051
1.01734	-17.51193	11.27051
1.02153	-17.53390	11.27051
1.02573	-17.57785	11.27051
1.03010	-17.59982	11.27051
1.03431	-17.59982	11.27051
1.03850	-17.64377	11.27051
1.04269	-17.66574	11.27051
1.04688	-17.68771	11.27051
1.05107	-17.73166	11.27051
1.05526	-17.75363	11.27051
1.05961	-17.77560	11.27051
1.06388	-17.77560	11.27051
1.06809	-17.79757	11.27051
1.07230	-17.84152	11.27051
1.07649	-17.86349	11.27051
1.08069	-17.88547	11.27051
1.08488	-17.90744	11.27051
1.08913	-17.90744	11.27051
1.09341	-17.95138	11.27051
1.09761	-17.97336	11.27051
1.10180	-17.97336	11.27051
1.10599	-18.01730	11.27051
1.11018	-18.03927	11.27051
1.11448	-18.03927	11.27051
1.11867	-18.06125	11.27051
1.12297	-18.08322	11.27051
1.12717	-18.10519	11.27051
1.13136	-18.12716	11.27051
1.13559	-18.14914	11.27051
1.13979	-18.14914	11.27051
1.14399	-18.17111	11.27051
1.14818	-18.17111	11.27051
1.15259	-18.21506	11.27051
1.15681	-18.21506	11.27051
1.16101	-18.23703	11.27051
1.16520	-18.25900	11.27051
1.16941	-18.25900	11.27051
1.17361	-18.25900	11.27051
1.17780	-18.30295	11.27051
1.18216	-18.30295	11.27051
1.18643	-18.32492	11.27051
1.19063	-18.32492	11.27051
1.19482	-18.34689	11.27051
1.19901	-18.34689	11.27051
1.20320	-18.36886	11.27051
1.20740	-18.36886	11.27051
1.21166	-18.39084	11.27051
1.21606	-18.39084	11.27051
1.22026	-18.41281	11.27051
1.22445	-18.41281	11.27051
1.22864	-18.43478	11.27051
1.23283	-18.43478	11.27051
1.23702	-18.45675	11.27051
1.24121	-18.45675	11.27051
1.24550	-18.45675	11.27051
1.24971	-18.47873	11.27051
1.25390	-18.47873	11.27051
1.25809	-18.47873	11.27051
1.26227	-18.47873	11.27051
1.26646	-18.50070	11.27051
1.27066	-18.50070	11.27051
1.27506	-18.50070	11.27051
1.27927	-18.50070	11.27051
1.28346	-18.52267	11.27051
1.28765	-18.52267	11.27051
1.29184	-18.52267	11.27051
1.29602	-18.52267	11.27051
1.30021	-18.52267	11.27051
1.30450	-18.52267	11.27051
1.30876	-18.54464	11.27051
1.31296	-18.52267	11.27051
1.31725	-18.54464	11.27051
1.32144	-18.54464	11.27051
1.32563	-18.54464	11.27051
1.32981	-18.54464	11.27051
1.33406	-18.56662	11.27051
1.33834	-18.54464	11.27051
1.34254	-18.54464	11.27051
1.34673	-18.54464	11.27051
1.35092	-18.54464	11.27051
1.35510	-18.54464	11.27051
1.35929	-18.54464	11.27051
1.36348	-18.54464	11.27051
1.36781	-18.54464	11.27051
1.37203	-18.52267	11.27051
1.37623	-18.54464	11.27051
1.38042	-18.54464	11.27051
1.38460	-18.52267	11.27051
1.38879	-18.52267	11.27051
1.39299	-18.52267	11.27051
1.39740	-18.52267	11.27051
1.40161	-18.52267	11.27051
1.40581	-18.52267	11.27051
1.40999	-18.52267	11.27051
1.41418	-18.50070	11.27051
1.41847	-18.50070	11.27051
1.42266	-18.50070	11.27051
1.42694	-18.50070	11.27051
1.43120	-18.47873	11.27051
1.43539	-18.47873	11.27051
1.43958	-18.47873	11.27051
1.44377	-18.45675	11.27051
1.44796	-18.45675	11.27051
1.45215	-18.45675	11.27051
1.45641	-18.43478	11.27051
1.46069	-18.43478	11.27051
1.46490	-18.43478	11.27051
1.46910	-18.41281	11.27051
1.47329	-18.41281	11.27051
1.47748	-18.39084	11.27051
1.48167	-18.39084	11.27051
1.48585	-18.39084	11.27051
1.49018	-18.36886	11.27051
1.49439	-18.36886	11.27051
1.49858	-18.34689	11.27051
1.50277	-18.32492	11.27051
1.50696	-18.32492	11.27051
1.51114	-18.32492	11.27051
1.51534	-18.32492	11.27051
1.51985	-18.30295	11.27051
1.52406	-18.28097	11.27051
1.52831	-18.28097	11.27051
1.53250	-18.25900	11.27051
1.53669	-18.23703	11.27051
1.54087	-18.23703	11.27051
1.54507	-18.21506	11.27051
1.54936	-18.21506	11.27051
1.55362	-18.19308	11.27051
1.55782	-18.19308	11.27051
1.56201	-18.19308	11.27051
1.56619	-18.17111	11.27051
1.57039	-18.14914	11.27051
1.57460	-18.12716	11.27051
1.57886	-18.12716	11.27051
1.58315	-18.10519	11.27051
1.58735	-18.08322	11.27051
1.59154	-18.08322	11.27051
1.59573	-18.08322	11.27051
1.59991	-18.03927	11.27051
1.60410	-18.03927	11.27051
1.60828	-18.01730	11.27051
1.61257	-17.99533	11.27051
1.61678	-17.99533	11.27051
1.62108	-17.99533	11.27051
1.62527	-17.95138	11.27051
1.62945	-17.92941	11.27051
1.63363	-17.92941	11.27051
1.63782	-17.90744	11.27051
1.64217	-17.88547	11.27051
1.64637	-17.88547	11.27051
1.65056	-17.86349	11.27051
1.65474	-17.84152	11.27051
1.65893	-17.81955	11.27051
1.66311	-17.79757	11.27051
1.66731	-17.79757	11.27051
1.67162	-17.75363	11.27051
1.67589	-17.75363	11.27051
1.68008	-17.75363	11.27051
1.68427	-17.73166	11.27051
1.68845	-17.70968	11.27051
1.69264	-17.68771	11.27051
1.69682	-17.68771	11.27051
1.70108	-17.66574	11.27051
1.70536	-17.64377	11.27051
1.70956	-17.62179	11.27051
1.71374	-17.59982	11.27051
1.71793	-17.57785	11.27051
1.72221	-17.55588	11.27051
1.72640	-17.55588	11.27051
1.73058	-17.53390	11.27051
1.73487	-17.51193	11.27051
1.73907	-17.48996	11.27051
1.74326	-17.46798	11.27051
1.74745	-17.44601	11.27051
1.75163	-17.44601	11.27051
1.75581	-17.42404	11.27051
1.76000	-17.40207	11.27051
1.76435	-17.35812	11.27051
1.76858	-17.35812	11.27051
1.77277	-17.35812	11.27051
1.77698	-17.33615	11.27051
1.78117	-17.31418	11.27051
1.78535	-17.29220	11.27051
1.78953	-17.27023	11.27051
1.79382	-17.22629	11.27051
1.79807	-17.22629	11.27051
1.80226	-17.22629	11.27051
1.80645	-17.18234	11.27051
1.81064	-17.16037	11.27051
1.81482	-17.13839	11.27051
1.81900	-17.11642	11.27051
1.82336	-17.11642	11.27051
1.82763	-17.07248	11.27051
1.83182	-17.07248	11.27051
1.83601	-17.05050	11.27051
1.84019	-17.05050	11.27051
1.84438	-17.00656	11.27051
1.84856	-16.98459	11.27051
1.85274	-16.98459	11.27051
1.85705	-16.96261	11.27051
1.86125	-16.94064	11.27051
1.86544	-16.91867	11.27051
1.86964	-16.89670	11.27051
1.87384	-16.87472	11.27051
1.87803	-16.85275	11.27051
1.88222	-16.85275	11.27051
1.88660	-16.83078	11.27051
1.89081	-16.80881	11.27051
1.89499	-16.78683	11.27051
1.89918	-16.76486	11.27051
1.90336	-16.72091	11.27051
1.90755	-16.72091	11.27051
1.91174	-16.69894	11.27051
1.91604	-16.69894	11.27051
1.92030	-16.65500	11.27051
1.92460	-16.63302	11.27051
1.92879	-16.61105	11.27051
1.93299	-16.58908	11.27051
1.93717	-16.58908	11.27051
1.94135	-16.56711	11.27051
1.94560	-16.54513	11.27051
1.94988	-16.52316	11.27051
1.95412	-16.47922	11.27051
1.95832	-16.47922	11.27051
1.96251	-16.45724	11.27051
1.96669	-16.45724	11.27051
1.97089	-16.41330	11.27051
1.97508	-16.41330	11.27051
1.97938	-16.39132	11.27051
1.98359	-16.34738	11.27051
1.98779	-16.34738	11.27051
1.99198	-16.32541	11.27051
1.99617	-16.30343	11.27051
2.00036	-16.28146	11.27051
2.00455	-16.25949	11.27051
2.00896	-16.23752	11.27051
2.01317	-16.23752	11.27051
2.01735	-16.21554	11.27051
2.02154	-16.19357	11.27051
2.02583	-16.17160	11.27051
2.03002	-16.14963	11.27051
2.03420	-16.12765	11.27051
2.03850	-16.12765	11.27051
2.04276	-16.10568	11.27051
2.04696	-16.08371	11.27051
2.05115	-16.06173	11.27051
2.05533	-16.03976	11.27051
2.05952	-16.03976	11.27051
2.06371	-16.03976	11.27051
2.06798	-15.99582	11.27051
2.07227	-15.99582	11.27051
2.07647	-15.97384	11.27051
2.08066	-15.95187	11.27051
2.08485	-15.92990	11.27051
2.08904	-15.90793	11.27051
2.09322	-15.90793	11.27051
2.09741	-15.88595	11.27051
2.10170	-15.86398	11.27051
2.10590	-15.84201	11.27051
2.11009	-15.82004	11.27051
2.11427	-15.82004	11.27051
2.11846	-15.82004	11.27051
2.12266	-15.79806	11.27051
2.12695	-15.77609	11.27051
2.13132	-15.75412	11.27051
2.13553	-15.73214	11.27051
2.13971	-15.71017	11.27051
2.14390	-15.68820	11.27051
2.14808	-15.68820	11.27051
2.15227	-15.66623	11.27051
2.15645	-15.66623	11.27051
2.16075	-15.64425	11.27051
2.16503	-15.62228	11.27051
2.16924	-15.60031	11.27051
2.17344	-15.57834	11.27051
2.17764	-15.57834	11.27051
2.18182	-15.55636	11.27051
2.18601	-15.55636	11.27051
2.19026	-15.53439	11.27051
2.19454	-15.51242	11.27051
2.19874	-15.51242	11.27051
2.20293	-15.49045	11.27051
2.20712	-15.46847	11.27051
2.21130	-15.46847	11.27051
2.21549	-15.44650	11.27051
2.21967	-15.42453	11.27051
2.22397	-15.40256	11.27051
2.22828	-15.40256	11.27051
2.23247	-15.40256	11.27051
2.23665	-15.38058	11.27051
2.24084	-15.35861	11.27051
2.24504	-15.33664	11.27051
2.24922	-15.33664	11.27051
2.25359	-15.33664	11.27051
2.25780	-15.31466	11.27051
2.26198	-15.31466	11.27051
2.26617	-15.27072	11.27051
2.27037	-15.27072	11.27051
2.27457	-15.27072	11.27051
2.27876	-15.24875	11.27051
2.28305	-15.22677	11.27051
2.28731	-15.20480	11.27051
2.29152	-15.20480	11.27051
2.29571	-15.18283	11.27051
2.29989	-15.18283	11.27051
2.30408	-15.18283	11.27051
2.30826	-15.16086	11.27051
2.31252	-15.16086	11.27051
2.31679	-15.13888	11.27051
2.32101	-15.13888	11.27051
2.32520	-15.11691	11.27051
2.32948	-15.11691	11.27051
2.33367	-15.09494	11.27051
2.33785	-15.09494	11.27051
2.34203	-15.07297	11.27051
2.34633	-15.07297	11.27051
2.35053	-15.05099	11.27051
2.35472	-15.02902	11.27051
2.35891	-15.02902	11.27051
2.36310	-15.02902	11.27051
2.36729	-15.02902	11.27051
2.37149	-15.00705	11.27051
2.37592	-14.98507	11.27051
2.38013	-14.98507	11.27051
2.38432	-14.96310	11.27051
2.38851	-14.96310	11.27051
2.39270	-14.96310	11.27051
2.39689	-14.94113	11.27051
2.40106	-14.94113	11.27051
2.40535	-14.94113	11.27051
2.40962	-14.94113	11.27051
2.41382	-14.91916	11.27051
2.41801	-14.91916	11.27051
2.42220	-14.89718	11.27051
2.42639	-14.89718	11.27051
2.43068	-14.89718	11.27051
2.43493	-14.87521	11.27051
2.43922	-14.87521	11.27051
2.44343	-14.87521	11.27051
2.44762	-14.87521	11.27051
2.45181	-14.85324	11.27051
2.45600	-14.85324	11.27051
2.46018	-14.85324	11.27051
2.46437	-14.85324	11.27051
2.46869	-14.83127	11.27051
2.47291	-14.83127	11.27051
2.47708	-14.83127	11.27051
2.48127	-14.80929	11.27051
2.48545	-14.80929	11.27051
2.48964	-14.80929	11.27051
2.49382	-14.80929	11.27051
2.49822	-14.80929	11.27051
2.50242	-14.78732	11.27051
2.50661	-14.78732	11.27051
2.51080	-14.78732	11.27051
2.51499	-14.78732	11.27051
2.51917	-14.78732	11.27051
2.52335	-14.78732	11.27051
2.52765	-14.76535	11.27051
2.53202	-14.76535	11.27051
2.53621	-14.76535	11.27051
2.54040	-14.76535	11.27051
2.54459	-14.76535	11.27051
2.54877	-14.76535	11.27051
2.55297	-14.74338	11.27051
2.55722	-14.76535	11.27051
2.56150	-14.74338	11.27051
2.56569	-14.74338	11.27051
2.56990	-14.74338	11.27051
2.57409	-14.74338	11.27051
2.57828	-14.74338	11.27051
2.58246	-14.74338	11.27051
2.58665	-14.72140	11.27051
2.59094	-14.72140	11.27051
2.59514	-14.72140	11.27051
2.59933	-14.72140	11.27051
2.60351	-14.72140	11.27051
2.60770	-14.72140	11.27051
2.61188	-14.72140	11.27051
2.61607	-14.72140	11.27051
2.62042	-14.72140	11.27051
2.62463	-14.69943	11.27051
2.62882	-14.72140	11.27051
2.63311	-14.69943	11.27051
2.63730	-14.72140	11.27051
2.64148	-14.69943	11.27051
2.64566	-14.69943	11.27051
2.64996	-14.69943	11.27051
2.65422	-14.72140	11.27051
2.65843	-14.69943	11.27051
2.66262	-14.72140	11.27051
2.66681	-14.69943	11.27051
2.67102	-14.69943	11.27051
2.67521	-14.72140	11.27051
2.67950	-14.69943	11.27051
2.68379	-14.69943	11.27051
2.68799	-14.72140	11.27051
2.69219	-14.69943	11.27051
2.69637	-14.72140	11.27051
2.70056	-14.72140	11.27051
2.70475	-14.72140	11.27051
2.70895	-14.69943	11.27051
2.71326	-14.72140	11.27051
2.71746	-14.72140	11.27051
2.72165	-14.72140	11.27051
2.72584	-14.72140	11.27051
2.73003	-14.72140	11.27051
2.73432	-14.72140	11.27051
2.73850	-14.72140	11.27051
2.74287	-14.72140	11.27051
2.74708	-14.74338	11.27051
2.75127	-14.72140	11.27051
2.75545	-14.72140	11.27051
2.75964	-14.74338	11.27051
2.76382	-14.74338	11.27051
2.76801	-14.74338	11.27051
2.77234	-14.74338	11.27051
2.77661	-14.74338	11.27051
2.78081	-14.74338	11.27051
2.78501	-14.76535	11.27051
2.78919	-14.76535	11.27051
2.79338	-14.76535	11.27051
2.79756	-14.76535	11.27051
2.80182	-14.76535	11.27051
2.80609	-14.78732	11.27051
2.81029	-14.78732	11.27051
2.81448	-14.78732	11.27051
2.81866	-14.78732	11.27051
2.82285	-14.78732	11.27051
2.82703	-14.80929	11.27051
2.83122	-14.80929	11.27051
2.83562	-14.80929	11.27051
2.83984	-14.83127	11.27051
2.84403	-14.83127	11.27051
2.84822	-14.83127	11.27051
2.85241	-14.83127	11.27051
2.85660	-14.85324	11.27051
2.86078	-14.85324	11.27051
2.86518	-14.83127	11.27051
2.86941	-14.87521	11.27051
2.87360	-14.85324	11.27051
2.87779	-14.87521	11.27051
2.88198	-14.87521	11.27051
2.88616	-14.87521	11.27051
2.89035	-14.87521	11.27051
2.89464	-14.89718	11.27051
2.89890	-14.89718	11.27051
2.90309	-14.89718	11.27051
2.90728	-14.91916	11.27051
2.91146	-14.91916	11.27051
2.91565	-14.91916	11.27051
2.91983	-14.91916	11.27051
2.92408	-14.91916	11.27051
2.92835	-14.94113	11.27051
2.93255	-14.94113	11.27051
2.93685	-14.96310	11.27051
2.94104	-14.96310	11.27051
2.94522	-14.96310	11.27051
2.94941	-14.96310	11.27051
2.95359	-14.98507	11.27051
2.95788	-14.98507	11.27051
2.96208	-15.00705	11.27051
2.96627	-15.00705	11.27051
2.97048	-15.00705	11.27051
2.97468	-15.00705	11.27051
2.97887	-15.00705	11.27051
2.98306	-15.02902	11.27051
2.98746	-15.02902	11.27051
2.99168	-15.02902	11.27051
2.99587	-15.02902	11.27051
3.00006	-15.05099	11.27051
3.00424	-15.05099	11.27051
3.00843	-15.07297	11.27051
3.01262	-15.07297	11.27051
3.01692	-15.07297	11.27051
3.02115	-15.09494	11.27051
3.02534	-15.09494	11.27051
3.02953	-15.09494	11.27051
3.03372	-15.11691	11.27051
3.03801	-15.11691	11.27051
3.04219	-15.11691	11.27051
3.04644	-15.13888	11.27051
3.05072	-15.13888	11.27051
3.05492	-15.16086	11.27051
3.05911	-15.16086	11.27051
3.06330	-15.16086	11.27051
3.06750	-15.18283	11.27051
3.07170	-15.18283	11.27051
3.07590	-15.18283	11.27051
3.08025	-15.20480	11.27051
3.08451	-15.20480	11.27051
3.08873	-15.22677	11.27051
3.09295	-15.22677	11.27051
3.09716	-15.22677	11.27051
3.10137	-15.22677	11.27051
3.10557	-15.24875	11.27051
3.11013	-15.27072	11.27051
3.11436	-15.27072	11.27051
3.11855	-15.27072	11.27051
3.12275	-15.29269	11.27051
3.12694	-15.29269	11.27051
3.13113	-15.31466	11.27051
3.13532	-15.31466	11.27051
3.13974	-15.31466	11.27051
3.14400	-15.33664	11.27051
3.14819	-15.33664	11.27051
3.15238	-15.33664	11.27051
3.15658	-15.35861	11.27051
3.16077	-15.35861	11.27051
3.16496	-15.38058	11.27051
3.16927	-15.38058	11.27051
3.17356	-15.40256	11.27051
3.17776	-15.40256	11.27051
3.18195	-15.40256	11.27051
3.18614	-15.40256	11.27051
3.19032	-15.42453	11.27051
3.19451	-15.42453	11.27051
3.19870	-15.44650	11.27051
3.20300	-15.46847	11.27051
3.20722	-15.46847	11.27051
3.21141	-15.46847	11.27051
3.21560	-15.46847	11.27051
3.21979	-15.49045	11.27051
3.22397	-15.49045	11.27051
3.22816	-15.49045	11.27051
3.23254	-15.49045	11.27051
3.23675	-15.51242	11.27051
3.24106	-15.51242	11.27051
3.24525	-15.51242	11.27051
3.24943	-15.53439	11.27051
3.25362	-15.53439	11.27051
3.25780	-15.53439	11.27051
3.26209	-15.55636	11.27051
3.26635	-15.55636	11.27051
3.27057	-15.57834	11.27051
3.27477	-15.57834	11.27051
3.27896	-15.57834	11.27051
3.28314	-15.57834	11.27051
3.28733	-15.60031	11.27051
3.29159	-15.60031	11.27051
3.29587	-15.60031	11.27051
3.30007	-15.60031	11.27051
3.30425	-15.62228	11.27051
3.30844	-15.62228	11.27051
3.31262	-15.62228	11.27051
3.31681	-15.64425	11.27051
3.32101	-15.64425	11.27051
3.32532	-15.64425	11.27051
3.32952	-15.66623	11.27051
3.33371	-15.66623	11.27051
3.33790	-15.66623	11.27051
3.34219	-15.66623	11.27051
3.34637	-15.68820	11.27051
3.35056	-15.68820	11.27051
3.35499	-15.68820	11.27051
3.35922	-15.68820	11.27051
3.36342	-15.71017	11.27051
3.36760	-15.71017	11.27051
3.37182	-15.71017	11.27051
3.37602	-15.71017	11.27051
3.38021	-15.73214	11.27051
3.38451	-15.73214	11.27051
3.38878	-15.73214	11.27051
3.39298	-15.73214	11.27051
3.39717	-15.73214	11.27051
3.40136	-15.75412	11.27051
3.40554	-15.75412	11.27051
3.40973	-15.75412	11.27051
3.41403	-15.75412	11.27051
3.41832	-15.75412	11.27051
3.42253	-15.75412	11.27051
3.42672	-15.77609	11.27051
3.43091	-15.77609	11.27051
3.43509	-15.77609	11.27051
3.43928	-15.77609	11.27051
3.44358	-15.77609	11.27051
3.44787	-15.77609	11.27051
3.45208	-15.79806	11.27051
3.45627	-15.79806	11.27051
3.46046	-15.79806	11.27051
3.46465	-15.79806	11.27051
3.46884	-15.79806	11.27051
3.47305	-15.79806	11.27051
3.47746	-15.82004	11.27051
3.48168	-15.82004	11.27051
3.48588	-15.82004	11.27051
3.49007	-15.82004	11.27051
3.49426	-15.82004	11.27051
3.49844	-15.82004	11.27051
3.50263	-15.82004	11.27051
3.50693	-15.84201	11.27051
3.51120	-15.84201	11.27051
3.51539	-15.82004	11.27051
3.51957	-15.84201	11.27051
3.52376	-15.84201	11.27051
3.52794	-15.84201	11.27051
3.53213	-15.84201	11.27051
3.53638	-15.84201	11.27051
3.54066	-15.84201	11.27051
3.54498	-15.86398	11.27051
3.54917	-15.86398	11.27051
3.55336	-15.84201	11.27051
3.55754	-15.84201	11.27051
3.56173	-15.84201	11.27051
3.56591	-15.86398	11.27051
3.57022	-15.86398	11.27051
3.57444	-15.86398	11.27051
3.57864	-15.86398	11.27051
3.58283	-15.86398	11.27051
3.58702	-15.86398	11.27051
3.59121	-15.86398	11.27051
3.59539	-15.86398	11.27051
3.59977	-15.86398	11.27051
3.60398	-15.86398	11.27051
3.60817	-15.86398	11.27051
3.61236	-15.86398	11.27051
3.61654	-15.86398	11.27051
3.62073	-15.86398	11.27051
3.62491	-15.86398	11.27051
3.62920	-15.86398	11.27051
3.63346	-15.86398	11.27051
3.63766	-15.86398	11.27051
3.64185	-15.86398	11.27051
3.64614	-15.86398	11.27051
3.65033	-15.86398	11.27051
3.65451	-15.86398	11.27051
3.65876	-15.86398	11.27051
3.66304	-15.86398	11.27051
3.66723	-15.86398	11.27051
3.67144	-15.86398	11.27051
3.67563	-15.86398	11.27051
3.67983	-15.86398	11.27051
3.68402	-15.86398	11.27051
3.68821	-15.86398	11.27051
3.69251	-15.86398	11.27051
3.69672	-15.86398	11.27051
3.70091	-15.86398	11.27051
3.70507	-15.84201	11.27051
3.70925	-15.84201	11.27051
3.71344	-15.86398	11.27051
3.71762	-15.84201	11.27051
3.72199	-15.86398	11.27051
3.72621	-15.84201	11.27051
3.73040	-15.84201	11.27051
3.73458	-15.84201	11.27051
3.73877	-15.84201	11.27051
3.74296	-15.82004	11.27051
3.74725	-15.84201	11.27051
3.75154	-15.82004	11.27051
3.75581	-15.82004	11.27051
3.76000	-15.82004	11.27051
3.76419	-15.82004	11.27051
3.76838	-15.82004	11.27051
3.77258	-15.82004	11.27051
3.77677	-15.82004	11.27051
3.78103	-15.79806	11.27051
3.78532	-15.79806	11.27051
3.78952	-15.79806	11.27051
3.79371	-15.79806	11.27051
3.79789	-15.79806	11.27051
3.80208	-15.79806	11.27051
3.80626	-15.79806	11.27051
3.81045	-15.79806	11.27051
3.81474	-15.77609	11.27051
3.81895	-15.77609	11.27051
3.82314	-15.77609	11.27051
3.82732	-15.77609	11.27051
3.83151	-15.77609	11.27051
3.83569	-15.75412	11.27051
3.83987	-15.75412	11.27051
3.84424	-15.75412	11.27051
3.84855	-15.75412	11.27051
3.85273	-15.73214	11.27051
3.85692	-15.73214	11.27051
3.86107	-15.73214	11.27051
3.86525	-15.73214	11.27051
3.86943	-15.73214	11.27051
3.87375	-15.71017	11.27051
3.87802	-15.71017	11.27051
3.88222	-15.71017	11.27051
3.88640	-15.71017	11.27051
3.89059	-15.71017	11.27051
3.89478	-15.68820	11.27051
3.89896	-15.68820	11.27051
3.90321	-15.68820	11.27051
3.90748	-15.68820	11.27051
3.91168	-15.66623	11.27051
3.91587	-15.66623	11.27051
3.92005	-15.66623	11.27051
3.92424	-15.64425	11.27051
3.92843	-15.66623	11.27051
3.93261	-15.64425	11.27051
3.93691	-15.64425	11.27051
3.94109	-15.64425	11.27051
3.94527	-15.64425	11.27051
3.94956	-15.64425	11.27051
3.95375	-15.62228	11.27051
3.95793	-15.62228	11.27051
3.96212	-15.62228	11.27051
3.96650	-15.60031	11.27051
3.97073	-15.60031	11.27051
3.97493	-15.60031	11.27051
3.97912	-15.60031	11.27051
3.98331	-15.60031	11.27051
3.98751	-15.57834	11.27051
3.99170	-15.57834	11.27051
3.99599	-15.57834	11.27051
4.00025	-15.55636	11.27051
4.00445	-15.55636	11.27051
4.00864	-15.55636	11.27051
4.01283	-15.55636	11.27051
4.01702	-15.55636	11.27051
4.02120	-15.55636	11.27051
4.02546	-15.55636	11.27051
4.02973	-15.53439	11.27051
4.03393	-15.53439	11.27051
4.03812	-15.53439	11.27051
4.04230	-15.51242	11.27051
4.04649	-15.51242	11.27051
4.05078	-15.51242	11.27051
4.05496	-15.51242	11.27051
4.05926	-15.51242	11.27051
4.06346	-15.51242	11.27051
4.06765	-15.51242	11.27051
4.07186	-15.51242	11.27051
4.07605	-15.49045	11.27051
4.08025	-15.49045	11.27051
4.08443	-15.46847	11.27051
4.08881	-15.49045	11.27051
4.09304	-15.46847	11.27051
4.09723	-15.46847	11.27051
4.10141	-15.46847	11.27051
4.10561	-15.46847	11.27051
4.10980	-15.44650	11.27051
4.11398	-15.44650	11.27051
4.11828	-15.44650	11.27051
4.12254	-15.44650	11.27051
4.12673	-15.44650	11.27051
4.13092	-15.44650	11.27051
4.13511	-15.42453	11.27051
4.13929	-15.44650	11.27051
4.14348	-15.42453	11.27051
4.14773	-15.42453	11.27051
4.15211	-15.42453	11.27051
4.15631	-15.42453	11.27051
4.16049	-15.42453	11.27051
4.16468	-15.42453	11.27051
4.16886	-15.40256	11.27051
4.17307	-15.40256	11.27051
4.17727	-15.40256	11.27051
4.18158	-15.40256	11.27051
4.18579	-15.40256	11.27051
4.18998	-15.40256	11.27051
4.19417	-15.38058	11.27051
4.19835	-15.38058	11.27051
4.20254	-15.38058	11.27051
4.20672	-15.38058	11.27051
4.21111	-15.38058	11.27051
4.21532	-15.35861	11.27051
4.21951	-15.38058	11.27051
4.22369	-15.35861	11.27051
4.22788	-15.38058	11.27051
4.23206	-15.35861	11.27051
4.23625	-15.35861	11.27051
4.24055	-15.35861	11.27051
4.24480	-15.35861	11.27051
4.24901	-15.35861	11.27051
4.25330	-15.33664	11.27051
4.25748	-15.33664	11.27051
4.26167	-15.33664	11.27051
4.26585	-15.33664	11.27051
4.27011	-15.33664	11.27051
4.27440	-15.31466	11.27051
4.27860	-15.33664	11.27051
4.28279	-15.33664	11.27051
4.28699	-15.33664	11.27051
4.29118	-15.31466	11.27051
4.29537	-15.31466	11.27051
4.29955	-15.31466	11.27051
4.30384	-15.31466	11.27051
4.30805	-15.31466	11.27051
4.31223	-15.31466	11.27051
4.31642	-15.31466	11.27051
4.32060	-15.31466	11.27051
4.32479	-15.31466	11.27051
4.32898	-15.29269	11.27051
4.33336	-15.29269	11.27051
4.33759	-15.29269	11.27051
4.34178	-15.29269	11.27051
4.34596	-15.29269	11.27051
4.35015	-15.29269	11.27051
4.35444	-15.29269	11.27051
4.35863	-15.29269	11.27051
4.36292	-15.29269	11.27051
4.36719	-15.29269	11.27051
4.37141	-15.29269	11.27051
4.37561	-15.29269	11.27051
4.37981	-15.27072	11.27051
4.38400	-15.29269	11.27051
4.38818	-15.29269	11.27051
4.39245	-15.29269	11.27051
4.39673	-15.27072	11.27051
4.40094	-15.27072	11.27051
4.40513	-15.27072	11.27051
4.40932	-15.27072	11.27051
4.41351	-15.27072	11.27051
4.41771	-15.27072	11.27051
4.42191	-15.27072	11.27051
4.42621	-15.27072	11.27051
4.43049	-15.27072	11.27051
4.43471	-15.27072	11.27051
4.43893	-15.27072	11.27051
4.44314	-15.27072	11.27051
4.44734	-15.27072	11.27051
4.45155	-15.27072	11.27051
4.45617	-15.27072	11.27051
4.46038	-15.27072	11.27051
4.46458	-15.27072	11.27051
4.46877	-15.27072	11.27051
4.47299	-15.27072	11.27051
4.47718	-15.27072	11.27051
4.48137	-15.29269	11.27051
4.48565	-15.27072	11.27051
4.48991	-15.29269	11.27051
4.49412	-15.29269	11.27051
4.49831	-15.27072	11.27051
4.50249	-15.27072	11.27051
4.50668	-15.27072	11.27051
4.51086	-15.29269	11.27051
4.51512	-15.27072	11.27051
4.51940	-15.29269	11.27051
4.52360	-15.29269	11.27051
4.52779	-15.29269	11.27051
4.53197	-15.29269	11.27051
4.53616	-15.29269	11.27051
4.54034	-15.29269	11.27051
4.54452	-15.29269	11.27051
4.54881	-15.29269	11.27051
4.55303	-15.29269	11.27051
4.55733	-15.29269	11.27051
4.56151	-15.29269	11.27051
4.56569	-15.31466	11.27051
4.56988	-15.31466	11.27051
4.57408	-15.31466	11.27051
4.57848	-15.31466	11.27051
4.58269	-15.31466	11.27051
4.58688	-15.31466	11.27051
4.59107	-15.31466	11.27051
4.59526	-15.31466	11.27051
4.59945	-15.33664	11.27051
4.60363	-15.33664	11.27051
4.60793	-15.33664	11.27051
4.61220	-15.33664	11.27051
4.61639	-15.33664	11.27051
4.62058	-15.35861	11.27051
4.62477	-15.35861	11.27051
4.62896	-15.35861	11.27051
4.63315	-15.33664	11.27051
4.63740	-15.35861	11.27051
4.64168	-15.35861	11.27051
4.64588	-15.35861	11.27051
4.65007	-15.35861	11.27051
4.65425	-15.38058	11.27051
4.65855	-15.38058	11.27051
4.66273	-15.38058	11.27051
4.66691	-15.38058	11.27051
4.67126	-15.40256	11.27051
4.67547	-15.40256	11.27051
4.67966	-15.40256	11.27051
4.68385	-15.40256	11.27051
4.68803	-15.40256	11.27051
4.69223	-15.40256	11.27051
4.69642	-15.42453	11.27051
4.70079	-15.40256	11.27051
4.70502	-15.42453	11.27051
4.70922	-15.42453	11.27051
4.71340	-15.42453	11.27051
4.71759	-15.42453	11.27051
4.72177	-15.44650	11.27051
4.72596	-15.44650	11.27051
4.73025	-15.44650	11.27051
4.73451	-15.44650	11.27051
4.73871	-15.46847	11.27051
4.74290	-15.46847	11.27051
4.74708	-15.46847	11.27051
4.75126	-15.46847	11.27051
4.75545	-15.49045	11.27051
4.75981	-15.49045	11.27051
4.76408	-15.49045	11.27051
4.76828	-15.49045	11.27051
4.77248	-15.49045	11.27051
4.77667	-15.49045	11.27051
4.78086	-15.51242	11.27051
4.78505	-15.51242	11.27051
4.78924	-15.53439	11.27051
4.79354	-15.53439	11.27051
4.79774	-15.53439	11.27051
4.80193	-15.53439	11.27051
4.80611	-15.53439	11.27051
4.81030	-15.55636	11.27051
4.81448	-15.55636	11.27051
4.81867	-15.55636	11.27051
4.82307	-15.55636	11.27051
4.82728	-15.57834	11.27051
4.83146	-15.57834	11.27051
4.83565	-15.57834	11.27051
4.83983	-15.57834	11.27051
4.84402	-15.57834	11.27051
4.84820	-15.60031	11.27051
4.85251	-15.60031	11.27051
4.85676	-15.60031	11.27051
4.86106	-15.62228	11.27051
4.86525	-15.62228	11.27051
4.86943	-15.62228	11.27051
4.87364	-15.62228	11.27051
4.87783	-15.62228	11.27051
4.88208	-15.62228	11.27051
4.88636	-15.62228	11.27051
4.89056	-15.62228	11.27051
4.89475	-15.62228	11.27051
4.89895	-15.64425	11.27051
4.90313	-15.64425	11.27051
4.90732	-15.66623	11.27051
4.91150	-15.66623	11.27051
4.91579	-15.66623	11.27051
4.92000	-15.66623	11.27051
4.92419	-15.66623	11.27051
4.92838	-15.66623	11.27051
4.93256	-15.68820	11.27051
4.93674	-15.66623	11.27051
4.94094	-15.68820	11.27051
4.94526	-15.68820	11.27051
4.94946	-15.68820	11.27051
4.95365	-15.68820	11.27051
4.95784	-15.71017	11.27051
4.96213	-15.71017	11.27051
4.96631	-15.71017	11.27051
4.97050	-15.71017	11.27051
4.97483	-15.71017	11.27051
4.97909	-15.71017	11.27051
4.98329	-15.73214	11.27051
4.98748	-15.73214	11.27051
4.99167	-15.73214	11.27051
4.99585	-15.73214	11.27051
5.00004	-15.73214	11.27051
5.00430	-15.73214	11.27051
5.00857	-15.75412	11.27051
5.01277	-15.75412	11.27051
5.01697	-15.75412	11.27051
5.02116	-15.75412	11.27051
5.02535	-15.75412	11.27051
5.02953	-15.75412	11.27051
5.03372	-15.75412	11.27051
5.03802	-15.75412	11.27051
5.04222	-15.77609	11.27051
5.04641	-15.77609	11.27051
5.05059	-15.77609	11.27051
5.05478	-15.77609	11.27051
5.05896	-15.77609	11.27051
5.06325	-15.79806	11.27051
5.06762	-15.77609	11.27051
5.07186	-15.77609	11.27051
5.07606	-15.77609	11.27051
5.08025	-15.77609	11.27051
5.08444	-15.77609	11.27051
5.08863	-15.77609	11.27051
5.09281	-15.79806	11.27051
5.09711	-15.79806	11.27051
5.10138	-15.79806	11.27051
5.10558	-15.79806	11.27051
5.10977	-15.79806	11.27051
5.11395	-15.79806	11.27051
5.11814	-15.79806	11.27051
5.12232	-15.82004	11.27051
5.12657	-15.79806	11.27051
5.13085	-15.82004	11.27051
5.13505	-15.82004	11.27051
5.13924	-15.82004	11.27051
5.14342	-15.82004	11.27051
5.14760	-15.82004	11.27051
5.15179	-15.82004	11.27051
5.15597	-15.82004	11.27051
5.16027	-15.82004	11.27051
5.16457	-15.82004	11.27051
5.16876	-15.82004	11.27051
5.17297	-15.82004	11.27051
5.17716	-15.82004	11.27051
5.18135	-15.82004	11.27051
5.18554	-15.82004	11.27051
5.18990	-15.82004	11.27051
5.19411	-15.82004	11.27051
5.19830	-15.82004	11.27051
5.20249	-15.82004	11.27051
5.20668	-15.82004	11.27051
5.21086	-15.82004	11.27051
5.21505	-15.82004	11.27051
5.21933	-15.84201	11.27051
5.22359	-15.82004	11.27051
5.22778	-15.84201	11.27051
5.23196	-15.82004	11.27051
5.23615	-15.82004	11.27051
5.24033	-15.82004	11.27051
5.24452	-15.84201	11.27051
5.24877	-15.84201	11.27051
5.25307	-15.84201	11.27051
5.25727	-15.82004	11.27051
5.26146	-15.84201	11.27051
5.26575	-15.84201	11.27051
5.26993	-15.84201	11.27051
5.27413	-15.84201	11.27051
5.27833	-15.84201	11.27051
5.28263	-15.84201	11.27051
5.28684	-15.82004	11.27051
5.29103	-15.84201	11.27051
5.29522	-15.84201	11.27051
5.29940	-15.84201	11.27051
5.30359	-15.84201	11.27051
5.30777	-15.84201	11.27051
5.31213	-15.84201	11.27051
5.31633	-15.84201	11.27051
5.32052	-15.84201	11.27051
5.32471	-15.84201	11.27051
5.32889	-15.82004	11.27051
5.33306	-15.84201	11.27051
5.33726	-15.84201	11.27051
5.34155	-15.84201	11.27051
5.34582	-15.84201	11.27051
5.35002	-15.84201	11.27051
5.35421	-15.84201	11.27051
5.35840	-15.84201	11.27051
5.36260	-15.84201	11.27051
5.36689	-15.84201	11.27051
5.37116	-15.84201	11.27051
5.37546	-15.84201	11.27051
5.37967	-15.82004	11.27051
5.38386	-15.84201	11.27051
5.38805	-15.84201	11.27051
5.39224	-15.84201	11.27051
5.39643	-15.84201	11.27051
5.40061	-15.84201	11.27051
5.40491	-15.84201	11.27051
5.40908	-15.84201	11.27051
5.41327	-15.82004	11.27051
5.41748	-15.84201	11.27051
5.42167	-15.84201	11.27051
5.42586	-15.82004	11.27051
5.43005	-15.84201	11.27051
5.43448	-15.84201	11.27051
5.43869	-15.82004	11.27051
5.44288	-15.82004	11.27051
5.44708	-15.82004	11.27051
5.45127	-15.82004	11.27051
5.45545	-15.82004	11.27051
5.45964	-15.82004	11.27051
5.46392	-15.82004	11.27051
5.46831	-15.82004	11.27051
5.47252	-15.82004	11.27051
5.47671	-15.82004	11.27051
5.48090	-15.82004	11.27051
5.48507	-15.82004	11.27051
5.48925	-15.82004	11.27051
5.49352	-15.82004	11.27051
5.49780	-15.82004	11.27051
5.50200	-15.82004	11.27051
5.50619	-15.82004	11.27051
5.51037	-15.82004	11.27051
5.51456	-15.82004	11.27051
5.51874	-15.82004	11.27051
5.52293	-15.82004	11.27051
5.52722	-15.79806	11.27051
5.53142	-15.79806	11.27051
5.53561	-15.79806	11.27051
5.53980	-15.82004	11.27051
5.54398	-15.79806	11.27051
5.54817	-15.79806	11.27051
5.55235	-15.79806	11.27051
5.55672	-15.79806	11.27051
5.56094	-15.79806	11.27051
5.56512	-15.79806	11.27051
5.56942	-15.79806	11.27051
5.57363	-15.79806	11.27051
5.57782	-15.79806	11.27051
5.58201	-15.79806	11.27051
5.58630	-15.79806	11.27051
5.59056	-15.79806	11.27051
5.59475	-15.79806	11.27051
5.59894	-15.79806	11.27051
5.60313	-15.77609	11.27051
5.60731	-15.77609	11.27051
5.61150	-15.79806	11.27051
5.61575	-15.79806	11.27051
5.62002	-15.79806	11.27051
5.62422	-15.77609	11.27051
5.62840	-15.79806	11.27051
5.63259	-15.79806	11.27051
5.63678	-15.77609	11.27051
5.64097	-15.79806	11.27051
5.64516	-15.79806	11.27051
5.64945	-15.77609	11.27051
5.65365	-15.79806	11.27051
5.65784	-15.79806	11.27051
5.66202	-15.77609	11.27051
5.66621	-15.77609	11.27051
5.67050	-15.79806	11.27051
5.67471	-15.77609	11.27051
5.67911	-15.79806	11.27051
5.68332	-15.77609	11.27051
5.68751	-15.77609	11.27051
5.69170	-15.77609	11.27051
5.69589	-15.77609	11.27051
5.70007	-15.77609	11.27051
5.70426	-15.79806	11.27051
5.70857	-15.77609	11.27051
5.71283	-15.77609	11.27051
5.71703	-15.77609	11.27051
5.72122	-15.77609	11.27051
5.72540	-15.77609	11.27051
5.72959	-15.79806	11.27051
5.73377	-15.79806	11.27051
5.73802	-15.79806	11.27051
5.74230	-15.77609	11.27051
5.74649	-15.77609	11.27051
5.75074	-15.77609	11.27051
5.75493	-15.79806	11.27051
5.75913	-15.77609	11.27051
5.76332	-15.77609	11.27051
5.76750	-15.77609	11.27051
5.77190	-15.77609	11.27051
5.77612	-15.77609	11.27051
5.78032	-15.77609	11.27051
5.78450	-15.77609	11.27051
5.78869	-15.77609	11.27051
5.79288	-15.77609	11.27051
5.79706	-15.77609	11.27051
5.80144	-15.79806	11.27051
5.80566	-15.77609	11.27051
5.80985	-15.77609	11.27051
5.81404	-15.77609	11.27051
5.81823	-15.77609	11.27051
5.82242	-15.77609	11.27051
5.82661	-15.77609	11.27051
5.83090	-15.79806	11.27051
5.83517	-15.79806	11.27051
5.83937	-15.77609	11.27051
5.84356	-15.77609	11.27051
5.84774	-15.79806	11.27051
5.85193	-15.79806	11.27051
5.85611	-15.79806	11.27051
5.86037	-15.79806	11.27051
5.86465	-15.79806	11.27051
5.86885	-15.79806	11.27051
5.87319	-15.79806	11.27051
5.87738	-15.79806	11.27051
5.88156	-15.79806	11.27051
5.88575	-15.79806	11.27051
5.88993	-15.79806	11.27051
5.89423	-15.79806	11.27051
5.89842	-15.79806	11.27051
5.90261	-15.79806	11.27051
5.90681	-15.82004	11.27051
5.91099	-15.79806	11.27051
5.91517	-15.82004	11.27051
5.91936	-15.82004	11.27051
5.92370	-15.82004	11.27051
5.92791	-15.82004	11.27051
5.93209	-15.82004	11.27051
5.93628	-15.82004	11.27051
5.94047	-15.82004	11.27051
5.94465	-15.82004	11.27051
5.94884	-15.82004	11.27051
5.95315	-15.82004	11.27051
5.95740	-15.84201	11.27051
5.96159	-15.84201	11.27051
5.96578	-15.84201	11.27051
5.96997	-15.84201	11.27051
5.97428	-15.84201	11.27051
5.97846	-15.84201	11.27051
5.98272	-15.84201	11.27051
5.98700	-15.86398	11.27051
5.99120	-15.86398	11.27051
5.99538	-15.86398	11.27051
5.99957	-15.86398	11.27051
6.00375	-15.86398	11.27051
6.00794	-15.86398	11.27051
6.01213	-15.88595	11.27051
6.01642	-15.88595	11.27051
6.02062	-15.88595	11.27051
6.02481	-15.88595	11.27051
6.02901	-15.90793	11.27051
6.03320	-15.90793	11.27051
6.03738	-15.90793	11.27051
6.04156	-15.90793	11.27051
6.04592	-15.90793	11.27051
6.05013	-15.90793	11.27051
6.05432	-15.90793	11.27051
6.05850	-15.90793	11.27051
6.06269	-15.90793	11.27051
6.06687	-15.92990	11.27051
6.07106	-15.92990	11.27051
6.07557	-15.92990	11.27051
6.07982	-15.92990	11.27051
6.08401	-15.92990	11.27051
6.08820	-15.92990	11.27051
6.09238	-15.95187	11.27051
6.09657	-15.95187	11.27051
6.10075	-15.95187	11.27051
6.10502	-15.97384	11.27051
6.10929	-15.97384	11.27051
6.11349	-15.95187	11.27051
6.11767	-15.95187	11.27051
6.12186	-15.97384	11.27051
6.12605	-15.97384	11.27051
6.13023	-15.97384	11.27051
6.13441	-15.97384	11.27051
6.13871	-15.97384	11.27051
6.14291	-15.97384	11.27051
6.14710	-15.99582	11.27051
6.15128	-15.99582	11.27051
6.15547	-15.99582	11.27051
6.15965	-15.99582	11.27051
6.16384	-16.01779	11.27051
6.16819	-16.01779	11.27051
6.17240	-16.01779	11.27051
6.17671	-16.01779	11.27051
6.18089	-16.01779	11.27051
6.18506	-16.01779	11.27051
6.18925	-16.01779	11.27051
6.19343	-16.03976	11.27051
6.19772	-16.03976	11.27051
6.20199	-16.03976	11.27051
6.20619	-16.03976	11.27051
6.21038	-16.03976	11.27051
6.21457	-16.03976	11.27051
6.21875	-16.03976	11.27051
6.22294	-16.06173	11.27051
6.22719	-16.06173	11.27051
6.23147	-16.06173	11.27051
6.23567	-16.08371	11.27051
6.23986	-16.08371	11.27051
6.24404	-16.06173	11.27051
6.24823	-16.08371	11.27051
6.25241	-16.08371	11.27051
6.25659	-16.10568	11.27051
6.26089	-16.10568	11.27051
6.26508	-16.10568	11.27051
6.26927	-16.10568	11.27051
6.27348	-16.10568	11.27051
6.27779	-16.10568	11.27051
6.28198	-16.12765	11.27051
6.28617	-16.12765	11.27051
6.29054	-16.12765	11.27051
6.29475	-16.12765	11.27051
6.29894	-16.12765	11.27051
6.30312	-16.12765	11.27051
6.30731	-16.14963	11.27051
6.31150	-16.12765	11.27051
6.31569	-16.14963	11.27051
6.31998	-16.14963	11.27051
6.32425	-16.14963	11.27051
6.32844	-16.14963	11.27051
6.33263	-16.14963	11.27051
6.33681	-16.14963	11.27051
6.34101	-16.17160	11.27051
6.34519	-16.17160	11.27051
6.34944	-16.14963	11.27051
6.35372	-16.17160	11.27051
6.35793	-16.17160	11.27051
6.36212	-16.17160	11.27051
6.36631	-16.17160	11.27051
6.37049	-16.17160	11.27051
6.37470	-16.17160	11.27051
6.37900	-16.19357	11.27051
6.38330	-16.19357	11.27051
6.38752	-16.19357	11.27051
6.39171	-16.19357	11.27051
6.39590	-16.19357	11.27051
6.40009	-16.19357	11.27051
6.40427	-16.19357	11.27051
6.40847	-16.19357	11.27051
6.41286	-16.21554	11.27051
6.41709	-16.21554	11.27051
6.42129	-16.21554	11.27051
6.42548	-16.21554	11.27051
6.42967	-16.21554	11.27051
6.43385	-16.21554	11.27051
6.43804	-16.21554	11.27051
6.44231	-16.21554	11.27051
6.44660	-16.21554	11.27051
6.45079	-16.21554	11.27051
6.45498	-16.23752	11.27051
6.45917	-16.21554	11.27051
6.46336	-16.23752	11.27051
6.46754	-16.23752	11.27051
6.47181	-16.23752	11.27051
6.47611	-16.23752	11.27051
6.48042	-16.23752	11.27051
6.48461	-16.23752	11.27051
6.48880	-16.23752	11.27051
6.49299	-16.23752	11.27051
6.49718	-16.23752	11.27051
6.50136	-16.23752	11.27051
6.50566	-16.23752	11.27051
6.50986	-16.23752	11.27051
6.51404	-16.23752	11.27051
6.51823	-16.23752	11.27051
6.52241	-16.25949	11.27051
6.52659	-16.23752	11.27051
6.53078	-16.25949	11.27051
6.53519	-16.25949	11.27051
6.53941	-16.25949	11.27051
6.54360	-16.25949	11.27051
6.54778	-16.25949	11.27051
6.55196	-16.25949	11.27051
6.55615	-16.25949	11.27051
6.56033	-16.25949	11.27051
6.56459	-16.25949	11.27051
6.56884	-16.25949	11.27051
6.57305	-16.25949	11.27051
6.57725	-16.25949	11.27051
6.58155	-16.28146	11.27051
6.58573	-16.28146	11.27051
6.58993	-16.28146	11.27051
6.59419	-16.25949	11.27051
6.59847	-16.25949	11.27051
6.60267	-16.28146	11.27051
6.60686	-16.28146	11.27051
6.61105	-16.28146	11.27051
6.61524	-16.28146	11.27051
6.61942	-16.28146	11.27051
6.62361	-16.28146	11.27051
6.62790	-16.28146	11.27051
6.63212	-16.28146	11.27051
6.63631	-16.28146	11.27051
6.64049	-16.28146	11.27051
6.64468	-16.28146	11.27051
6.64886	-16.30343	11.27051
6.65306	-16.30343	11.27051
6.65745	-16.28146	11.27051
6.66166	-16.28146	11.27051
6.66586	-16.30343	11.27051
6.67005	-16.30343	11.27051
6.67426	-16.30343	11.27051
6.67845	-16.30343	11.27051
6.68275	-16.30343	11.27051
6.68703	-16.30343	11.27051
6.69130	-16.30343	11.27051
6.69549	-16.30343	11.27051
6.69968	-16.30343	11.27051
6.70387	-16.32541	11.27051
6.70806	-16.30343	11.27051
6.71224	-16.32541	11.27051
6.71650	-16.32541	11.27051
6.72077	-16.32541	11.27051
6.72498	-16.32541	11.27051
6.72917	-16.32541	11.27051
6.73335	-16.32541	11.27051
6.73754	-16.32541	11.27051
6.74172	-16.32541	11.27051
6.74591	-16.32541	11.27051
6.75020	-16.32541	11.27051
6.75440	-16.32541	11.27051
6.75859	-16.34738	11.27051
6.76277	-16.34738	11.27051
6.76696	-16.34738	11.27051
6.77115	-16.34738	11.27051
6.77535	-16.34738	11.27051
6.77973	-16.34738	11.27051
6.78405	-16.34738	11.27051
6.78824	-16.34738	11.27051
6.79242	-16.34738	11.27051
6.79661	-16.34738	11.27051
6.80079	-16.36935	11.27051
6.80499	-16.34738	11.27051
6.80928	-16.36935	11.27051
6.81355	-16.36935	11.27051
6.81774	-16.36935	11.27051
6.82193	-16.36935	11.27051
6.82612	-16.36935	11.27051
6.83030	-16.36935	11.27051
6.83449	-16.36935	11.27051
6.83874	-16.39132	11.27051
6.84301	-16.39132	11.27051
6.84721	-16.39132	11.27051
6.85140	-16.39132	11.27051
6.85559	-16.39132	11.27051
6.85977	-16.39132	11.27051
6.86395	-16.39132	11.27051
6.86814	-16.41330	11.27051
6.87243	-16.41330	11.27051
6.87666	-16.41330	11.27051
6.88085	-16.41330	11.27051
6.88515	-16.41330	11.27051
6.88934	-16.41330	11.27051
6.89353	-16.41330	11.27051
6.89771	-16.41330	11.27051
6.90208	-16.43527	11.27051
6.90629	-16.43527	11.27051
6.91048	-16.43527	11.27051
6.91467	-16.43527	11.27051
6.91886	-16.43527	11.27051
6.92305	-16.43527	11.27051
6.92723	-16.43527	11.27051
6.93154	-16.43527	11.27051
6.93580	-16.45724	11.27051
6.93999	-16.45724	11.27051
6.94418	-16.45724	11.27051
6.94836	-16.45724	11.27051
6.95255	-16.45724	11.27051
6.95673	-16.45724	11.27051
6.96101	-16.45724	11.27051
6.96530	-16.45724	11.27051
6.96951	-16.45724	11.27051
6.97370	-16.47922	11.27051
6.97790	-16.47922	11.27051
6.98210	-16.47922	11.27051
6.98639	-16.50119	11.27051
6.99058	-16.47922	11.27051
6.99488	-16.47922	11.27051
6.99908	-16.50119	11.27051
7.00327	-16.47922	11.27051
7.00746	-16.47922	11.27051
7.01164	-16.50119	11.27051
7.01584	-16.50119	11.27051
7.02003	-16.50119	11.27051
7.02439	-16.50119	11.27051
7.02860	-16.50119	11.27051
7.03279	-16.50119	11.27051
7.03699	-16.50119	11.27051
7.04117	-16.50119	11.27051
7.04536	-16.52316	11.27051
7.04954	-16.50119	11.27051
7.05384	-16.52316	11.27051
7.05810	-16.52316	11.27051
7.06229	-16.52316	11.27051
7.06648	-16.52316	11.27051
7.07067	-16.52316	11.27051
7.07487	-16.52316	11.27051
7.07907	-16.52316	11.27051
7.08327	-16.52316	11.27051
7.08774	-16.52316	11.27051
7.09195	-16.52316	11.27051
7.09615	-16.52316	11.27051
7.10034	-16.52316	11.27051
7.10453	-16.52316	11.27051
7.10872	-16.54513	11.27051
7.11291	-16.54513	11.27051
7.11719	-16.54513	11.27051
7.12140	-16.52316	11.27051
7.12559	-16.52316	11.27051
7.12977	-16.54513	11.27051
7.13396	-16.52316	11.27051
7.13814	-16.52316	11.27051
7.14233	-16.54513	11.27051
7.14672	-16.52316	11.27051
7.15092	-16.54513	11.27051
7.15511	-16.54513	11.27051
7.15930	-16.54513	11.27051
7.16348	-16.54513	11.27051
7.16767	-16.54513	11.27051
7.17185	-16.52316	11.27051
7.17614	-16.54513	11.27051
7.18040	-16.52316	11.27051
7.18460	-16.54513	11.27051
7.18890	-16.54513	11.27051
7.19307	-16.52316	11.27051
7.19726	-16.52316	11.27051
7.20144	-16.54513	11.27051
7.20579	-16.52316	11.27051
7.21008	-16.52316	11.27051
7.21429	-16.52316	11.27051
7.21847	-16.52316	11.27051
7.22266	-16.52316	11.27051
7.22686	-16.54513	11.27051
7.23105	-16.52316	11.27051
7.23523	-16.54513	11.27051
7.23952	-16.52316	11.27051
7.24373	-16.52316	11.27051
7.24792	-16.52316	11.27051
7.25210	-16.52316	11.27051
7.25629	-16.52316	11.27051
7.26047	-16.52316	11.27051
7.26466	-16.52316	11.27051
7.26904	-16.52316	11.27051
7.27325	-16.52316	11.27051
7.27744	-16.52316	11.27051
7.28163	-16.52316	11.27051
7.28581	-16.52316	11.27051
7.29010	-16.52316	11.27051
7.29429	-16.52316	11.27051
7.29857	-16.52316	11.27051
7.30284	-16.50119	11.27051
7.30703	-16.52316	11.27051
7.31122	-16.50119	11.27051
7.31541	-16.50119	11.27051
7.31959	-16.50119	11.27051
7.32378	-16.50119	11.27051
7.32803	-16.50119	11.27051
7.33230	-16.50119	11.27051
7.33650	-16.50119	11.27051
7.34069	-16.50119	11.27051
7.34488	-16.50119	11.27051
7.34906	-16.47922	11.27051
7.35325	-16.47922	11.27051
7.35744	-16.50119	11.27051
7.36174	-16.47922	11.27051
7.36595	-16.47922	11.27051
7.37014	-16.47922	11.27051
7.37432	-16.47922	11.27051
7.37851	-16.47922	11.27051
7.38269	-16.47922	11.27051
7.38688	-16.45724	11.27051
7.39139	-16.47922	11.27051
7.39558	-16.45724	11.27051
7.39977	-16.45724	11.27051
7.40396	-16.47922	11.27051
7.40814	-16.45724	11.27051
7.41233	-16.45724	11.27051
7.41651	-16.45724	11.27051
7.42081	-16.45724	11.27051
7.42508	-16.45724	11.27051
7.42928	-16.45724	11.27051
7.43346	-16.43527	11.27051
7.43765	-16.45724	11.27051
7.44183	-16.43527	11.27051
7.44605	-16.43527	11.27051
7.45032	-16.43527	11.27051
7.45460	-16.43527	11.27051
7.45880	-16.41330	11.27051
7.46299	-16.43527	11.27051
7.46718	-16.41330	11.27051
7.47137	-16.41330	11.27051
7.47556	-16.41330	11.27051
7.47974	-16.41330	11.27051
7.48404	-16.41330	11.27051
7.48826	-16.41330	11.27051
7.49255	-16.39132	11.27051
7.49674	-16.41330	11.27051
7.50092	-16.39132	11.27051
7.50506	-16.39132	11.27051
7.50925	-16.39132	11.27051
7.51365	-16.36935	11.27051
7.51785	-16.36935	11.27051
7.52205	-16.36935	11.27051
7.52624	-16.34738	11.27051
7.53042	-16.36935	11.27051
7.53461	-16.36935	11.27051
7.53879	-16.34738	11.27051
7.54310	-16.34738	11.27051
7.54736	-16.34738	11.27051
7.55156	-16.34738	11.27051
7.55574	-16.34738	11.27051
7.55993	-16.32541	11.27051
7.56411	-16.32541	11.27051
7.56829	-16.32541	11.27051
7.57254	-16.32541	11.27051
7.57682	-16.30343	11.27051
7.58103	-16.30343	11.27051
7.58521	-16.30343	11.27051
7.58940	-16.30343	11.27051
7.59369	-16.30343	11.27051
7.59787	-16.30343	11.27051
7.60206	-16.28146	11.27051
7.60635	-16.28146	11.27051
7.61055	-16.28146	11.27051
7.61474	-16.28146	11.27051
7.61892	-16.25949	11.27051
7.62311	-16.25949	11.27051
7.62730	-16.25949	11.27051
7.63148	-16.23752	11.27051
7.63586	-16.23752	11.27051
7.64007	-16.23752	11.27051
7.64426	-16.23752	11.27051
7.64844	-16.23752	11.27051
7.65263	-16.23752	11.27051
7.65681	-16.21554	11.27051
7.66100	-16.21554	11.27051
7.66530	-16.21554	11.27051
7.66956	-16.21554	11.27051
7.67375	-16.19357	11.27051
7.67793	-16.19357	11.27051
7.68212	-16.17160	11.27051
7.68630	-16.17160	11.27051
7.69049	-16.17160	11.27051
7.69484	-16.17160	11.27051
7.69912	-16.14963	11.27051
7.70332	-16.14963	11.27051
7.70751	-16.14963	11.27051
7.71169	-16.14963	11.27051
7.71587	-16.12765	11.27051
7.72006	-16.12765	11.27051
7.72425	-16.12765	11.27051
7.72854	-16.12765	11.27051
7.73275	-16.10568	11.27051
7.73694	-16.08371	11.27051
7.74113	-16.08371	11.27051
7.74531	-16.08371	11.27051
7.74950	-16.08371	11.27051
7.75368	-16.06173	11.27051
7.75806	-16.06173	11.27051
7.76227	-16.06173	11.27051
7.76646	-16.03976	11.27051
7.77064	-16.03976	11.27051
7.77482	-16.03976	11.27051
7.77901	-16.03976	11.27051
7.78319	-16.01779	11.27051
7.78749	-16.01779	11.27051
7.79175	-15.99582	11.27051
7.79604	-15.99582	11.27051
7.80022	-15.99582	11.27051
7.80441	-15.99582	11.27051
7.80859	-15.97384	11.27051
7.81277	-15.95187	11.27051
7.81704	-15.95187	11.27051
7.82131	-15.95187	11.27051
7.82552	-15.95187	11.27051
7.82970	-15.95187	11.27051
7.83389	-15.92990	11.27051
7.83807	-15.90793	11.27051
7.84226	-15.90793	11.27051
7.84644	-15.90793	11.27051
7.85073	-15.90793	11.27051
7.85494	-15.90793	11.27051
7.85912	-15.88595	11.27051
7.86331	-15.88595	11.27051
7.86749	-15.86398	11.27051
7.87168	-15.86398	11.27051
7.87586	-15.86398	11.27051
7.88023	-15.84201	11.27051
7.88444	-15.84201	11.27051
7.88863	-15.84201	11.27051
7.89282	-15.82004	11.27051
7.89712	-15.82004	11.27051
7.90130	-15.82004	11.27051
7.90549	-15.79806	11.27051
7.90977	-15.79806	11.27051
7.91403	-15.79806	11.27051
7.91822	-15.77609	11.27051
7.92241	-15.77609	11.27051
7.92660	-15.77609	11.27051
7.93079	-15.75412	11.27051
7.93497	-15.75412	11.27051
7.93921	-15.75412	11.27051
7.94349	-15.73214	11.27051
7.94769	-15.73214	11.27051
7.95187	-15.73214	11.27051
7.95606	-15.71017	11.27051
7.96024	-15.71017	11.27051
7.96443	-15.71017	11.27051
7.96861	-15.68820	11.27051
7.97290	-15.68820	11.27051
7.97709	-15.66623	11.27051
7.98128	-15.66623	11.27051
7.98546	-15.66623	11.27051
7.98964	-15.66623	11.27051
7.99383	-15.64425	11.27051
7.99811	-15.64425	11.27051
8.00255	-15.62228	11.27051
8.00676	-15.62228	11.27051
8.01095	-15.62228	11.27051
8.01514	-15.60031	11.27051
8.01933	-15.60031	11.27051
8.02352	-15.60031	11.27051
8.02771	-15.60031	11.27051
8.03197	-15.57834	11.27051
8.03624	-15.57834	11.27051
8.04043	-15.57834	11.27051
8.04462	-15.55636	11.27051
8.04880	-15.55636	11.27051
8.05300	-15.55636	11.27051
8.05718	-15.53439	11.27051
8.06143	-15.53439	11.27051
8.06572	-15.53439	11.27051
8.06993	-15.53439	11.27051
8.07411	-15.53439	11.27051
8.07830	-15.51242	11.27051
8.08248	-15.51242	11.27051
8.08667	-15.51242	11.27051
8.09085	-15.49045	11.27051
8.09514	-15.51242	11.27051
8.09945	-15.49045	11.27051
8.10363	-15.46847	11.27051
8.10782	-15.46847	11.27051
8.11200	-15.46847	11.27051
8.11618	-15.46847	11.27051
8.12037	-15.44650	11.27051
8.12478	-15.44650	11.27051
8.12901	-15.44650	11.27051
8.13320	-15.42453	11.27051
8.13739	-15.42453	11.27051
8.14158	-15.42453	11.27051
8.14577	-15.42453	11.27051
8.14996	-15.42453	11.27051
8.15427	-15.40256	11.27051
8.15853	-15.40256	11.27051
8.16273	-15.40256	11.27051
8.16692	-15.40256	11.27051
8.17110	-15.38058	11.27051
8.17529	-15.38058	11.27051
8.17947	-15.38058	11.27051
8.18371	-15.35861	11.27051
8.18800	-15.35861	11.27051
8.19219	-15.35861	11.27051
8.19638	-15.35861	11.27051
8.20067	-15.35861	11.27051
8.20485	-15.33664	11.27051
8.20907	-15.33664	11.27051
8.21326	-15.33664	11.27051
8.21757	-15.33664	11.27051
8.22177	-15.31466	11.27051
8.22596	-15.31466	11.27051
8.23014	-15.31466	11.27051
8.23433	-15.31466	11.27051
8.23851	-15.29269	11.27051
8.24269	-15.29269	11.27051
8.24710	-15.29269	11.27051
8.25131	-15.29269	11.27051
8.25550	-15.29269	11.27051
8.25969	-15.27072	11.27051
8.26388	-15.27072	11.27051
8.26807	-15.27072	11.27051
8.27226	-15.27072	11.27051
8.27656	-15.24875	11.27051
8.28086	-15.24875	11.27051
8.28506	-15.24875	11.27051
8.28925	-15.24875	11.27051
8.29344	-15.22677	11.27051
8.29762	-15.22677	11.27051
8.30191	-15.22677	11.27051
8.30617	-15.22677	11.27051
8.31044	-15.20480	11.27051
8.31464	-15.20480	11.27051
8.31883	-15.20480	11.27051
8.32302	-15.20480	11.27051
8.32720	-15.20480	11.27051
8.33139	-15.18283	11.27051
8.33557	-15.18283	11.27051
8.33987	-15.18283	11.27051
8.34407	-15.18283	11.27051
8.34826	-15.18283	11.27051
8.35244	-15.18283	11.27051
8.35664	-15.16086	11.27051
8.36083	-15.16086	11.27051
8.36502	-15.16086	11.27051
8.36945	-15.13888	11.27051
8.37367	-15.16086	11.27051
8.37786	-15.16086	11.27051
8.38204	-15.13888	11.27051
8.38623	-15.13888	11.27051
8.39041	-15.13888	11.27051
8.39459	-15.13888	11.27051
8.39886	-15.13888	11.27051
8.40323	-15.13888	11.27051
8.40742	-15.11691	11.27051
8.41160	-15.11691	11.27051
8.41579	-15.11691	11.27051
8.41997	-15.11691	11.27051
8.42415	-15.11691	11.27051
8.42841	-15.11691	11.27051
8.43270	-15.11691	11.27051
8.43690	-15.11691	11.27051
8.44107	-15.09494	11.27051
8.44528	-15.09494	11.27051
8.44947	-15.09494	11.27051
8.45366	-15.09494	11.27051
8.45784	-15.09494	11.27051
8.46214	-15.09494	11.27051
8.46635	-15.09494	11.27051
8.47054	-15.09494	11.27051
8.47472	-15.09494	11.27051
8.47891	-15.09494	11.27051
8.48310	-15.09494	11.27051
8.48728	-15.09494	11.27051
8.49169	-15.09494	11.27051
8.49591	-15.09494	11.27051
8.50009	-15.09494	11.27051
8.50439	-15.09494	11.27051
8.50857	-15.09494	11.27051
8.51276	-15.09494	11.27051
8.51695	-15.09494	11.27051
8.52122	-15.09494	11.27051
8.52548	-15.09494	11.27051
8.52969	-15.09494	11.27051
8.53387	-15.09494	11.27051
8.53805	-15.09494	11.27051
8.54224	-15.09494	11.27051
8.54643	-15.09494	11.27051
8.55068	-15.09494	11.27051
8.55496	-15.09494	11.27051
8.55916	-15.09494	11.27051
8.56334	-15.09494	11.27051
8.56753	-15.09494	11.27051
8.57171	-15.09494	11.27051
8.57590	-15.09494	11.27051
8.58008	-15.09494	11.27051
8.58437	-15.11691	11.27051
8.58858	-15.11691	11.27051
8.59277	-15.09494	11.27051
8.59696	-15.11691	11.27051
8.60114	-15.11691	11.27051
8.60543	-15.11691	11.27051
8.60961	-15.11691	11.27051
8.61401	-15.11691	11.27051
8.61822	-15.11691	11.27051
8.62241	-15.11691	11.27051
8.62659	-15.11691	11.27051
8.63078	-15.11691	11.27051
8.63496	-15.11691	11.27051
8.63915	-15.11691	11.27051
8.64343	-15.13888	11.27051
8.64769	-15.13888	11.27051
8.65188	-15.13888	11.27051
8.65606	-15.13888	11.27051
8.66025	-15.16086	11.27051
8.66443	-15.16086	11.27051
8.66862	-15.16086	11.27051
8.67287	-15.16086	11.27051
8.67716	-15.16086	11.27051
8.68136	-15.16086	11.27051
8.68555	-15.16086	11.27051
8.68973	-15.16086	11.27051
8.69392	-15.18283	11.27051
8.69811	-15.18283	11.27051
8.70229	-15.18283	11.27051
8.70669	-15.18283	11.27051
8.71089	-15.18283	11.27051
8.71507	-15.20480	11.27051
8.71926	-15.20480	11.27051
8.72344	-15.18283	11.27051
8.72763	-15.20480	11.27051
8.73182	-15.20480	11.27051
8.73620	-15.22677	11.27051
8.74041	-15.22677	11.27051
8.74460	-15.22677	11.27051
8.74878	-15.22677	11.27051
8.75298	-15.22677	11.27051
8.75716	-15.22677	11.27051
8.76135	-15.24875	11.27051
8.76563	-15.24875	11.27051
8.76989	-15.24875	11.27051
8.77408	-15.27072	11.27051
8.77826	-15.27072	11.27051
8.78245	-15.27072	11.27051
8.78663	-15.27072	11.27051
8.79082	-15.27072	11.27051
8.79507	-15.29269	11.27051
8.79935	-15.29269	11.27051
8.80355	-15.29269	11.27051
8.80784	-15.29269	11.27051
8.81202	-15.31466	11.27051
8.81621	-15.31466	11.27051
8.82039	-15.31466	11.27051
8.82458	-15.31466	11.27051
8.82887	-15.31466	11.27051
8.83309	-15.33664	11.27051
8.83728	-15.35861	11.27051
8.84147	-15.33664	11.27051
8.84565	-15.35861	11.27051
8.84984	-15.35861	11.27051
8.85402	-15.35861	11.27051
8.85842	-15.38058	11.27051
8.86263	-15.38058	11.27051
8.86682	-15.38058	11.27051
8.87100	-15.40256	11.27051
8.87519	-15.40256	11.27051
8.87937	-15.40256	11.27051
8.88355	-15.40256	11.27051
8.88783	-15.42453	11.27051
8.89209	-15.42453	11.27051
8.89629	-15.42453	11.27051
8.90047	-15.44650	11.27051
8.90466	-15.44650	11.27051
8.90896	-15.44650	11.27051
8.91315	-15.44650	11.27051
8.91739	-15.44650	11.27051
8.92168	-15.46847	11.27051
8.92587	-15.46847	11.27051
8.93006	-15.46847	11.27051
8.93426	-15.49045	11.27051
8.93844	-15.49045	11.27051
8.94262	-15.49045	11.27051
8.94681	-15.49045	11.27051
8.95110	-15.49045	11.27051
8.95531	-15.51242	11.27051
8.95949	-15.51242	11.27051
8.96368	-15.53439	11.27051
8.96786	-15.53439	11.27051
8.97204	-15.53439	11.27051
8.97623	-15.53439	11.27051
8.98064	-15.53439	11.27051
8.98485	-15.55636	11.27051
8.98904	-15.57834	11.27051
8.99323	-15.57834	11.27051
8.99741	-15.57834	11.27051
9.00160	-15.57834	11.27051
9.00578	-15.57834	11.27051
9.01018	-15.57834	11.27051
9.01443	-15.60031	11.27051
9.01862	-15.60031	11.27051
9.02281	-15.62228	11.27051
9.02700	-15.62228	11.27051
9.03118	-15.62228	11.27051
9.03536	-15.62228	11.27051
9.03962	-15.64425	11.27051
9.04390	-15.64425	11.27051
9.04810	-15.64425	11.27051
9.05229	-15.66623	11.27051
9.05647	-15.66623	11.27051
9.06066	-15.66623	11.27051
9.06484	-15.66623	11.27051
9.06904	-15.68820	11.27051
9.07334	-15.68820	11.27051
9.07754	-15.71017	11.27051
9.08173	-15.71017	11.27051
9.08591	-15.71017	11.27051
9.09009	-15.71017	11.27051
9.09428	-15.71017	11.27051
9.09846	-15.73214	11.27051
9.10286	-15.73214	11.27051
9.10707	-15.73214	11.27051
9.11136	-15.73214	11.27051
9.11554	-15.75412	11.27051
9.11973	-15.75412	11.27051
9.12391	-15.77609	11.27051
9.12810	-15.77609	11.27051
9.13239	-15.77609	11.27051
9.13665	-15.77609	11.27051
9.14084	-15.77609	11.27051
9.14503	-15.79806	11.27051
9.14922	-15.79806	11.27051
9.15340	-15.82004	11.27051
9.15759	-15.82004	11.27051
9.16184	-15.82004	11.27051
9.16612	-15.82004	11.27051
9.17032	-15.84201	11.27051
9.17451	-15.84201	11.27051
9.17869	-15.84201	11.27051
9.18287	-15.84201	11.27051
9.18706	-15.84201	11.27051
9.19124	-15.86398	11.27051
9.19554	-15.86398	11.27051
9.19974	-15.86398	11.27051
9.20393	-15.88595	11.27051
9.20814	-15.88595	11.27051
9.21244	-15.90793	11.27051
9.21663	-15.90793	11.27051
9.22082	-15.88595	11.27051
9.22524	-15.90793	11.27051
9.22944	-15.90793	11.27051
9.23363	-15.92990	11.27051
9.23782	-15.92990	11.27051
9.24200	-15.92990	11.27051
9.24619	-15.92990	11.27051
9.25037	-15.95187	11.27051
9.25466	-15.95187	11.27051
9.25892	-15.95187	11.27051
9.26311	-15.95187	11.27051
9.26730	-15.95187	11.27051
9.27148	-15.95187	11.27051
9.27567	-15.95187	11.27051
9.27985	-15.97384	11.27051
9.28410	-15.97384	11.27051
9.28838	-15.97384	11.27051
9.29258	-15.97384	11.27051
9.29677	-15.99582	11.27051
9.30096	-15.99582	11.27051
9.30515	-15.99582	11.27051
9.30933	-15.99582	11.27051
9.31363	-15.99582	11.27051
9.31792	-16.01779	11.27051
9.32213	-16.01779	11.27051
9.32631	-16.01779	11.27051
9.33050	-16.01779	11.27051
9.33468	-16.01779	11.27051
9.33887	-16.01779	11.27051
9.34305	-16.01779	11.27051
9.34745	-16.03976	11.27051
9.35166	-16.03976	11.27051
9.35586	-16.03976	11.27051
9.36005	-16.03976	11.27051
9.36424	-16.03976	11.27051
9.36842	-16.03976	11.27051
9.37261	-16.03976	11.27051
9.37689	-16.03976	11.27051
9.38115	-16.03976	11.27051
9.38534	-16.03976	11.27051
9.38953	-16.06173	11.27051
9.39372	-16.03976	11.27051
9.39790	-16.03976	11.27051
9.40209	-16.03976	11.27051
9.40636	-16.06173	11.27051
9.41064	-16.06173	11.27051
9.41494	-16.03976	11.27051
9.41912	-16.06173	11.27051
9.42331	-16.06173	11.27051
9.42749	-16.06173	11.27051
9.43168	-16.03976	11.27051
9.43587	-16.06173	11.27051
9.44017	-16.03976	11.27051
9.44443	-16.06173	11.27051
9.44862	-16.06173	11.27051
9.45281	-16.06173	11.27051
9.45701	-16.06173	11.27051
9.46120	-16.06173	11.27051
9.46538	-16.06173	11.27051
9.46981	-16.06173	11.27051
9.47402	-16.06173	11.27051
9.47822	-16.03976	11.27051
9.48241	-16.03976	11.27051
9.48660	-16.06173	11.27051
9.49078	-16.06173	11.27051
9.49497	-16.06173	11.27051
9.49925	-16.03976	11.27051
9.50351	-16.03976	11.27051
9.50770	-16.03976	11.27051
9.51189	-16.03976	11.27051
9.51618	-16.03976	11.27051
9.52036	-16.03976	11.27051
9.52454	-16.03976	11.27051
9.52880	-16.03976	11.27051
9.53309	-16.03976	11.27051
9.53730	-16.03976	11.27051
9.54149	-16.03976	11.27051
9.54567	-16.03976	11.27051
9.54986	-16.03976	11.27051
9.55404	-16.01779	11.27051
9.55822	-16.01779	11.27051
9.56252	-16.01779	11.27051
9.56672	-16.03976	11.27051
9.57091	-16.01779	11.27051
9.57509	-16.01779	11.27051
9.57928	-16.01779	11.27051
9.58346	-16.01779	11.27051
9.58764	-16.01779	11.27051
9.59205	-16.01779	11.27051
9.59625	-16.01779	11.27051
9.60044	-16.01779	11.27051
9.60463	-15.99582	11.27051
9.60881	-15.99582	11.27051
9.61300	-15.99582	11.27051
9.61729	-15.99582	11.27051
9.62157	-15.97384	11.27051
9.62582	-15.97384	11.27051
9.63002	-15.97384	11.27051
9.63420	-15.97384	11.27051
9.63841	-15.97384	11.27051
9.64261	-15.97384	11.27051
9.64680	-15.97384	11.27051
9.65105	-15.95187	11.27051
9.65540	-15.95187	11.27051
9.65961	-15.95187	11.27051
9.66380	-15.92990	11.27051
9.66798	-15.92990	11.27051
9.67219	-15.92990	11.27051
9.67639	-15.92990	11.27051
9.68058	-15.92990	11.27051
9.68495	-15.92990	11.27051
9.68917	-15.90793	11.27051
9.69336	-15.90793	11.27051
9.69755	-15.90793	11.27051
9.70173	-15.90793	11.27051
9.70593	-15.90793	11.27051
9.71011	-15.88595	11.27051
9.71455	-15.88595	11.27051
9.71888	-15.88595	11.27051
9.72307	-15.88595	11.27051
9.72726	-15.86398	11.27051
9.73145	-15.86398	11.27051
9.73564	-15.86398	11.27051
9.73984	-15.86398	11.27051
9.74413	-15.86398	11.27051
9.74841	-15.84201	11.27051
9.75261	-15.84201	11.27051
9.75680	-15.84201	11.27051
9.76100	-15.82004	11.27051
9.76520	-15.82004	11.27051
9.76939	-15.82004	11.27051
9.77364	-15.82004	11.27051
9.77793	-15.82004	11.27051
9.78214	-15.79806	11.27051
9.78633	-15.79806	11.27051
9.79052	-15.77609	11.27051
9.79471	-15.79806	11.27051
9.79890	-15.79806	11.27051
9.80309	-15.77609	11.27051
9.80739	-15.77609	11.27051
9.81160	-15.77609	11.27051
9.81579	-15.75412	11.27051
9.82009	-15.75412	11.27051
9.82427	-15.75412	11.27051
9.82846	-15.75412	11.27051
9.83264	-15.75412	11.27051
9.83704	-15.73214	11.27051
9.84125	-15.73214	11.27051
9.84544	-15.71017	11.27051
9.84962	-15.71017	11.27051
9.85381	-15.71017	11.27051
9.85800	-15.71017	11.27051
9.86218	-15.71017	11.27051
9.86647	-15.68820	11.27051
9.87073	-15.68820	11.27051
9.87492	-15.68820	11.27051
9.87911	-15.68820	11.27051
9.88329	-15.66623	11.27051
9.88748	-15.66623	11.27051
9.89166	-15.66623	11.27051
9.89591	-15.66623	11.27051
9.90019	-15.64425	11.27051
9.90439	-15.64425	11.27051
9.90858	-15.64425	11.27051
9.91277	-15.64425	11.27051
9.91696	-15.62228	11.27051
9.92125	-15.62228	11.27051
9.92543	-15.62228	11.27051
9.92972	-15.62228	11.27051
9.93394	-15.62228	11.27051
9.93813	-15.62228	11.27051
9.94231	-15.60031	11.27051
9.94650	-15.60031	11.27051
9.95070	-15.60031	11.27051
9.95489	-15.60031	11.27051
9.95933	-15.60031	11.27051
9.96354	-15.60031	11.27051
9.96773	-15.57834	11.27051
9.97191	-15.57834	11.27051
9.97610	-15.60031	11.27051
9.98029	-15.57834	11.27051
9.98447	-15.57834	11.27051
9.98877	-15.57834	11.27051
9.99304	-15.55636	11.27051
9.99723	-15.55636	11.27051
10.00142	-15.55636	11.27051
10.00560	-15.55636	11.27051
10.00979	-15.55636	11.27051
10.01397	-15.55636	11.27051
10.01822	-15.55636	11.27051
10.02260	-15.53439	11.27051
10.02680	-15.55636	11.27051
10.03098	-15.53439	11.27051
10.03517	-15.53439	11.27051
10.03935	-15.53439	11.27051
10.04355	-15.53439	11.27051
10.04773	-15.53439	11.27051
10.05202	-15.51242	11.27051
10.05623	-15.53439	11.27051
10.06041	-15.53439	11.27051
10.06460	-15.51242	11.27051
10.06878	-15.51242	11.27051
10.07297	-15.51242	11.27051
10.07717	-15.51242	11.27051
10.08156	-15.51242	11.27051
10.08577	-15.51242	11.27051
10.08996	-15.51242	11.27051
10.09415	-15.51242	11.27051
10.09833	-15.51242	11.27051
10.10251	-15.51242	11.27051
10.10670	-15.51242	11.27051
10.11099	-15.51242	11.27051
10.11525	-15.49045	11.27051
10.11944	-15.49045	11.27051
10.12374	-15.49045	11.27051
10.12792	-15.49045	11.27051
10.13211	-15.49045	11.27051
10.13629	-15.49045	11.27051
10.14054	-15.49045	11.27051
10.14483	-15.49045	11.27051
10.14904	-15.49045	11.27051
10.15323	-15.49045	11.27051
10.15742	-15.49045	11.27051
10.16160	-15.49045	11.27051
10.16579	-15.49045	11.27051
10.16997	-15.49045	11.27051
10.17427	-15.49045	11.27051
10.17847	-15.49045	11.27051
10.18266	-15.49045	11.27051
10.18684	-15.49045	11.27051
10.19103	-15.49045	11.27051
10.19521	-15.49045	11.27051
10.19939	-15.49045	11.27051
10.20394	-15.49045	11.27051
10.20818	-15.49045	11.27051
10.21238	-15.49045	11.27051
10.21657	-15.49045	11.27051
10.22076	-15.49045	11.27051
10.22506	-15.49045	11.27051
10.22925	-15.49045	11.27051
10.23352	-15.49045	11.27051
10.23778	-15.49045	11.27051
10.24198	-15.49045	11.27051
10.24616	-15.49045	11.27051
10.25035	-15.49045	11.27051
10.25453	-15.51242	11.27051
10.25872	-15.51242	11.27051
10.26297	-15.51242	11.27051
10.26725	-15.51242	11.27051
10.27145	-15.51242	11.27051
10.27564	-15.51242	11.27051
10.27982	-15.51242	11.27051
10.28400	-15.51242	11.27051
10.28819	-15.51242	11.27051
10.29237	-15.51242	11.27051
10.29667	-15.51242	11.27051
10.30087	-15.51242	11.27051
10.30506	-15.53439	11.27051
10.30925	-15.53439	11.27051
10.31343	-15.53439	11.27051
10.31762	-15.53439	11.27051
10.32180	-15.53439	11.27051
10.32635	-15.53439	11.27051
10.33055	-15.53439	11.27051
10.33474	-15.53439	11.27051
10.33893	-15.55636	11.27051
10.34312	-15.55636	11.27051
10.34732	-15.55636	11.27051
10.35151	-15.55636	11.27051
10.35583	-15.55636	11.27051
10.36011	-15.55636	11.27051
10.36431	-15.55636	11.27051
10.36849	-15.57834	11.27051
10.37268	-15.57834	11.27051
10.37686	-15.57834	11.27051
10.38105	-15.57834	11.27051
10.38531	-15.57834	11.27051
10.38960	-15.57834	11.27051
10.39380	-15.57834	11.27051
10.39798	-15.60031	11.27051
10.40216	-15.60031	11.27051
10.40635	-15.60031	11.27051
10.41053	-15.60031	11.27051
10.41472	-15.60031	11.27051
10.41902	-15.60031	11.27051
10.42322	-15.60031	11.27051
10.42751	-15.62228	11.27051
10.43170	-15.62228	11.27051
10.43589	-15.62228	11.27051
10.44007	-15.62228	11.27051
10.44429	-15.62228	11.27051
10.44874	-15.62228	11.27051
10.45297	-15.62228	11.27051
10.45716	-15.64425	11.27051
10.46136	-15.64425	11.27051
10.46555	-15.64425	11.27051
10.46974	-15.64425	11.27051
10.47393	-15.64425	11.27051
10.47825	-15.64425	11.27051
10.48252	-15.64425	11.27051
10.48672	-15.66623	11.27051
10.49091	-15.66623	11.27051
10.49510	-15.66623	11.27051
10.49929	-15.66623	11.27051
10.50348	-15.66623	11.27051
10.50774	-15.68820	11.27051
10.51209	-15.68820	11.27051
10.51630	-15.68820	11.27051
10.52051	-15.68820	11.27051
10.52470	-15.68820	11.27051
10.52901	-15.71017	11.27051
10.53320	-15.71017	11.27051
10.53739	-15.71017	11.27051
10.54174	-15.71017	11.27051
10.54595	-15.71017	11.27051
10.55014	-15.71017	11.27051
10.55434	-15.71017	11.27051
10.55853	-15.73214	11.27051
10.56272	-15.73214	11.27051
10.56690	-15.73214	11.27051
10.57153	-15.73214	11.27051
10.57575	-15.73214	11.27051
10.57994	-15.73214	11.27051
10.58412	-15.75412	11.27051
10.58833	-15.75412	11.27051
10.59252	-15.75412	11.27051
10.59671	-15.75412	11.27051
10.60101	-15.75412	11.27051
10.60529	-15.75412	11.27051
10.60949	-15.75412	11.27051
10.61367	-15.77609	11.27051
10.61786	-15.77609	11.27051
10.62205	-15.77609	11.27051
10.62623	-15.77609	11.27051
10.63060	-15.77609	11.27051
10.63490	-15.77609	11.27051
10.63909	-15.79806	11.27051
10.64328	-15.79806	11.27051
10.64746	-15.79806	11.27051
10.65165	-15.79806	11.27051
10.65583	-15.79806	11.27051
10.66002	-15.79806	11.27051
10.66432	-15.79806	11.27051
10.66853	-15.82004	11.27051
10.67272	-15.82004	11.27051
10.67690	-15.82004	11.27051
10.68106	-15.82004	11.27051
10.68525	-15.82004	11.27051
10.68943	-15.82004	11.27051
10.69385	-15.82004	11.27051
10.69806	-15.84201	11.27051
10.70226	-15.84201	11.27051
10.70645	-15.84201	11.27051
10.71064	-15.84201	11.27051
10.71483	-15.84201	11.27051
10.71902	-15.86398	11.27051
10.72332	-15.84201	11.27051
10.72759	-15.84201	11.27051
10.73190	-15.86398	11.27051
10.73609	-15.86398	11.27051
10.74027	-15.86398	11.27051
10.74445	-15.86398	11.27051
10.74864	-15.88595	11.27051
10.75289	-15.88595	11.27051
10.75717	-15.88595	11.27051
10.76137	-15.88595	11.27051
10.76555	-15.88595	11.27051
10.76974	-15.88595	11.27051
10.77392	-15.90793	11.27051
10.77811	-15.90793	11.27051
10.78229	-15.90793	11.27051
10.78659	-15.90793	11.27051
10.79079	-15.90793	11.27051
10.79497	-15.90793	11.27051
10.79916	-15.90793	11.27051
10.80334	-15.90793	11.27051
10.80753	-15.90793	11.27051
10.81171	-15.90793	11.27051
10.81612	-15.92990	11.27051
10.82034	-15.90793	11.27051
10.82453	-15.92990	11.27051
10.82872	-15.92990	11.27051
10.83303	-15.92990	11.27051
10.83721	-15.92990	11.27051
10.84140	-15.95187	11.27051
10.84567	-15.92990	11.27051
10.84993	-15.92990	11.27051
10.85413	-15.95187	11.27051
10.85832	-15.95187	11.27051
10.86250	-15.95187	11.27051
10.86669	-15.95187	11.27051
10.87087	-15.95187	11.27051
10.87512	-15.95187	11.27051
10.87940	-15.95187	11.27051
10.88360	-15.95187	11.27051
10.88778	-15.95187	11.27051
10.89197	-15.97384	11.27051
10.89615	-15.95187	11.27051
10.90034	-15.97384	11.27051
10.90452	-15.97384	11.27051
10.90881	-15.97384	11.27051
10.91302	-15.97384	11.27051
10.91721	-15.97384	11.27051
10.92139	-15.97384	11.27051
10.92558	-15.97384	11.27051
10.92976	-15.97384	11.27051
10.93405	-15.99582	11.27051
10.93845	-15.97384	11.27051
10.94265	-15.97384	11.27051
10.94684	-15.99582	11.27051
10.95104	-15.99582	11.27051
10.95523	-15.99582	11.27051
10.95942	-15.99582	11.27051
10.96361	-15.99582	11.27051
10.96792	-15.99582	11.27051
10.97218	-15.99582	11.27051
10.97638	-15.99582	11.27051
10.98057	-15.99582	11.27051
10.98476	-15.99582	11.27051
10.98895	-15.99582	11.27051
10.99313	-15.99582	11.27051
10.99738	-16.01779	11.27051
11.00167	-16.01779	11.27051
11.00586	-16.01779	11.27051
11.01005	-16.01779	11.27051
11.01423	-16.01779	11.27051
11.01842	-16.01779	11.27051
11.02260	-16.01779	11.27051
11.02679	-16.01779	11.27051
11.03108	-16.03976	11.27051
11.03539	-16.01779	11.27051
11.03958	-16.01779	11.27051
11.04376	-16.03976	11.27051
11.04795	-16.03976	11.27051
11.05213	-16.03976	11.27051
11.05632	-16.03976	11.27051
11.06073	-16.03976	11.27051
11.06494	-16.03976	11.27051
11.06913	-16.03976	11.27051
11.07331	-16.03976	11.27051
11.07750	-16.03976	11.27051
11.08168	-16.03976	11.27051
11.08587	-16.03976	11.27051
11.09016	-16.06173	11.27051
11.09444	-16.03976	11.27051
11.09863	-16.03976	11.27051
11.10282	-16.06173	11.27051
11.10701	-16.03976	11.27051
11.11119	-16.03976	11.27051
11.11538	-16.06173	11.27051
11.11964	-16.06173	11.27051
11.12392	-16.06173	11.27051
11.12812	-16.06173	11.27051
11.13231	-16.03976	11.27051
11.13659	-16.06173	11.27051
11.14078	-16.06173	11.27051
11.14497	-16.06173	11.27051
11.14916	-16.06173	11.27051
11.15346	-16.06173	11.27051
11.15765	-16.06173	11.27051
11.16184	-16.06173	11.27051
11.16602	-16.06173	11.27051
11.17021	-16.06173	11.27051
11.17439	-16.06173	11.27051
11.17857	-16.06173	11.27051
11.18298	-16.06173	11.27051
11.18719	-16.06173	11.27051
11.19138	-16.06173	11.27051
11.19557	-16.06173	11.27051
11.19976	-16.06173	11.27051
11.20395	-16.06173	11.27051
11.20814	-16.06173	11.27051
11.21246	-16.06173	11.27051
11.21675	-16.06173	11.27051
11.22098	-16.06173	11.27051
11.22519	-16.06173	11.27051
11.22939	-16.06173	11.27051
11.23360	-16.06173	11.27051
11.23791	-16.03976	11.27051
11.24244	-16.03976	11.27051
11.24677	-16.03976	11.27051
11.25099	-16.03976	11.27051
11.25519	-16.03976	11.27051
11.25939	-16.03976	11.27051
11.26358	-16.03976	11.27051
11.26777	-16.03976	11.27051
11.27196	-16.03976	11.27051
11.27627	-16.03976	11.27051
11.28049	-16.01779	11.27051
11.28468	-16.01779	11.27051
11.28887	-16.03976	11.27051
11.29307	-16.03976	11.27051
11.29726	-16.01779	11.27051
11.30145	-16.01779	11.27051
11.30586	-16.01779	11.27051
11.31007	-16.01779	11.27051
11.31426	-16.01779	11.27051
11.31845	-15.99582	11.27051
11.32263	-15.99582	11.27051
11.32682	-15.99582	11.27051
11.33101	-15.99582	11.27051
11.33531	-15.99582	11.27051
11.33969	-15.99582	11.27051
11.34388	-15.99582	11.27051
11.34807	-15.99582	11.27051
11.35227	-15.97384	11.27051
11.35647	-15.97384	11.27051
11.36066	-15.97384	11.27051
11.36495	-15.97384	11.27051
11.36925	-15.95187	11.27051
11.37345	-15.95187	11.27051
11.37764	-15.95187	11.27051
11.38182	-15.95187	11.27051
11.38601	-15.95187	11.27051
11.39020	-15.92990	11.27051
11.39439	-15.92990	11.27051
11.39869	-15.92990	11.27051
11.40291	-15.92990	11.27051
11.40710	-15.90793	11.27051
11.41128	-15.92990	11.27051
11.41547	-15.92990	11.27051
11.41972	-15.90793	11.27051
11.42393	-15.90793	11.27051
11.42838	-15.90793	11.27051
11.43259	-15.90793	11.27051
11.43679	-15.88595	11.27051
11.44111	-15.88595	11.27051
11.44530	-15.88595	11.27051
11.44949	-15.88595	11.27051
11.45369	-15.86398	11.27051
11.45798	-15.86398	11.27051
11.46225	-15.86398	11.27051
11.46645	-15.86398	11.27051
11.47064	-15.86398	11.27051
11.47483	-15.84201	11.27051
11.47902	-15.84201	11.27051
11.48321	-15.84201	11.27051
11.48748	-15.82004	11.27051
11.49176	-15.82004	11.27051
11.49596	-15.82004	11.27051
11.50015	-15.79806	11.27051
11.50433	-15.82004	11.27051
11.50852	-15.79806	11.27051
11.51271	-15.79806	11.27051
11.51689	-15.77609	11.27051
11.52119	-15.77609	11.27051
11.52540	-15.77609	11.27051
11.52959	-15.77609	11.27051
11.53378	-15.75412	11.27051
11.53797	-15.75412	11.27051
11.54226	-15.75412	11.27051
11.54644	-15.75412	11.27051
11.55084	-15.75412	11.27051
11.55506	-15.75412	11.27051
11.55925	-15.73214	11.27051
11.56344	-15.73214	11.27051
11.56763	-15.73214	11.27051
11.57181	-15.73214	11.27051
11.57600	-15.73214	11.27051
11.58029	-15.71017	11.27051
11.58457	-15.71017	11.27051
11.58877	-15.71017	11.27051
11.59296	-15.68820	11.27051
11.59715	-15.68820	11.27051
11.60134	-15.68820	11.27051
11.60552	-15.68820	11.27051
11.60977	-15.68820	11.27051
11.61404	-15.68820	11.27051
11.61824	-15.66623	11.27051
11.62243	-15.68820	11.27051
11.62662	-15.66623	11.27051
11.63080	-15.66623	11.27051
11.63499	-15.66623	11.27051
11.63917	-15.66623	11.27051
11.64358	-15.64425	11.27051
11.64778	-15.64425	11.27051
11.65197	-15.64425	11.27051
11.65616	-15.64425	11.27051
11.66035	-15.64425	11.27051
11.66453	-15.64425	11.27051
11.66872	-15.64425	11.27051
11.67310	-15.64425	11.27051
11.67731	-15.62228	11.27051
11.68150	-15.62228	11.27051
11.68569	-15.64425	11.27051
11.68987	-15.62228	11.27051
11.69406	-15.64425	11.27051
11.69824	-15.62228	11.27051
11.70253	-15.62228	11.27051
11.70679	-15.62228	11.27051
11.71098	-15.62228	11.27051
11.71517	-15.60031	11.27051
11.71935	-15.62228	11.27051
11.72354	-15.62228	11.27051
11.72773	-15.62228	11.27051
11.73198	-15.62228	11.27051
11.73627	-15.62228	11.27051
11.74048	-15.60031	11.27051
11.74477	-15.62228	11.27051
11.74897	-15.62228	11.27051
11.75316	-15.62228	11.27051
11.75735	-15.62228	11.27051
11.76154	-15.60031	11.27051
11.76584	-15.60031	11.27051
11.77005	-15.62228	11.27051
11.77424	-15.62228	11.27051
11.77842	-15.62228	11.27051
11.78261	-15.60031	11.27051
11.78680	-15.60031	11.27051
11.79098	-15.60031	11.27051
11.79536	-15.60031	11.27051
11.79957	-15.60031	11.27051
11.80376	-15.60031	11.27051
11.80795	-15.60031	11.27051
11.81214	-15.62228	11.27051
11.81632	-15.62228	11.27051
11.82051	-15.62228	11.27051
11.82480	-15.62228	11.27051
11.82907	-15.62228	11.27051
11.83326	-15.62228	11.27051
11.83745	-15.62228	11.27051
11.84164	-15.62228	11.27051
11.84592	-15.62228	11.27051
11.85011	-15.62228	11.27051
11.85436	-15.62228	11.27051
11.85865	-15.62228	11.27051
11.86284	-15.62228	11.27051
11.86703	-15.62228	11.27051
11.87121	-15.62228	11.27051
11.87540	-15.62228	11.27051
11.87959	-15.62228	11.27051
11.88377	-15.64425	11.27051
11.88807	-15.62228	11.27051
11.89228	-15.62228	11.27051
11.89647	-15.64425	11.27051
11.90065	-15.64425	11.27051
11.90484	-15.64425	11.27051
11.90903	-15.64425	11.27051
11.91322	-15.64425	11.27051
11.91763	-15.66623	11.27051
11.92184	-15.66623	11.27051
11.92603	-15.66623	11.27051
11.93021	-15.66623	11.27051
11.93440	-15.66623	11.27051
11.93859	-15.66623	11.27051
11.94277	-15.68820	11.27051
11.94720	-15.68820	11.27051
11.95145	-15.68820	11.27051
11.95564	-15.68820	11.27051
11.95984	-15.68820	11.27051
11.96402	-15.68820	11.27051
11.96821	-15.71017	11.27051
11.97239	-15.71017	11.27051
11.97665	-15.71017	11.27051
11.98094	-15.73214	11.27051
11.98515	-15.71017	11.27051
11.98934	-15.73214	11.27051
11.99353	-15.73214	11.27051
11.99771	-15.73214	11.27051
12.00190	-15.75412	11.27051
12.00608	-15.75412	11.27051
12.01037	-15.75412	11.27051
12.01458	-15.75412	11.27051
12.01877	-15.77609	11.27051
12.02295	-15.77609	11.27051
12.02714	-15.77609	11.27051
12.03132	-15.77609	11.27051
12.03551	-15.79806	11.27051
12.03988	-15.79806	11.27051
12.04409	-15.79806	11.27051
12.04838	-15.82004	11.27051
12.05257	-15.82004	11.27051
12.05676	-15.82004	11.27051
12.06096	-15.84201	11.27051
12.06515	-15.84201	11.27051
12.06945	-15.84201	11.27051
12.07371	-15.86398	11.27051
12.07790	-15.86398	11.27051
12.08209	-15.86398	11.27051
12.08628	-15.86398	11.27051
12.09046	-15.88595	11.27051
12.09465	-15.88595	11.27051
12.09890	-15.90793	11.27051
12.10318	-15.90793	11.27051
12.10738	-15.90793	11.27051
12.11157	-15.90793	11.27051
12.11576	-15.92990	11.27051
12.11995	-15.92990	11.27051
12.12414	-15.95187	11.27051
12.12832	-15.95187	11.27051
12.13262	-15.95187	11.27051
12.13683	-15.97384	11.27051
12.14103	-15.97384	11.27051
12.14521	-15.99582	11.27051
12.14950	-15.99582	11.27051
12.15369	-15.99582	11.27051
12.15787	-15.99582	11.27051
12.16225	-16.01779	11.27051
12.16645	-16.01779	11.27051
12.17064	-16.03976	11.27051
12.17483	-16.03976	11.27051
12.17901	-16.06173	11.27051
12.18320	-16.06173	11.27051
12.18739	-16.06173	11.27051
12.19174	-16.08371	11.27051
12.19600	-16.08371	11.27051
12.20020	-16.10568	11.27051
12.20439	-16.10568	11.27051
12.20858	-16.12765	11.27051
12.21278	-16.12765	11.27051
12.21698	-16.14963	11.27051
12.22124	-16.14963	11.27051
12.22552	-16.17160	11.27051
12.22972	-16.17160	11.27051
12.23391	-16.19357	11.27051
12.23810	-16.19357	11.27051
12.24229	-16.19357	11.27051
12.24647	-16.21554	11.27051
12.25077	-16.21554	11.27051
12.25507	-16.23752	11.27051
12.25927	-16.23752	11.27051
12.26347	-16.25949	11.27051
12.26766	-16.25949	11.27051
12.27184	-16.25949	11.27051
12.27603	-16.28146	11.27051
12.28021	-16.30343	11.27051
12.28460	-16.32541	11.27051
12.28881	-16.32541	11.27051
12.29301	-16.32541	11.27051
12.29719	-16.32541	11.27051
12.30138	-16.32541	11.27051
12.30557	-16.34738	11.27051
12.30975	-16.36935	11.27051
12.31405	-16.36935	11.27051
12.31830	-16.36935	11.27051
12.32250	-16.39132	11.27051
12.32668	-16.41330	11.27051
12.33087	-16.41330	11.27051
12.33505	-16.43527	11.27051
12.33924	-16.43527	11.27051
12.34349	-16.43527	11.27051
12.34776	-16.45724	11.27051
12.35207	-16.45724	11.27051
12.35626	-16.47922	11.27051
12.36047	-16.47922	11.27051
12.36467	-16.47922	11.27051
12.36886	-16.50119	11.27051
12.37306	-16.50119	11.27051
12.37736	-16.52316	11.27051
12.38156	-16.52316	11.27051
12.38575	-16.54513	11.27051
12.38994	-16.54513	11.27051
12.39413	-16.54513	11.27051
12.39832	-16.56711	11.27051
12.40251	-16.56711	11.27051
12.40693	-16.58908	11.27051
12.41114	-16.58908	11.27051
12.41533	-16.61105	11.27051
12.41952	-16.61105	11.27051
12.42370	-16.61105	11.27051
12.42789	-16.63302	11.27051
12.43208	-16.65500	11.27051
12.43638	-16.65500	11.27051
12.44065	-16.65500	11.27051
12.44485	-16.67697	11.27051
12.44906	-16.67697	11.27051
12.45336	-16.67697	11.27051
12.45755	-16.67697	11.27051
12.46173	-16.69894	11.27051
12.46600	-16.69894	11.27051
12.47028	-16.72091	11.27051
12.47448	-16.74289	11.27051
12.47868	-16.74289	11.27051
12.48286	-16.74289	11.27051
12.48705	-16.74289	11.27051
12.49124	-16.76486	11.27051
12.49543	-16.76486	11.27051
12.49973	-16.76486	11.27051
12.50394	-16.78683	11.27051
12.50813	-16.78683	11.27051
12.51232	-16.78683	11.27051
12.51650	-16.80881	11.27051
12.52069	-16.80881	11.27051
12.52488	-16.80881	11.27051
12.52925	-16.83078	11.27051
12.53346	-16.83078	11.27051
12.53766	-16.83078	11.27051
12.54185	-16.83078	11.27051
12.54603	-16.85275	11.27051
12.55022	-16.87472	11.27051
12.55451	-16.87472	11.27051
12.55879	-16.87472	11.27051
12.56305	-16.87472	11.27051
12.56725	-16.87472	11.27051
12.57144	-16.89670	11.27051
12.57563	-16.89670	11.27051
12.57981	-16.89670	11.27051
12.58400	-16.89670	11.27051
12.58826	-16.91867	11.27051
12.59254	-16.91867	11.27051
12.59674	-16.94064	11.27051
12.60094	-16.91867	11.27051
12.60513	-16.91867	11.27051
12.60931	-16.94064	11.27051
12.61350	-16.94064	11.27051
12.61768	-16.94064	11.27051
12.62198	-16.96261	11.27051
12.62618	-16.96261	11.27051
12.63036	-16.96261	11.27051
12.63455	-16.96261	11.27051
12.63874	-16.96261	11.27051
12.64292	-16.98459	11.27051
12.64711	-16.98459	11.27051
12.65147	-16.98459	11.27051
12.65578	-17.00656	11.27051
12.65997	-17.00656	11.27051
12.66416	-16.98459	11.27051
12.66835	-17.00656	11.27051
12.67253	-17.00656	11.27051
12.67672	-17.00656	11.27051
12.68104	-17.00656	11.27051
12.68530	-17.02853	11.27051
12.68949	-17.02853	11.27051
12.69368	-17.02853	11.27051
12.69787	-17.02853	11.27051
12.70205	-17.05050	11.27051
12.70624	-17.05050	11.27051
12.71048	-17.05050	11.27051
12.71476	-17.05050	11.27051
12.71896	-17.05050	11.27051
12.72315	-17.05050	11.27051
12.72733	-17.07248	11.27051
12.73152	-17.05050	11.27051
12.73570	-17.07248	11.27051
12.73989	-17.07248	11.27051
12.74418	-17.07248	11.27051
12.74839	-17.05050	11.27051
12.75258	-17.07248	11.27051
12.75687	-17.07248	11.27051
12.76107	-17.07248	11.27051
12.76528	-17.07248	11.27051
12.76947	-17.07248	11.27051
12.77401	-17.07248	11.27051
12.77823	-17.09445	11.27051
12.78241	-17.07248	11.27051
12.78660	-17.07248	11.27051
12.79079	-17.09445	11.27051
12.79497	-17.07248	11.27051
12.79915	-17.09445	11.27051
12.80344	-17.09445	11.27051
12.80770	-17.09445	11.27051
12.81189	-17.09445	11.27051
12.81607	-17.09445	11.27051
12.82025	-17.09445	11.27051
12.82445	-17.09445	11.27051
12.82864	-17.09445	11.27051
12.83288	-17.09445	11.27051
12.83716	-17.09445	11.27051
12.84135	-17.09445	11.27051
12.84553	-17.09445	11.27051
12.84971	-17.09445	11.27051
12.85390	-17.07248	11.27051
12.85818	-17.07248	11.27051
12.86236	-17.07248	11.27051
12.86666	-17.07248	11.27051
12.87087	-17.07248	11.27051
12.87504	-17.07248	11.27051
12.87921	-17.05050	11.27051
12.88338	-17.07248	11.27051
12.88756	-17.07248	11.27051
12.89173	-17.07248	11.27051
12.89603	-17.07248	11.27051
12.90023	-17.05050	11.27051
12.90440	-17.05050	11.27051
12.90857	-17.05050	11.27051
12.91274	-17.02853	11.27051
12.91691	-17.05050	11.27051
12.92105	-17.02853	11.27051
12.92538	-17.02853	11.27051
12.92962	-17.02853	11.27051
12.93380	-17.02853	11.27051
12.93799	-17.00656	11.27051
12.94217	-17.00656	11.27051
12.94634	-17.00656	11.27051
12.95051	-16.98459	11.27051
12.95475	-17.00656	11.27051
12.95911	-16.98459	11.27051
12.96329	-16.96261	11.27051
12.96747	-16.98459	11.27051
12.97165	-16.96261	11.27051
12.97584	-16.96261	11.27051
12.98002	-16.96261	11.27051
12.98421	-16.94064	11.27051
12.98852	-16.94064	11.27051
12.99272	-16.91867	11.27051
12.99691	-16.91867	11.27051
13.00107	-16.91867	11.27051
13.00525	-16.91867	11.27051
13.00944	-16.89670	11.27051
13.01362	-16.89670	11.27051
13.01800	-16.87472	11.27051
13.02221	-16.87472	11.27051
13.02640	-16.87472	11.27051
13.03058	-16.85275	11.27051
13.03477	-16.85275	11.27051
13.03896	-16.85275	11.27051
13.04314	-16.83078	11.27051
13.04744	-16.83078	11.27051
13.05170	-16.83078	11.27051
13.05589	-16.80881	11.27051
13.06018	-16.78683	11.27051
13.06436	-16.78683	11.27051
13.06856	-16.76486	11.27051
13.07274	-16.76486	11.27051
13.07700	-16.76486	11.27051
13.08128	-16.74289	11.27051
13.08549	-16.74289	11.27051
13.08967	-16.72091	11.27051
13.09386	-16.69894	11.27051
13.09804	-16.72091	11.27051
13.10223	-16.69894	11.27051
13.10641	-16.69894	11.27051
13.11071	-16.67697	11.27051
13.11491	-16.65500	11.27051
13.11910	-16.65500	11.27051
13.12329	-16.65500	11.27051
13.12747	-16.65500	11.27051
13.13166	-16.63302	11.27051
13.13584	-16.63302	11.27051
13.14021	-16.61105	11.27051
13.14442	-16.61105	11.27051
13.14861	-16.58908	11.27051
13.15280	-16.58908	11.27051
13.15699	-16.58908	11.27051
13.16128	-16.56711	11.27051
13.16547	-16.54513	11.27051
13.16977	-16.54513	11.27051
13.17403	-16.54513	11.27051
13.17822	-16.52316	11.27051
13.18241	-16.50119	11.27051
13.18659	-16.50119	11.27051
13.19078	-16.50119	11.27051
13.19496	-16.50119	11.27051
13.19921	-16.47922	11.27051
13.20350	-16.45724	11.27051
13.20769	-16.45724	11.27051
13.21191	-16.45724	11.27051
13.21611	-16.43527	11.27051
13.22031	-16.43527	11.27051
13.22450	-16.41330	11.27051
13.22868	-16.41330	11.27051
13.23300	-16.39132	11.27051
13.23721	-16.39132	11.27051
13.24140	-16.39132	11.27051
13.24559	-16.36935	11.27051
13.24978	-16.34738	11.27051
13.25396	-16.34738	11.27051
13.25815	-16.32541	11.27051
13.26264	-16.32541	11.27051
13.26685	-16.32541	11.27051
13.27105	-16.30343	11.27051
13.27524	-16.30343	11.27051
13.27942	-16.30343	11.27051
13.28361	-16.28146	11.27051
13.28779	-16.28146	11.27051
13.29208	-16.28146	11.27051
13.29634	-16.25949	11.27051
13.30055	-16.23752	11.27051
13.30474	-16.23752	11.27051
13.30892	-16.21554	11.27051
13.31306	-16.21554	11.27051
13.31726	-16.21554	11.27051
13.32151	-16.21554	11.27051
13.32579	-16.19357	11.27051
13.32999	-16.19357	11.27051
13.33418	-16.17160	11.27051
13.33836	-16.17160	11.27051
13.34255	-16.17160	11.27051
13.34673	-16.17160	11.27051
13.35092	-16.14963	11.27051
13.35524	-16.12765	11.27051
13.35944	-16.12765	11.27051
13.36374	-16.12765	11.27051
13.36793	-16.12765	11.27051
13.37213	-16.10568	11.27051
13.37632	-16.08371	11.27051
13.38050	-16.08371	11.27051
13.38491	-16.08371	11.27051
13.38909	-16.06173	11.27051
13.39328	-16.06173	11.27051
13.39746	-16.06173	11.27051
13.40165	-16.03976	11.27051
13.40583	-16.03976	11.27051
13.41002	-16.03976	11.27051
13.41431	-16.01779	11.27051
13.41857	-16.01779	11.27051
13.42277	-16.01779	11.27051
13.42695	-16.01779	11.27051
13.43114	-15.99582	11.27051
13.43533	-15.99582	11.27051
13.43951	-15.99582	11.27051
13.44377	-15.99582	11.27051
13.44806	-15.99582	11.27051
13.45227	-15.97384	11.27051
13.45646	-15.97384	11.27051
13.46065	-15.97384	11.27051
13.46495	-15.95187	11.27051
13.46913	-15.95187	11.27051
13.47333	-15.95187	11.27051
13.47763	-15.95187	11.27051
13.48183	-15.95187	11.27051
13.48603	-15.92990	11.27051
13.49022	-15.92990	11.27051
13.49440	-15.92990	11.27051
13.49859	-15.92990	11.27051
13.50277	-15.92990	11.27051
13.50716	-15.92990	11.27051
13.51137	-15.90793	11.27051
13.51556	-15.92990	11.27051
13.51975	-15.90793	11.27051
13.52393	-15.90793	11.27051
13.52812	-15.90793	11.27051
13.53231	-15.90793	11.27051
13.53660	-15.88595	11.27051
13.54086	-15.88595	11.27051
13.54506	-15.88595	11.27051
13.54925	-15.88595	11.27051
13.55344	-15.88595	11.27051
13.55762	-15.88595	11.27051
13.56181	-15.88595	11.27051
13.56618	-15.88595	11.27051
13.57047	-15.88595	11.27051
13.57467	-15.88595	11.27051
13.57886	-15.88595	11.27051
13.58304	-15.88595	11.27051
13.58723	-15.86398	11.27051
13.59141	-15.86398	11.27051
13.59560	-15.86398	11.27051
13.59990	-15.86398	11.27051
13.60411	-15.86398	11.27051
13.60830	-15.86398	11.27051
13.61249	-15.86398	11.27051
13.61667	-15.86398	11.27051
13.62086	-15.86398	11.27051
13.62505	-15.86398	11.27051
13.62943	-15.86398	11.27051
13.63364	-15.86398	11.27051
13.63783	-15.86398	11.27051
13.64202	-15.86398	11.27051
13.64620	-15.86398	11.27051
13.65039	-15.84201	11.27051
13.65458	-15.84201	11.27051
13.65887	-15.84201	11.27051
13.66313	-15.86398	11.27051
13.66743	-15.86398	11.27051
13.67162	-15.86398	11.27051
13.67581	-15.84201	11.27051
13.67999	-15.84201	11.27051
13.68418	-15.84201	11.27051
13.68843	-15.84201	11.27051
13.69271	-15.86398	11.27051
13.69691	-15.86398	11.27051
13.70107	-15.84201	11.27051
13.70526	-15.86398	11.27051
13.70944	-15.86398	11.27051
13.71363	-15.86398	11.27051
13.71781	-15.86398	11.27051
13.72211	-15.86398	11.27051
13.72631	-15.86398	11.27051
13.73050	-15.86398	11.27051
13.73469	-15.86398	11.27051
13.73887	-15.86398	11.27051
13.74306	-15.88595	11.27051
13.74725	-15.86398	11.27051
13.75168	-15.86398	11.27051
13.75588	-15.88595	11.27051
13.76007	-15.88595	11.27051
13.76426	-15.88595	11.27051
13.76855	-15.88595	11.27051
13.77273	-15.88595	11.27051
13.77694	-15.88595	11.27051
13.78128	-15.90793	11.27051
13.78554	-15.88595	11.27051
13.78973	-15.88595	11.27051
13.79391	-15.90793	11.27051
13.79810	-15.90793	11.27051
13.80229	-15.90793	11.27051
13.80647	-15.90793	11.27051
13.81072	-15.90793	11.27051
13.81500	-15.90793	11.27051
13.81921	-15.90793	11.27051
13.82340	-15.90793	11.27051
13.82758	-15.92990	11.27051
13.83177	-15.92990	11.27051
13.83596	-15.92990	11.27051
13.84014	-15.92990	11.27051
13.84444	-15.92990	11.27051
13.84864	-15.92990	11.27051
13.85283	-15.95187	11.27051
13.85703	-15.95187	11.27051
13.86121	-15.95187	11.27051
13.86540	-15.95187	11.27051
13.86969	-15.95187	11.27051
13.87408	-15.97384	11.27051
13.87828	-15.97384	11.27051
13.88247	-15.97384	11.27051
13.88666	-15.97384	11.27051
13.89084	-15.97384	11.27051
13.89503	-15.97384	11.27051
13.89921	-15.99582	11.27051
13.90351	-15.97384	11.27051
13.90777	-15.99582	11.27051
13.91196	-15.99582	11.27051
13.91615	-15.99582	11.27051
13.92033	-16.01779	11.27051
13.92452	-16.01779	11.27051
13.92871	-16.01779	11.27051
13.93297	-16.01779	11.27051
13.93726	-16.01779	11.27051
13.94146	-16.03976	11.27051
13.94564	-16.03976	11.27051
13.94983	-16.03976	11.27051
13.95402	-16.03976	11.27051
13.95820	-16.03976	11.27051
13.96239	-16.03976	11.27051
13.96668	-16.06173	11.27051
13.97099	-16.03976	11.27051
13.97518	-16.03976	11.27051
13.97936	-16.06173	11.27051
13.98355	-16.06173	11.27051
13.98774	-16.06173	11.27051
13.99193	-16.06173	11.27051
13.99633	-16.08371	11.27051
14.00054	-16.08371	11.27051
14.00473	-16.08371	11.27051
14.00892	-16.08371	11.27051
14.01306	-16.10568	11.27051
14.01725	-16.10568	11.27051
14.02143	-16.10568	11.27051
14.02573	-16.12765	11.27051
14.02999	-16.12765	11.27051
14.03419	-16.12765	11.27051
14.03838	-16.12765	11.27051
14.04256	-16.12765	11.27051
14.04675	-16.12765	11.27051
14.05093	-16.12765	11.27051
14.05518	-16.14963	11.27051
14.05946	-16.12765	11.27051
14.06366	-16.14963	11.27051
14.06785	-16.14963	11.27051
14.07214	-16.17160	11.27051
14.07632	-16.17160	11.27051
14.08051	-16.17160	11.27051
14.08469	-16.17160	11.27051
14.08901	-16.19357	11.27051
14.09321	-16.17160	11.27051
14.09740	-16.19357	11.27051
14.10159	-16.19357	11.27051
14.10577	-16.19357	11.27051
14.10996	-16.19357	11.27051
14.11414	-16.19357	11.27051
14.11852	-16.21554	11.27051
14.12273	-16.21554	11.27051
14.12692	-16.21554	11.27051
14.13110	-16.21554	11.27051
14.13529	-16.23752	11.27051
14.13947	-16.21554	11.27051
14.14366	-16.23752	11.27051
14.14796	-16.23752	11.27051
14.15222	-16.23752	11.27051
14.15641	-16.23752	11.27051
14.16059	-16.25949	11.27051
14.16478	-16.23752	11.27051
14.16897	-16.25949	11.27051
14.17326	-16.25949	11.27051
14.17751	-16.25949	11.27051
14.18179	-16.25949	11.27051
14.18600	-16.25949	11.27051
14.19019	-16.25949	11.27051
14.19437	-16.28146	11.27051
14.19856	-16.25949	11.27051
14.20274	-16.25949	11.27051
14.20693	-16.28146	11.27051
14.21123	-16.28146	11.27051
14.21547	-16.28146	11.27051
14.21966	-16.28146	11.27051
14.22385	-16.28146	11.27051
14.22804	-16.30343	11.27051
14.23222	-16.28146	11.27051
14.23641	-16.28146	11.27051
14.24080	-16.30343	11.27051
14.24501	-16.30343	11.27051
14.24920	-16.30343	11.27051
14.25339	-16.30343	11.27051
14.25757	-16.30343	11.27051
14.26176	-16.32541	11.27051
14.26594	-16.32541	11.27051
14.27024	-16.32541	11.27051
14.27460	-16.32541	11.27051
14.27880	-16.32541	11.27051
14.28299	-16.32541	11.27051
14.28718	-16.32541	11.27051
14.29137	-16.32541	11.27051
14.29555	-16.32541	11.27051
14.29980	-16.32541	11.27051
14.30409	-16.32541	11.27051
14.30828	-16.32541	11.27051
14.31247	-16.32541	11.27051
14.31666	-16.32541	11.27051
14.32085	-16.32541	11.27051
14.32504	-16.34738	11.27051
14.32923	-16.34738	11.27051
14.33355	-16.34738	11.27051
14.33775	-16.34738	11.27051
14.34194	-16.34738	11.27051
14.34612	-16.34738	11.27051
14.35031	-16.34738	11.27051
14.35449	-16.34738	11.27051
14.35869	-16.34738	11.27051
14.36310	-16.34738	11.27051
14.36731	-16.34738	11.27051
14.37150	-16.34738	11.27051
14.37580	-16.34738	11.27051
14.37998	-16.34738	11.27051
14.38417	-16.34738	11.27051
14.38835	-16.34738	11.27051
14.39263	-16.34738	11.27051
14.39690	-16.34738	11.27051
14.40108	-16.34738	11.27051
14.40527	-16.34738	11.27051
14.40946	-16.34738	11.27051
14.41364	-16.34738	11.27051
14.41783	-16.34738	11.27051
14.42216	-16.34738	11.27051
14.42646	-16.34738	11.27051
14.43066	-16.36935	11.27051
14.43485	-16.36935	11.27051
14.43904	-16.34738	11.27051
14.44323	-16.36935	11.27051
14.44742	-16.36935	11.27051
14.45161	-16.36935	11.27051
14.45592	-16.36935	11.27051
14.46012	-16.34738	11.27051
14.46431	-16.34738	11.27051
14.46850	-16.36935	11.27051
14.47268	-16.36935	11.27051
14.47701	-16.36935	11.27051
14.48120	-16.36935	11.27051
14.48560	-16.36935	11.27051
14.48981	-16.36935	11.27051
14.49400	-16.36935	11.27051
14.49819	-16.36935	11.27051
14.50238	-16.36935	11.27051
14.50657	-16.36935	11.27051
14.51075	-16.36935	11.27051
14.51505	-16.36935	11.27051
14.51932	-16.34738	11.27051
14.52351	-16.36935	11.27051
14.52770	-16.36935	11.27051
14.53188	-16.36935	11.27051
14.53607	-16.36935	11.27051
14.54025	-16.36935	11.27051
14.54450	-16.34738	11.27051
14.54878	-16.36935	11.27051
14.55300	-16.36935	11.27051
14.55719	-16.34738	11.27051
14.56137	-16.36935	11.27051
14.56556	-16.34738	11.27051
14.56974	-16.36935	11.27051
14.57393	-16.34738	11.27051
14.57833	-16.34738	11.27051
14.58253	-16.34738	11.27051
14.58672	-16.34738	11.27051
14.59091	-16.34738	11.27051
14.59509	-16.34738	11.27051
14.59928	-16.34738	11.27051
14.60346	-16.34738	11.27051
14.60784	-16.34738	11.27051
14.61205	-16.34738	11.27051
14.61624	-16.34738	11.27051
14.62042	-16.34738	11.27051
14.62461	-16.34738	11.27051
14.62880	-16.34738	11.27051
14.63299	-16.34738	11.27051
14.63730	-16.32541	11.27051
14.64155	-16.32541	11.27051
14.64575	-16.32541	11.27051
14.64994	-16.32541	11.27051
14.65412	-16.32541	11.27051
14.65832	-16.32541	11.27051
14.66251	-16.32541	11.27051
14.66680	-16.32541	11.27051
14.67108	-16.32541	11.27051
14.67528	-16.32541	11.27051
14.67957	-16.32541	11.27051
14.68376	-16.30343	11.27051
14.68795	-16.30343	11.27051
14.69213	-16.30343	11.27051
14.69632	-16.30343	11.27051
14.70062	-16.30343	11.27051
14.70482	-16.30343	11.27051
14.70902	-16.30343	11.27051
14.71320	-16.28146	11.27051
14.71739	-16.28146	11.27051
14.72158	-16.28146	11.27051
14.72576	-16.28146	11.27051
14.73014	-16.28146	11.27051
14.73436	-16.25949	11.27051
14.73854	-16.25949	11.27051
14.74273	-16.25949	11.27051
14.74692	-16.25949	11.27051
14.75110	-16.25949	11.27051
14.75529	-16.25949	11.27051
14.75958	-16.25949	11.27051
14.76383	-16.23752	11.27051
14.76803	-16.23752	11.27051
14.77222	-16.23752	11.27051
14.77640	-16.23752	11.27051
14.78069	-16.23752	11.27051
14.78489	-16.21554	11.27051
14.78914	-16.21554	11.27051
14.79342	-16.21554	11.27051
14.79761	-16.21554	11.27051
14.80180	-16.19357	11.27051
14.80599	-16.19357	11.27051
14.81017	-16.19357	11.27051
14.81436	-16.19357	11.27051
14.81854	-16.19357	11.27051
14.82284	-16.19357	11.27051
14.82704	-16.19357	11.27051
14.83122	-16.17160	11.27051
14.83541	-16.17160	11.27051
14.83960	-16.17160	11.27051
14.84378	-16.17160	11.27051
14.84797	-16.14963	11.27051
14.85234	-16.14963	11.27051
14.85654	-16.14963	11.27051
14.86073	-16.12765	11.27051
14.86492	-16.12765	11.27051
14.86906	-16.12765	11.27051
14.87325	-16.12765	11.27051
14.87744	-16.12765	11.27051
14.88186	-16.10568	11.27051
14.88611	-16.10568	11.27051
14.89030	-16.10568	11.27051
14.89449	-16.08371	11.27051
14.89867	-16.08371	11.27051
14.90286	-16.08371	11.27051
14.90704	-16.06173	11.27051
14.91129	-16.06173	11.27051
14.91557	-16.06173	11.27051
14.91978	-16.06173	11.27051
14.92396	-16.06173	11.27051
14.92815	-16.06173	11.27051
14.93233	-16.03976	11.27051
14.93652	-16.03976	11.27051
14.94070	-16.01779	11.27051
14.94502	-16.01779	11.27051
14.94922	-16.01779	11.27051
14.95341	-16.01779	11.27051
14.95760	-16.01779	11.27051
14.96178	-15.99582	11.27051
14.96597	-15.99582	11.27051
14.97015	-15.97384	11.27051
14.97455	-15.97384	11.27051
14.97876	-15.97384	11.27051
14.98313	-15.97384	11.27051
14.98735	-15.95187	11.27051
14.99154	-15.95187	11.27051
14.99573	-15.95187	11.27051
14.99992	-15.95187	11.27051
15.00479	-15.92990	6.73123
15.00901	-15.92990	6.73123
15.01320	-15.92990	6.73123
15.01739	-15.92990	6.73123
15.02157	-15.92990	6.73123
15.02575	-15.90793	6.73123
15.02993	-15.90793	6.73123
15.03420	-15.90793	6.73123
15.03847	-15.90793	6.73123
15.04267	-15.88595	6.73123
15.04685	-15.88595	6.73123
15.05104	-15.86398	6.73123
15.05523	-15.86398	6.73123
15.05941	-15.86398	6.73123
15.06359	-15.86398	6.73123
15.06789	-15.84201	6.73123
15.07209	-15.84201	6.73123
15.07628	-15.82004	6.73123
15.08046	-15.82004	6.73123
15.08465	-15.82004	6.73123
15.08913	-15.79806	6.73123
15.09336	-15.79806	6.73123
15.09793	-15.77609	6.73123
15.10217	-15.77609	6.73123
15.10650	-15.77609	6.73123
15.11070	-15.75412	6.73123
15.11489	-15.75412	6.73123
15.11910	-15.75412	6.73123
15.12329	-15.73214	6.73123
15.12759	-15.71017	6.73123
15.13188	-15.71017	6.73123
15.13608	-15.68820	6.73123
15.14028	-15.68820	6.73123
15.14447	-15.68820	6.73123
15.14866	-15.66623	6.73123
15.15286	-15.66623	6.73123
15.15712	-15.62228	6.73123
15.16141	-15.62228	6.73123
15.16561	-15.60031	6.73123
15.16981	-15.60031	6.73123
15.17400	-15.57834	6.73123
15.17819	-15.55636	6.73123
15.18238	-15.55636	6.73123
15.18656	-15.53439	6.73123
15.19089	-15.51242	6.73123
15.19510	-15.51242	6.73123
15.19928	-15.49045	6.73123
15.20347	-15.46847	6.73123
15.20776	-15.46847	6.73123
15.21195	-15.42453	6.73123
15.21613	-15.40256	6.73123
15.22054	-15.40256	6.73123
15.22475	-15.38058	6.73123
15.22894	-15.35861	6.73123
15.23313	-15.33664	6.73123
15.23731	-15.31466	6.73123
15.24150	-15.29269	6.73123
15.24568	-15.27072	6.73123
15.24994	-15.27072	6.73123
15.25421	-15.24875	6.73123
15.25841	-15.22677	6.73123
15.26260	-15.18283	6.73123
15.26679	-15.16086	6.73123
15.27097	-15.13888	6.73123
15.27516	-15.13888	6.73123
15.27941	-15.11691	6.73123
15.28369	-15.09494	6.73123
15.28789	-15.05099	6.73123
15.29209	-15.02902	6.73123
15.29628	-15.00705	6.73123
15.30047	-15.00705	6.73123
15.30466	-14.96310	6.73123
15.30896	-14.94113	6.73123
15.31326	-14.91916	6.73123
15.31747	-14.87521	6.73123
15.32165	-14.83127	6.73123
15.32584	-14.83127	6.73123
15.33002	-14.80929	6.73123
15.33421	-14.76535	6.73123
15.33839	-14.74338	6.73123
15.34281	-14.69943	6.73123
15.34701	-14.67746	6.73123
15.35119	-14.67746	6.73123
15.35538	-14.63351	6.73123
15.35957	-14.58957	6.73123
15.36375	-14.56759	6.73123
15.36794	-14.54562	6.73123
15.37220	-14.50168	6.73123
15.37648	-14.50168	6.73123
15.38067	-14.45773	6.73123
15.38487	-14.41379	6.73123
15.38908	-14.39181	6.73123
15.39327	-14.34787	6.73123
15.39746	-14.30392	6.73123
15.40172	-14.28195	6.73123
15.40600	-14.28195	6.73123
15.41032	-14.23800	6.73123
15.41450	-14.19406	6.73123
15.41869	-14.15011	6.73123
15.42288	-14.10617	6.73123
15.42706	-14.06222	6.73123
15.43125	-14.06222	6.73123
15.43555	-14.01828	6.73123
15.43977	-13.99631	6.73123
15.44396	-13.95236	6.73123
15.44815	-13.90841	6.73123
15.45234	-13.86447	6.73123
15.45653	-13.82052	6.73123
15.46071	-13.82052	6.73123
15.46516	-13.77658	6.73123
15.46937	-13.73263	6.73123
15.47356	-13.71066	6.73123
15.47774	-13.64474	6.73123
15.48193	-13.62277	6.73123
15.48611	-13.55685	6.73123
15.49033	-13.55685	6.73123
15.49461	-13.53488	6.73123
15.49888	-13.46896	6.73123
15.50308	-13.42502	6.73123
15.50727	-13.38107	6.73123
15.51156	-13.38107	6.73123
15.51574	-13.33713	6.73123
15.51992	-13.29318	6.73123
15.52418	-13.24923	6.73123
15.52846	-13.20529	6.73123
15.53266	-13.16134	6.73123
15.53684	-13.11740	6.73123
15.54104	-13.11740	6.73123
15.54522	-13.07345	6.73123
15.54941	-13.02951	6.73123
15.55359	-12.96359	6.73123
15.55789	-12.91964	6.73123
15.56208	-12.87570	6.73123
15.56627	-12.87570	6.73123
15.57045	-12.83175	6.73123
15.57464	-12.76584	6.73123
15.57882	-12.72189	6.73123
15.58300	-12.67795	6.73123
15.58741	-12.63400	6.73123
15.59165	-12.63400	6.73123
15.59584	-12.56808	6.73123
15.60002	-12.52414	6.73123
15.60421	-12.48019	6.73123
15.60839	-12.43625	6.73123
15.61268	-12.39230	6.73123
15.61696	-12.39230	6.73123
15.62122	-12.34836	6.73123
15.62541	-12.28244	6.73123
15.62960	-12.23849	6.73123
15.63378	-12.19455	6.73123
15.63797	-12.15060	6.73123
15.64215	-12.15060	6.73123
15.64639	-12.08468	6.73123
15.65067	-12.04074	6.73123
15.65487	-11.99679	6.73123
15.65905	-11.95285	6.73123
15.66324	-11.88693	6.73123
15.66742	-11.84298	6.73123
15.67160	-11.84298	6.73123
15.67579	-11.79904	6.73123
15.68008	-11.75509	6.73123
15.68428	-11.68918	6.73123
15.68847	-11.64523	6.73123
15.69268	-11.64523	6.73123
15.69687	-11.60129	6.73123
15.70106	-11.55734	6.73123
15.70525	-11.51339	6.73123
15.70967	-11.44748	6.73123
15.71398	-11.40353	6.73123
15.71816	-11.35959	6.73123
15.72235	-11.35959	6.73123
15.72654	-11.29367	6.73123
15.73073	-11.24972	6.73123
15.73491	-11.20578	6.73123
15.73917	-11.16183	6.73123
15.74344	-11.09591	6.73123
15.74763	-11.05197	6.73123
15.75182	-11.05197	6.73123
15.75600	-11.00802	6.73123
15.76025	-10.96408	6.73123
15.76444	-10.92013	6.73123
15.76868	-10.85422	6.73123
15.77298	-10.81027	6.73123
15.77718	-10.81027	6.73123
15.78136	-10.76632	6.73123
15.78555	-10.72238	6.73123
15.78975	-10.67843	6.73123
15.79394	-10.61252	6.73123
15.79812	-10.56857	6.73123
15.80242	-10.56857	6.73123
15.80661	-10.52463	6.73123
15.81080	-10.45871	6.73123
15.81509	-10.41476	6.73123
15.81927	-10.37082	6.73123
15.82346	-10.32687	6.73123
15.82764	-10.32687	6.73123
15.83204	-10.28293	6.73123
15.83625	-10.21701	6.73123
15.84043	-10.17306	6.73123
15.84462	-10.12912	6.73123
15.84880	-10.08517	6.73123
15.85299	-10.08517	6.73123
15.85718	-10.01925	6.73123
15.86144	-9.97531	6.73123
15.86570	-9.93136	6.73123
15.86989	-9.88742	6.73123
15.87407	-9.84347	6.73123
15.87825	-9.84347	6.73123
15.88244	-9.79953	6.73123
15.88662	-9.75558	6.73123
15.89089	-9.71164	6.73123
15.89518	-9.66769	6.73123
15.89938	-9.60177	6.73123
15.90357	-9.60177	6.73123
15.90775	-9.55783	6.73123
15.91193	-9.53586	6.73123
15.91622	-9.49191	6.73123
15.92040	-9.44797	6.73123
15.92469	-9.40402	6.73123
15.92889	-9.33810	6.73123
15.93306	-9.33810	6.73123
15.93725	-9.29416	6.73123
15.94143	-9.27218	6.73123
15.94561	-9.20627	6.73123
15.94979	-9.16232	6.73123
15.95420	-9.14035	6.73123
15.95840	-9.09640	6.73123
15.96259	-9.09640	6.73123
15.96677	-9.05246	6.73123
15.97096	-9.00851	6.73123
15.97514	-8.96457	6.73123
15.97932	-8.92062	6.73123
15.98359	-8.92062	6.73123
15.98786	-8.89865	6.73123
15.99208	-8.85470	6.73123
15.99628	-8.81076	6.73123
16.00047	-8.76681	6.73123
16.00466	-8.74484	6.73123
16.00884	-8.70089	6.73123
16.01324	-8.70089	6.73123
16.01766	-8.65695	6.73123
16.02185	-8.61300	6.73123
16.02604	-8.59103	6.73123
16.03023	-8.54709	6.73123
16.03442	-8.50314	6.73123
16.03860	-8.48117	6.73123
16.04279	-8.48117	6.73123
16.04708	-8.45920	6.73123
16.05130	-8.41525	6.73123
16.05549	-8.37131	6.73123
16.05967	-8.34933	6.73123
16.06386	-8.30539	6.73123
16.06804	-8.30539	6.73123
16.07223	-8.26144	6.73123
16.07663	-8.23947	6.73123
16.08084	-8.19552	6.73123
16.08503	-8.17355	6.73123
16.08922	-8.17355	6.73123
16.09341	-8.15158	6.73123
16.09759	-8.10763	6.73123
16.10177	-8.08566	6.73123
16.10605	-8.04172	6.73123
16.11030	-8.01974	6.73123
16.11449	-8.01974	6.73123
16.11879	-7.99777	6.73123
16.12297	-7.95382	6.73123
16.12715	-7.93185	6.73123
16.13134	-7.90988	6.73123
16.13559	-7.86593	6.73123
16.13986	-7.84396	6.73123
16.14406	-7.84396	6.73123
16.14825	-7.82199	6.73123
16.15243	-7.77804	6.73123
16.15661	-7.77804	6.73123
16.16080	-7.73410	6.73123
16.16499	-7.71213	6.73123
16.16929	-7.69015	6.73123
16.17349	-7.69015	6.73123
16.17768	-7.66818	6.73123
16.18186	-7.64621	6.73123
16.18604	-7.62423	6.73123
16.19023	-7.58029	6.73123
16.19441	-7.58029	6.73123
16.19881	-7.58029	6.73123
16.20302	-7.55832	6.73123
16.20721	-7.51437	6.73123
16.21139	-7.51437	6.73123
16.21560	-7.49240	6.73123
16.21990	-7.47043	6.73123
16.22409	-7.47043	6.73123
16.22836	-7.44845	6.73123
16.23262	-7.42648	6.73123
16.23682	-7.40451	6.73123
16.24103	-7.38254	6.73123
16.24522	-7.38254	6.73123
16.24942	-7.36056	6.73123
16.25361	-7.36056	6.73123
16.25786	-7.33859	6.73123
16.26213	-7.31662	6.73123
16.26634	-7.31662	6.73123
16.27053	-7.29464	6.73123
16.27471	-7.27267	6.73123
16.27889	-7.27267	6.73123
16.28308	-7.25070	6.73123
16.28726	-7.25070	6.73123
16.29156	-7.22873	6.73123
16.29576	-7.22873	6.73123
16.29995	-7.20675	6.73123
16.30413	-7.20675	6.73123
16.30832	-7.20675	6.73123
16.31250	-7.18478	6.73123
16.31668	-7.18478	6.73123
16.32121	-7.16281	6.73123
16.32540	-7.16281	6.73123
16.32959	-7.16281	6.73123
16.33378	-7.16281	6.73123
16.33797	-7.14084	6.73123
16.34215	-7.11886	6.73123
16.34634	-7.11886	6.73123
16.35061	-7.11886	6.73123
16.35488	-7.11886	6.73123
16.35910	-7.11886	6.73123
16.36330	-7.09689	6.73123
16.36750	-7.09689	6.73123
16.37169	-7.09689	6.73123
16.37588	-7.09689	6.73123
16.38016	-7.07492	6.73123
16.38444	-7.07492	6.73123
16.38864	-7.07492	6.73123
16.39283	-7.07492	6.73123
16.39703	-7.07492	6.73123
16.40121	-7.07492	6.73123
16.40540	-7.07492	6.73123
16.40958	-7.07492	6.73123
16.41388	-7.05295	6.73123
16.41810	-7.07492	6.73123
16.42239	-7.05295	6.73123
16.42657	-7.07492	6.73123
16.43076	-7.07492	6.73123
16.43494	-7.07492	6.73123
16.43913	-7.05295	6.73123
16.44355	-7.07492	6.73123
16.44777	-7.07492	6.73123
16.45197	-7.07492	6.73123
16.45616	-7.07492	6.73123
16.46034	-7.07492	6.73123
16.46452	-7.07492	6.73123
16.46871	-7.07492	6.73123
16.47300	-7.07492	6.73123
16.47727	-7.07492	6.73123
16.48146	-7.09689	6.73123
16.48565	-7.09689	6.73123
16.48984	-7.09689	6.73123
16.49403	-7.09689	6.73123
16.49821	-7.09689	6.73123
16.50249	-7.11886	6.73123
16.50677	-7.11886	6.73123
16.51096	-7.11886	6.73123
16.51515	-7.11886	6.73123
16.51934	-7.11886	6.73123
16.52363	-7.14084	6.73123
16.52782	-7.16281	6.73123
16.53200	-7.14084	6.73123
16.53633	-7.16281	6.73123
16.54054	-7.16281	6.73123
16.54473	-7.18478	6.73123
16.54892	-7.18478	6.73123
16.55307	-7.20675	6.73123
16.55725	-7.20675	6.73123
16.56144	-7.22873	6.73123
16.56584	-7.22873	6.73123
16.57005	-7.22873	6.73123
16.57424	-7.22873	6.73123
16.57843	-7.25070	6.73123
16.58262	-7.27267	6.73123
16.58681	-7.27267	6.73123
16.59099	-7.27267	6.73123
16.59526	-7.29464	6.73123
16.59953	-7.31662	6.73123
16.60373	-7.31662	6.73123
16.60791	-7.33859	6.73123
16.61209	-7.33859	6.73123
16.61629	-7.33859	6.73123
16.62047	-7.36056	6.73123
16.62483	-7.38254	6.73123
16.62917	-7.38254	6.73123
16.63337	-7.40451	6.73123
16.63756	-7.42648	6.73123
16.64175	-7.44845	6.73123
16.64593	-7.44845	6.73123
16.65012	-7.47043	6.73123
16.65430	-7.47043	6.73123
16.65859	-7.49240	6.73123
16.66279	-7.51437	6.73123
16.66698	-7.53634	6.73123
16.67117	-7.53634	6.73123
16.67535	-7.55832	6.73123
16.67954	-7.55832	6.73123
16.68372	-7.58029	6.73123
16.68811	-7.60226	6.73123
16.69232	-7.62423	6.73123
16.69650	-7.62423	6.73123
16.70069	-7.64621	6.73123
16.70489	-7.66818	6.73123
16.70906	-7.69015	6.73123
16.71325	-7.71213	6.73123
16.71752	-7.73410	6.73123
16.72178	-7.75607	6.73123
16.72608	-7.75607	6.73123
16.73026	-7.77804	6.73123
16.73444	-7.80002	6.73123
16.73863	-7.82199	6.73123
16.74281	-7.84396	6.73123
16.74706	-7.86593	6.73123
16.75134	-7.86593	6.73123
16.75553	-7.88791	6.73123
16.75972	-7.90988	6.73123
16.76390	-7.93185	6.73123
16.76808	-7.95382	6.73123
16.77226	-7.97580	6.73123
16.77645	-7.99777	6.73123
16.78074	-7.99777	6.73123
16.78495	-8.01974	6.73123
16.78914	-8.04172	6.73123
16.79332	-8.08566	6.73123
16.79751	-8.10763	6.73123
16.80169	-8.10763	6.73123
16.80587	-8.12961	6.73123
16.81027	-8.15158	6.73123
16.81447	-8.17355	6.73123
16.81866	-8.21750	6.73123
16.82288	-8.23947	6.73123
16.82718	-8.26144	6.73123
16.83136	-8.26144	6.73123
16.83555	-8.28341	6.73123
16.83982	-8.30539	6.73123
16.84408	-8.32736	6.73123
16.84827	-8.34933	6.73123
16.85245	-8.39328	6.73123
16.85664	-8.39328	6.73123
16.86082	-8.41525	6.73123
16.86501	-8.43722	6.73123
16.86926	-8.48117	6.73123
16.87354	-8.50314	6.73123
16.87774	-8.50314	6.73123
16.88192	-8.52511	6.73123
16.88611	-8.54709	6.73123
16.89029	-8.59103	6.73123
16.89447	-8.61300	6.73123
16.89866	-8.63498	6.73123
16.90296	-8.65695	6.73123
16.90716	-8.65695	6.73123
16.91134	-8.70089	6.73123
16.91553	-8.72287	6.73123
16.91971	-8.74484	6.73123
16.92390	-8.76681	6.73123
16.92818	-8.81076	6.73123
16.93257	-8.83273	6.73123
16.93679	-8.83273	6.73123
16.94099	-8.85470	6.73123
16.94517	-8.89865	6.73123
16.94937	-8.92062	6.73123
16.95356	-8.94259	6.73123
16.95774	-8.96457	6.73123
16.96201	-8.96457	6.73123
16.96628	-9.00851	6.73123
16.97047	-9.03048	6.73123
16.97466	-9.05246	6.73123
16.97884	-9.07443	6.73123
16.98303	-9.11838	6.73123
16.98721	-9.11838	6.73123
16.99147	-9.14035	6.73123
16.99575	-9.16232	6.73123
16.99996	-9.20627	6.73123
17.00414	-9.22824	6.73123
17.00833	-9.27218	6.73123
17.01253	-9.27218	6.73123
17.01673	-9.29416	6.73123
17.02091	-9.31613	6.73123
17.02519	-9.36007	6.73123
17.02950	-9.38205	6.73123
17.03370	-9.40402	6.73123
17.03789	-9.42599	6.73123
17.04207	-9.42599	6.73123
17.04626	-9.46994	6.73123
17.05044	-9.49191	6.73123
17.05485	-9.51388	6.73123
17.05906	-9.53586	6.73123
17.06325	-9.57980	6.73123
17.06743	-9.60177	6.73123
17.07162	-9.60177	6.73123
17.07580	-9.62375	6.73123
17.07999	-9.64572	6.73123
17.08428	-9.68966	6.73123
17.08855	-9.71164	6.73123
17.09275	-9.71164	6.73123
17.09694	-9.73361	6.73123
17.10113	-9.77756	6.73123
17.10532	-9.79953	6.73123
17.10951	-9.82150	6.73123
17.11376	-9.84347	6.73123
17.11804	-9.84347	6.73123
17.12223	-9.86545	6.73123
17.12642	-9.90939	6.73123
17.13071	-9.93136	6.73123
17.13489	-9.95334	6.73123
17.13908	-9.97531	6.73123
17.14326	-9.97531	6.73123
17.14756	-10.01925	6.73123
17.15177	-10.04123	6.73123
17.15597	-10.06320	6.73123
17.16015	-10.08517	6.73123
17.16434	-10.10714	6.73123
17.16852	-10.10714	6.73123
17.17271	-10.15109	6.73123
17.17711	-10.17306	6.73123
17.18132	-10.19504	6.73123
17.18551	-10.21701	6.73123
17.18969	-10.23898	6.73123
17.19388	-10.26095	6.73123
17.19806	-10.26095	6.73123
17.20225	-10.28293	6.73123
17.20654	-10.30490	6.73123
17.21079	-10.32687	6.73123
17.21503	-10.37082	6.73123
17.21923	-10.37082	6.73123
17.22342	-10.37082	6.73123
17.22760	-10.41476	6.73123
17.23189	-10.43673	6.73123
17.23617	-10.45871	6.73123
17.24045	-10.45871	6.73123
17.24465	-10.48068	6.73123
17.24884	-10.50265	6.73123
17.25304	-10.50265	6.73123
17.25723	-10.52463	6.73123
17.26142	-10.56857	6.73123
17.26560	-10.59054	6.73123
17.26991	-10.61252	6.73123
17.27411	-10.63449	6.73123
17.27830	-10.63449	6.73123
17.28248	-10.63449	6.73123
17.28667	-10.65646	6.73123
17.29086	-10.67843	6.73123
17.29504	-10.70041	6.73123
17.29945	-10.72238	6.73123
17.30366	-10.72238	6.73123
17.30785	-10.74435	6.73123
17.31204	-10.76632	6.73123
17.31623	-10.78830	6.73123
17.32041	-10.78830	6.73123
17.32460	-10.81027	6.73123
17.32887	-10.83224	6.73123
17.33326	-10.83224	6.73123
17.33746	-10.85422	6.73123
17.34165	-10.87619	6.73123
17.34583	-10.87619	6.73123
17.35002	-10.89816	6.73123
17.35421	-10.92013	6.73123
17.35849	-10.92013	6.73123
17.36278	-10.92013	6.73123
17.36699	-10.94211	6.73123
17.37119	-10.96408	6.73123
17.37537	-10.98605	6.73123
17.37956	-10.98605	6.73123
17.38374	-11.00802	6.73123
17.38793	-11.00802	6.73123
17.39223	-11.03000	6.73123
17.39644	-11.05197	6.73123
17.40063	-11.05197	6.73123
17.40482	-11.05197	6.73123
17.40902	-11.05197	6.73123
17.41321	-11.07394	6.73123
17.41740	-11.07394	6.73123
17.42192	-11.09591	6.73123
17.42617	-11.11789	6.73123
17.43037	-11.11789	6.73123
17.43467	-11.11789	6.73123
17.43886	-11.13986	6.73123
17.44305	-11.13986	6.73123
17.44725	-11.16183	6.73123
17.45153	-11.16183	6.73123
17.45580	-11.18381	6.73123
17.45999	-11.18381	6.73123
17.46418	-11.18381	6.73123
17.46837	-11.20578	6.73123
17.47256	-11.20578	6.73123
17.47674	-11.20578	6.73123
17.48103	-11.22775	6.73123
17.48532	-11.22775	6.73123
17.48952	-11.22775	6.73123
17.49370	-11.22775	6.73123
17.49789	-11.24972	6.73123
17.50208	-11.24972	6.73123
17.50627	-11.24972	6.73123
17.51045	-11.27170	6.73123
17.51475	-11.27170	6.73123
17.51897	-11.27170	6.73123
17.52315	-11.27170	6.73123
17.52734	-11.27170	6.73123
17.53153	-11.29367	6.73123
17.53582	-11.29367	6.73123
17.54000	-11.29367	6.73123
17.54440	-11.31564	6.73123
17.54861	-11.31564	6.73123
17.55280	-11.31564	6.73123
17.55700	-11.31564	6.73123
17.56118	-11.31564	6.73123
17.56537	-11.31564	6.73123
17.56956	-11.31564	6.73123
17.57383	-11.31564	6.73123
17.57809	-11.33761	6.73123
17.58229	-11.33761	6.73123
17.58648	-11.33761	6.73123
17.59066	-11.33761	6.73123
17.59485	-11.33761	6.73123
17.59903	-11.33761	6.73123
17.60329	-11.33761	6.73123
17.60756	-11.33761	6.73123
17.61176	-11.33761	6.73123
17.61595	-11.33761	6.73123
17.62014	-11.33761	6.73123
17.62432	-11.33761	6.73123
17.62851	-11.33761	6.73123
17.63269	-11.33761	6.73123
17.63711	-11.33761	6.73123
17.64131	-11.33761	6.73123
17.64550	-11.33761	6.73123
17.64969	-11.33761	6.73123
17.65387	-11.31564	6.73123
17.65806	-11.31564	6.73123
17.66224	-11.31564	6.73123
17.66664	-11.31564	6.73123
17.67084	-11.33761	6.73123
17.67503	-11.33761	6.73123
17.67921	-11.31564	6.73123
17.68340	-11.31564	6.73123
17.68759	-11.31564	6.73123
17.69177	-11.29367	6.73123
17.69605	-11.29367	6.73123
17.70031	-11.29367	6.73123
17.70454	-11.29367	6.73123
17.70874	-11.27170	6.73123
17.71293	-11.27170	6.73123
17.71713	-11.27170	6.73123
17.72131	-11.24972	6.73123
17.72557	-11.24972	6.73123
17.72985	-11.24972	6.73123
17.73406	-11.24972	6.73123
17.73835	-11.22775	6.73123
17.74253	-11.22775	6.73123
17.74672	-11.22775	6.73123
17.75090	-11.20578	6.73123
17.75509	-11.20578	6.73123
17.75938	-11.20578	6.73123
17.76359	-11.20578	6.73123
17.76778	-11.18381	6.73123
17.77196	-11.18381	6.73123
17.77615	-11.16183	6.73123
17.78033	-11.16183	6.73123
17.78452	-11.16183	6.73123
17.78890	-11.13986	6.73123
17.79309	-11.13986	6.73123
17.79727	-11.11789	6.73123
17.80146	-11.11789	6.73123
17.80565	-11.09591	6.73123
17.80984	-11.09591	6.73123
17.81402	-11.09591	6.73123
17.81829	-11.07394	6.73123
17.82256	-11.07394	6.73123
17.82676	-11.05197	6.73123
17.83095	-11.03000	6.73123
17.83514	-11.03000	6.73123
17.83944	-11.00802	6.73123
17.84363	-11.00802	6.73123
17.84789	-10.98605	6.73123
17.85218	-10.98605	6.73123
17.85638	-10.96408	6.73123
17.86057	-10.96408	6.73123
17.86475	-10.94211	6.73123
17.86894	-10.94211	6.73123
17.87313	-10.92013	6.73123
17.87731	-10.89816	6.73123
17.88161	-10.89816	6.73123
17.88582	-10.89816	6.73123
17.89000	-10.87619	6.73123
17.89419	-10.85422	6.73123
17.89837	-10.85422	6.73123
17.90256	-10.83224	6.73123
17.90674	-10.83224	6.73123
17.91114	-10.81027	6.73123
17.91534	-10.78830	6.73123
17.91953	-10.78830	6.73123
17.92372	-10.76632	6.73123
17.92790	-10.74435	6.73123
17.93209	-10.72238	6.73123
17.93627	-10.72238	6.73123
17.94068	-10.72238	6.73123
17.94495	-10.70041	6.73123
17.94915	-10.67843	6.73123
17.95334	-10.65646	6.73123
17.95752	-10.63449	6.73123
17.96170	-10.63449	6.73123
17.96589	-10.63449	6.73123
17.97014	-10.61252	6.73123
17.97442	-10.59054	6.73123
17.97862	-10.56857	6.73123
17.98281	-10.56857	6.73123
17.98699	-10.54660	6.73123
17.99118	-10.54660	6.73123
17.99536	-10.52463	6.73123
17.99955	-10.50265	6.73123
18.00385	-10.50265	6.73123
18.00805	-10.48068	6.73123
18.01224	-10.45871	6.73123
18.01643	-10.45871	6.73123
18.02062	-10.43673	6.73123
18.02480	-10.41476	6.73123
18.02899	-10.39279	6.73123
18.03345	-10.37082	6.73123
18.03766	-10.34884	6.73123
18.04196	-10.34884	6.73123
18.04614	-10.34884	6.73123
18.05037	-10.32687	6.73123
18.05456	-10.30490	6.73123
18.05875	-10.28293	6.73123
18.06303	-10.26095	6.73123
18.06731	-10.26095	6.73123
18.07151	-10.26095	6.73123
18.07570	-10.23898	6.73123
18.07989	-10.21701	6.73123
18.08409	-10.19504	6.73123
18.08828	-10.17306	6.73123
18.09253	-10.17306	6.73123
18.09682	-10.15109	6.73123
18.10104	-10.15109	6.73123
18.10522	-10.12912	6.73123
18.10941	-10.10714	6.73123
18.11359	-10.08517	6.73123
18.11778	-10.06320	6.73123
18.12196	-10.06320	6.73123
18.12626	-10.04123	6.73123
18.13046	-10.01925	6.73123
18.13465	-9.99728	6.73123
18.13883	-9.99728	6.73123
18.14312	-9.97531	6.73123
18.14731	-9.97531	6.73123
18.15149	-9.95334	6.73123
18.15593	-9.93136	6.73123
18.16013	-9.90939	6.73123
18.16431	-9.88742	6.73123
18.16850	-9.88742	6.73123
18.17268	-9.86545	6.73123
18.17687	-9.86545	6.73123
18.18106	-9.84347	6.73123
18.18532	-9.82150	6.73123
18.18960	-9.79953	6.73123
18.19380	-9.77756	6.73123
18.19798	-9.77756	6.73123
18.20217	-9.77756	6.73123
18.20636	-9.75558	6.73123
18.21054	-9.73361	6.73123
18.21479	-9.71164	6.73123
18.21911	-9.71164	6.73123
18.22331	-9.68966	6.73123
18.22750	-9.68966	6.73123
18.23168	-9.66769	6.73123
18.23588	-9.64572	6.73123
18.24007	-9.62375	6.73123
18.24436	-9.60177	6.73123
18.24867	-9.60177	6.73123
18.25289	-9.60177	6.73123
18.25707	-9.57980	6.73123
18.26126	-9.55783	6.73123
18.26544	-9.53586	6.73123
18.26963	-9.53586	6.73123
18.27381	-9.49191	6.73123
18.27824	-9.49191	6.73123
18.28246	-9.49191	6.73123
18.28664	-9.46994	6.73123
18.29083	-9.44797	6.73123
18.29501	-9.44797	6.73123
18.29920	-9.40402	6.73123
18.30338	-9.40402	6.73123
18.30764	-9.38205	6.73123
18.31190	-9.38205	6.73123
18.31610	-9.36007	6.73123
18.32029	-9.36007	6.73123
18.32447	-9.33810	6.73123
18.32866	-9.31613	6.73123
18.33284	-9.31613	6.73123
18.33710	-9.29416	6.73123
18.34138	-9.29416	6.73123
18.34568	-9.27218	6.73123
18.34987	-9.25021	6.73123
18.35405	-9.22824	6.73123
18.35824	-9.22824	6.73123
18.36243	-9.22824	6.73123
18.36661	-9.20627	6.73123
18.37091	-9.18429	6.73123
18.37511	-9.18429	6.73123
18.37930	-9.16232	6.73123
18.38349	-9.14035	6.73123
18.38767	-9.14035	6.73123
18.39186	-9.11838	6.73123
18.39604	-9.09640	6.73123
18.40047	-9.09640	6.73123
18.40467	-9.07443	6.73123
18.40886	-9.05246	6.73123
18.41305	-9.05246	6.73123
18.41724	-9.05246	6.73123
18.42145	-9.03048	6.73123
18.42564	-9.00851	6.73123
18.42991	-9.00851	6.73123
18.43418	-8.98654	6.73123
18.43837	-8.98654	6.73123
18.44256	-8.96457	6.73123
18.44685	-8.96457	6.73123
18.45104	-8.94259	6.73123
18.45523	-8.94259	6.73123
18.45951	-8.92062	6.73123
18.46379	-8.92062	6.73123
18.46800	-8.89865	6.73123
18.47219	-8.89865	6.73123
18.47637	-8.89865	6.73123
18.48055	-8.85470	6.73123
18.48474	-8.85470	6.73123
18.48893	-8.83273	6.73123
18.49324	-8.83273	6.73123
18.49743	-8.83273	6.73123
18.50162	-8.83273	6.73123
18.50581	-8.81076	6.73123
18.51000	-8.78879	6.73123
18.51418	-8.78879	6.73123
18.51837	-8.76681	6.73123
18.52279	-8.76681	6.73123
18.52700	-8.76681	6.73123
18.53118	-8.74484	6.73123
18.53537	-8.72287	6.73123
18.53955	-8.72287	6.73123
18.54374	-8.72287	6.73123
18.54803	-8.70089	6.73123
18.55229	-8.70089	6.73123
18.55655	-8.70089	6.73123
18.56075	-8.70089	6.73123
18.56494	-8.67892	6.73123
18.56913	-8.65695	6.73123
18.57330	-8.65695	6.73123
18.57749	-8.65695	6.73123
18.58174	-8.63498	6.73123
18.58603	-8.63498	6.73123
18.59023	-8.63498	6.73123
18.59441	-8.61300	6.73123
18.59860	-8.61300	6.73123
18.60279	-8.61300	6.73123
18.60698	-8.61300	6.73123
18.61116	-8.61300	6.73123
18.61547	-8.56906	6.73123
18.61968	-8.59103	6.73123
18.62387	-8.56906	6.73123
18.62805	-8.56906	6.73123
18.63224	-8.56906	6.73123
18.63642	-8.56906	6.73123
18.64061	-8.54709	6.73123
18.64503	-8.54709	6.73123
18.64934	-8.54709	6.73123
18.65353	-8.54709	6.73123
18.65772	-8.52511	6.73123
18.66191	-8.52511	6.73123
18.66610	-8.52511	6.73123
18.67028	-8.52511	6.73123
18.67454	-8.52511	6.73123
18.67880	-8.50314	6.73123
18.68300	-8.52511	6.73123
18.68719	-8.50314	6.73123
18.69138	-8.50314	6.73123
18.69556	-8.50314	6.73123
18.69975	-8.50314	6.73123
18.70401	-8.50314	6.73123
18.70828	-8.50314	6.73123
18.71248	-8.50314	6.73123
18.71667	-8.50314	6.73123
18.72085	-8.50314	6.73123
18.72504	-8.48117	6.73123
18.72923	-8.48117	6.73123
18.73342	-8.48117	6.73123
18.73771	-8.48117	6.73123
18.74191	-8.48117	6.73123
18.74610	-8.48117	6.73123
18.75039	-8.48117	6.73123
18.75458	-8.48117	6.73123
18.75876	-8.48117	6.73123
18.76295	-8.48117	6.73123
18.76734	-8.48117	6.73123
18.77155	-8.48117	6.73123
18.77574	-8.50314	6.73123
18.77992	-8.50314	6.73123
18.78411	-8.50314	6.73123
18.78830	-8.50314	6.73123
18.79249	-8.50314	6.73123
18.79677	-8.50314	6.73123
18.80104	-8.50314	6.73123
18.80523	-8.50314	6.73123
18.80942	-8.50314	6.73123
18.81360	-8.50314	6.73123
18.81780	-8.50314	6.73123
18.82198	-8.52511	6.73123
18.82624	-8.52511	6.73123
18.83052	-8.52511	6.73123
18.83473	-8.52511	6.73123
18.83892	-8.52511	6.73123
18.84310	-8.54709	6.73123
18.84729	-8.54709	6.73123
18.85158	-8.54709	6.73123
18.85576	-8.56906	6.73123
18.86006	-8.56906	6.73123
18.86426	-8.56906	6.73123
18.86846	-8.56906	6.73123
18.87264	-8.59103	6.73123
18.87683	-8.59103	6.73123
18.88102	-8.61300	6.73123
18.88521	-8.61300	6.73123
18.88959	-8.61300	6.73123
18.89381	-8.61300	6.73123
18.89799	-8.63498	6.73123
18.90218	-8.63498	6.73123
18.90636	-8.65695	6.73123
18.91055	-8.65695	6.73123
18.91473	-8.65695	6.73123
18.91902	-8.67892	6.73123
18.92327	-8.67892	6.73123
18.92746	-8.67892	6.73123
18.93165	-8.70089	6.73123
18.93584	-8.70089	6.73123
18.94002	-8.72287	6.73123
18.94421	-8.72287	6.73123
18.94847	-8.74484	6.73123
18.95285	-8.74484	6.73123
18.95706	-8.76681	6.73123
18.96125	-8.76681	6.73123
18.96544	-8.76681	6.73123
18.96963	-8.78879	6.73123
18.97381	-8.78879	6.73123
18.97803	-8.81076	6.73123
18.98233	-8.83273	6.73123
18.98654	-8.83273	6.73123
18.99073	-8.85470	6.73123
18.99492	-8.85470	6.73123
18.99910	-8.85470	6.73123
19.00329	-8.87668	6.73123
19.00748	-8.89865	6.73123
19.01188	-8.89865	6.73123
19.01610	-8.92062	6.73123
19.02030	-8.92062	6.73123
19.02449	-8.94259	6.73123
19.02867	-8.94259	6.73123
19.03286	-8.96457	6.73123
19.03705	-8.96457	6.73123
19.04133	-8.98654	6.73123
19.04558	-8.98654	6.73123
19.04978	-9.00851	6.73123
19.05407	-9.03048	6.73123
19.05826	-9.03048	6.73123
19.06244	-9.05246	6.73123
19.06663	-9.07443	6.73123
19.07088	-9.07443	6.73123
19.07515	-9.07443	6.73123
19.07935	-9.09640	6.73123
19.08354	-9.11838	6.73123
19.08773	-9.11838	6.73123
19.09320	-9.14035	6.73123
19.09743	-9.16232	6.73123
19.10171	-9.18429	6.73123
19.10605	-9.18429	6.73123
19.11027	-9.20627	6.73123
19.11446	-9.20627	6.73123
19.11867	-9.22824	6.73123
19.12287	-9.25021	6.73123
19.12707	-9.25021	6.73123
19.13126	-9.27218	6.73123
19.13561	-9.27218	6.73123
19.13983	-9.29416	6.73123
19.14402	-9.29416	6.73123
19.14821	-9.31613	6.73123
19.15242	-9.33810	6.73123
19.15674	-9.36007	6.73123
19.16094	-9.36007	6.73123
19.16545	-9.38205	6.73123
19.16966	-9.38205	6.73123
19.17385	-9.40402	6.73123
19.17804	-9.42599	6.73123
19.18223	-9.44797	6.73123
19.18642	-9.44797	6.73123
19.19060	-9.46994	6.73123
19.19488	-9.49191	6.73123
19.19914	-9.49191	6.73123
19.20334	-9.51388	6.73123
19.20753	-9.53586	6.73123
19.21172	-9.55783	6.73123
19.21591	-9.55783	6.73123
19.22011	-9.55783	6.73123
19.22437	-9.57980	6.73123
19.22866	-9.62375	6.73123
19.23286	-9.62375	6.73123
19.23706	-9.64572	6.73123
19.24125	-9.64572	6.73123
19.24543	-9.66769	6.73123
19.24962	-9.68966	6.73123
19.25380	-9.68966	6.73123
19.25820	-9.73361	6.73123
19.26240	-9.73361	6.73123
19.26660	-9.73361	6.73123
19.27078	-9.75558	6.73123
19.27497	-9.77756	6.73123
19.27915	-9.79953	6.73123
19.28334	-9.79953	6.73123
19.28772	-9.82150	6.73123
19.29193	-9.84347	6.73123
19.29612	-9.84347	6.73123
19.30031	-9.86545	6.73123
19.30450	-9.88742	6.73123
19.30868	-9.90939	6.73123
19.31287	-9.93136	6.73123
19.31719	-9.95334	6.73123
19.32145	-9.95334	6.73123
19.32565	-9.95334	6.73123
19.32983	-9.97531	6.73123
19.33402	-9.99728	6.73123
19.33821	-10.01925	6.73123
19.34239	-10.04123	6.73123
19.34664	-10.04123	6.73123
19.35091	-10.04123	6.73123
19.35511	-10.06320	6.73123
19.35941	-10.08517	6.73123
19.36359	-10.10714	6.73123
19.36778	-10.12912	6.73123
19.37196	-10.15109	6.73123
19.37615	-10.15109	6.73123
19.38044	-10.15109	6.73123
19.38466	-10.17306	6.73123
19.38885	-10.19504	6.73123
19.39304	-10.21701	6.73123
19.39723	-10.23898	6.73123
19.40141	-10.23898	6.73123
19.40560	-10.23898	6.73123
19.41000	-10.26095	6.73123
19.41421	-10.28293	6.73123
19.41840	-10.30490	6.73123
19.42259	-10.30490	6.73123
19.42678	-10.30490	6.73123
19.43096	-10.32687	6.73123
19.43515	-10.32687	6.73123
19.43942	-10.37082	6.73123
19.44367	-10.39279	6.73123
19.44787	-10.39279	6.73123
19.45207	-10.39279	6.73123
19.45626	-10.39279	6.73123
19.46055	-10.41476	6.73123
19.46474	-10.43673	6.73123
19.46903	-10.43673	6.73123
19.47331	-10.45871	6.73123
19.47751	-10.45871	6.73123
19.48170	-10.48068	6.73123
19.48590	-10.48068	6.73123
19.49008	-10.50265	6.73123
19.49427	-10.52463	6.73123
19.49846	-10.52463	6.73123
19.50276	-10.52463	6.73123
19.50696	-10.52463	6.73123
19.51115	-10.54660	6.73123
19.51534	-10.56857	6.73123
19.51953	-10.56857	6.73123
19.52372	-10.59054	6.73123
19.52791	-10.59054	6.73123
19.53231	-10.61252	6.73123
19.53652	-10.61252	6.73123
19.54071	-10.61252	6.73123
19.54489	-10.63449	6.73123
19.54907	-10.65646	6.73123
19.55326	-10.65646	6.73123
19.55744	-10.65646	6.73123
19.56183	-10.65646	6.73123
19.56609	-10.67843	6.73123
19.57029	-10.70041	6.73123
19.57449	-10.72238	6.73123
19.57867	-10.72238	6.73123
19.58286	-10.72238	6.73123
19.58704	-10.72238	6.73123
19.59129	-10.72238	6.73123
19.59557	-10.74435	6.73123
19.59979	-10.74435	6.73123
19.60398	-10.76632	6.73123
19.60817	-10.76632	6.73123
19.61235	-10.76632	6.73123
19.61654	-10.78830	6.73123
19.62072	-10.78830	6.73123
19.62503	-10.81027	6.73123
19.62924	-10.81027	6.73123
19.63343	-10.81027	6.73123
19.63761	-10.81027	6.73123
19.64180	-10.83224	6.73123
19.64598	-10.83224	6.73123
19.65017	-10.83224	6.73123
19.65459	-10.85422	6.73123
19.65880	-10.85422	6.73123
19.66308	-10.85422	6.73123
19.66727	-10.87619	6.73123
19.67145	-10.87619	6.73123
19.67564	-10.87619	6.73123
19.67982	-10.89816	6.73123
19.68410	-10.89816	6.73123
19.68837	-10.89816	6.73123
19.69257	-10.92013	6.73123
19.69676	-10.89816	6.73123
19.70096	-10.92013	6.73123
19.70514	-10.92013	6.73123
19.70933	-10.92013	6.73123
19.71358	-10.94211	6.73123
19.71787	-10.94211	6.73123
19.72206	-10.94211	6.73123
19.72626	-10.94211	6.73123
19.73044	-10.94211	6.73123
19.73463	-10.96408	6.73123
19.73881	-10.96408	6.73123
19.74300	-10.96408	6.73123
19.74730	-10.96408	6.73123
19.75151	-10.96408	6.73123
19.75570	-10.98605	6.73123
19.75988	-10.98605	6.73123
19.76417	-10.98605	6.73123
19.76836	-10.98605	6.73123
19.77254	-10.98605	6.73123
19.77698	-10.98605	6.73123
19.78118	-10.98605	6.73123
19.78537	-10.98605	6.73123
19.78956	-10.98605	6.73123
19.79374	-11.00802	6.73123
19.79793	-11.00802	6.73123
19.80211	-11.00802	6.73123
19.80638	-10.98605	6.73123
19.81064	-11.00802	6.73123
19.81484	-11.00802	6.73123
19.81903	-11.00802	6.73123
19.82321	-11.00802	6.73123
19.82740	-11.00802	6.73123
19.83159	-11.00802	6.73123
19.83584	-11.00802	6.73123
19.84012	-11.00802	6.73123
19.84432	-10.98605	6.73123
19.84851	-10.98605	6.73123
19.85269	-11.00802	6.73123
19.85688	-10.98605	6.73123
19.86106	-11.00802	6.73123
19.86535	-10.98605	6.73123
19.86965	-10.98605	6.73123
19.87384	-10.98605	6.73123
19.87803	-10.98605	6.73123
19.88221	-10.98605	6.73123
19.88639	-10.98605	6.73123
19.89058	-10.98605	6.73123
19.89476	-10.98605	6.73123
19.89918	-10.98605	6.73123
19.90338	-10.98605	6.73123
19.90756	-10.98605	6.73123
19.91175	-10.96408	6.73123
19.91593	-10.98605	6.73123
19.92012	-10.96408	6.73123
19.92430	-10.96408	6.73123
19.92858	-10.96408	6.73123
19.93284	-10.96408	6.73123
19.93704	-10.96408	6.73123
19.94123	-10.96408	6.73123
19.94541	-10.94211	6.73123
19.94960	-10.94211	6.73123
19.95379	-10.96408	6.73123
19.95803	-10.94211	6.73123
19.96230	-10.92013	6.73123
19.96661	-10.94211	6.73123
19.97080	-10.92013	6.73123
19.97498	-10.92013	6.73123
19.97917	-10.92013	6.73123
19.98335	-10.92013	6.73123
19.98753	-10.92013	6.73123
19.99183	-10.89816	6.73123
19.99604	-10.89816	6.73123
20.00023	-10.89816	6.73123
20.00442	-10.89816	6.73123
20.00860	-10.89816	6.73123
20.01279	-10.87619	6.73123
20.01698	-10.87619	6.73123
20.02141	-10.87619	6.73123
20.02561	-10.87619	6.73123
20.02979	-10.87619	6.73123
20.03398	-10.87619	6.73123
20.03817	-10.85422	6.73123
20.04235	-10.85422	6.73123
20.04654	-10.85422	6.73123
20.05081	-10.85422	6.73123
20.05508	-10.83224	6.73123
20.05929	-10.83224	6.73123
20.06348	-10.83224	6.73123
20.06778	-10.83224	6.73123
20.07197	-10.83224	6.73123
20.07615	-10.81027	6.73123
20.08040	-10.81027	6.73123
20.08470	-10.81027	6.73123
20.08890	-10.81027	6.73123
20.09307	-10.81027	6.73123
20.09725	-10.78830	6.73123
20.10146	-10.78830	6.73123
20.10565	-10.78830	6.73123
20.10984	-10.78830	6.73123
20.11414	-10.78830	6.73123
20.11834	-10.78830	6.73123
20.12253	-10.76632	6.73123
20.12672	-10.76632	6.73123
20.13091	-10.74435	6.73123
20.13510	-10.74435	6.73123
20.13928	-10.74435	6.73123
20.14370	-10.74435	6.73123
20.14790	-10.72238	6.73123
20.15210	-10.72238	6.73123
20.15629	-10.72238	6.73123
20.16048	-10.72238	6.73123
20.16466	-10.72238	6.73123
20.16896	-10.72238	6.73123
20.17324	-10.70041	6.73123
20.17750	-10.70041	6.73123
20.18171	-10.70041	6.73123
20.18590	-10.67843	6.73123
20.19008	-10.67843	6.73123
20.19426	-10.67843	6.73123
20.19845	-10.65646	6.73123
20.20269	-10.65646	6.73123
20.20697	-10.65646	6.73123
20.21237	-10.63449	6.73123
20.21661	-10.63449	6.73123
20.22084	-10.63449	6.73123
20.22504	-10.63449	6.73123
20.22923	-10.63449	6.73123
20.23348	-10.61252	6.73123
20.23776	-10.61252	6.73123
20.24196	-10.61252	6.73123
20.24615	-10.59054	6.73123
20.25034	-10.59054	6.73123
20.25452	-10.59054	6.73123
20.25871	-10.56857	6.73123
20.26289	-10.56857	6.73123
20.26719	-10.56857	6.73123
20.27149	-10.54660	6.73123
20.27567	-10.54660	6.73123
20.27986	-10.54660	6.73123
20.28404	-10.52463	6.73123
20.28823	-10.52463	6.73123
20.29241	-10.52463	6.73123
20.29682	-10.52463	6.73123
20.30104	-10.52463	6.73123
20.30522	-10.50265	6.73123
20.30941	-10.50265	6.73123
20.31359	-10.48068	6.73123
20.31778	-10.48068	6.73123
20.32196	-10.48068	6.73123
20.32621	-10.45871	6.73123
20.33048	-10.45871	6.73123
20.33468	-10.45871	6.73123
20.33886	-10.45871	6.73123
20.34305	-10.43673	6.73123
20.34723	-10.43673	6.73123
20.35141	-10.43673	6.73123
20.35569	-10.41476	6.73123
20.35999	-10.41476	6.73123
20.36421	-10.41476	6.73123
20.36841	-10.39279	6.73123
20.37270	-10.39279	6.73123
20.37689	-10.39279	6.73123
20.38107	-10.39279	6.73123
20.38525	-10.37082	6.73123
20.38955	-10.37082	6.73123
20.39375	-10.37082	6.73123
20.39794	-10.34884	6.73123
20.40212	-10.34884	6.73123
20.40631	-10.32687	6.73123
20.41049	-10.32687	6.73123
20.41468	-10.32687	6.73123
20.41911	-10.32687	6.73123
20.42332	-10.30490	6.73123
20.42750	-10.30490	6.73123
20.43170	-10.30490	6.73123
20.43588	-10.30490	6.73123
20.44007	-10.28293	6.73123
20.44425	-10.28293	6.73123
20.44854	-10.28293	6.73123
20.45282	-10.26095	6.73123
20.45702	-10.26095	6.73123
20.46121	-10.26095	6.73123
20.46540	-10.23898	6.73123
20.46959	-10.23898	6.73123
20.47388	-10.23898	6.73123
20.47815	-10.21701	6.73123
20.48243	-10.21701	6.73123
20.48663	-10.19504	6.73123
20.49081	-10.19504	6.73123
20.49500	-10.19504	6.73123
20.49918	-10.19504	6.73123
20.50337	-10.17306	6.73123
20.50755	-10.17306	6.73123
20.51185	-10.17306	6.73123
20.51605	-10.15109	6.73123
20.52024	-10.15109	6.73123
20.52442	-10.15109	6.73123
20.52861	-10.12912	6.73123
20.53279	-10.12912	6.73123
20.53699	-10.10714	6.73123
20.54141	-10.10714	6.73123
20.54562	-10.10714	6.73123
20.54981	-10.08517	6.73123
20.55399	-10.08517	6.73123
20.55818	-10.08517	6.73123
20.56236	-10.06320	6.73123
20.56655	-10.06320	6.73123
20.57081	-10.06320	6.73123
20.57517	-10.06320	6.73123
20.57936	-10.04123	6.73123
20.58355	-10.04123	6.73123
20.58774	-10.01925	6.73123
20.59192	-10.01925	6.73123
20.59610	-10.01925	6.73123
20.60035	-9.99728	6.73123
20.60464	-9.99728	6.73123
20.60883	-9.99728	6.73123
20.61303	-9.97531	6.73123
20.61722	-9.97531	6.73123
20.62141	-9.97531	6.73123
20.62560	-9.95334	6.73123
20.62978	-9.95334	6.73123
20.63408	-9.95334	6.73123
20.63828	-9.93136	6.73123
20.64246	-9.93136	6.73123
20.64664	-9.90939	6.73123
20.65083	-9.90939	6.73123
20.65501	-9.90939	6.73123
20.65920	-9.90939	6.73123
20.66361	-9.88742	6.73123
20.66784	-9.88742	6.73123
20.67203	-9.86545	6.73123
20.67632	-9.86545	6.73123
20.68050	-9.86545	6.73123
20.68469	-9.84347	6.73123
20.68887	-9.84347	6.73123
20.69316	-9.84347	6.73123
20.69742	-9.84347	6.73123
20.70162	-9.84347	6.73123
20.70580	-9.82150	6.73123
20.70999	-9.82150	6.73123
20.71417	-9.79953	6.73123
20.71835	-9.79953	6.73123
20.72260	-9.79953	6.73123
20.72687	-9.77756	6.73123
20.73106	-9.77756	6.73123
20.73525	-9.77756	6.73123
20.73944	-9.77756	6.73123
20.74362	-9.75558	6.73123
20.74780	-9.75558	6.73123
20.75199	-9.75558	6.73123
20.75628	-9.75558	6.73123
20.76048	-9.73361	6.73123
20.76467	-9.73361	6.73123
20.76886	-9.73361	6.73123
20.77305	-9.71164	6.73123
20.77734	-9.71164	6.73123
20.78152	-9.71164	6.73123
20.78594	-9.71164	6.73123
20.79014	-9.68966	6.73123
20.79433	-9.68966	6.73123
20.79851	-9.66769	6.73123
20.80270	-9.66769	6.73123
20.80688	-9.66769	6.73123
20.81106	-9.66769	6.73123
20.81532	-9.64572	6.73123
20.81958	-9.64572	6.73123
20.82383	-9.64572	6.73123
20.82802	-9.64572	6.73123
20.83221	-9.64572	6.73123
20.83640	-9.62375	6.73123
20.84059	-9.62375	6.73123
20.84482	-9.62375	6.73123
20.84912	-9.60177	6.73123
20.85332	-9.60177	6.73123
20.85751	-9.60177	6.73123
20.86169	-9.60177	6.73123
20.86588	-9.60177	6.73123
20.87006	-9.57980	6.73123
20.87425	-9.57980	6.73123
20.87865	-9.57980	6.73123
20.88286	-9.57980	6.73123
20.88704	-9.55783	6.73123
20.89123	-9.57980	6.73123
20.89541	-9.55783	6.73123
20.89960	-9.55783	6.73123
20.90378	-9.55783	6.73123
20.90819	-9.53586	6.73123
20.91240	-9.53586	6.73123
20.91659	-9.53586	6.73123
20.92077	-9.53586	6.73123
20.92497	-9.53586	6.73123
20.92915	-9.53586	6.73123
20.93333	-9.51388	6.73123
20.93760	-9.51388	6.73123
20.94185	-9.51388	6.73123
20.94605	-9.51388	6.73123
20.95024	-9.51388	6.73123
20.95442	-9.51388	6.73123
20.95861	-9.51388	6.73123
20.96279	-9.51388	6.73123
20.96703	-9.49191	6.73123
20.97131	-9.49191	6.73123
20.97551	-9.49191	6.73123
20.97980	-9.49191	6.73123
20.98398	-9.49191	6.73123
20.98817	-9.49191	6.73123
20.99235	-9.46994	6.73123
20.99654	-9.46994	6.73123
21.00084	-9.49191	6.73123
21.00505	-9.46994	6.73123
21.00924	-9.46994	6.73123
21.01342	-9.46994	6.73123
21.01761	-9.46994	6.73123
21.02179	-9.44797	6.73123
21.02598	-9.44797	6.73123
21.03039	-9.44797	6.73123
21.03460	-9.44797	6.73123
21.03879	-9.44797	6.73123
21.04298	-9.44797	6.73123
21.04716	-9.44797	6.73123
21.05135	-9.44797	6.73123
21.05553	-9.42599	6.73123
21.05979	-9.42599	6.73123
21.06405	-9.42599	6.73123
21.06825	-9.42599	6.73123
21.07243	-9.44797	6.73123
21.07662	-9.42599	6.73123
21.08091	-9.42599	6.73123
21.08506	-9.42599	6.73123
21.08930	-9.40402	6.73123
21.09358	-9.40402	6.73123
21.09778	-9.42599	6.73123
21.10198	-9.42599	6.73123
21.10616	-9.40402	6.73123
21.11035	-9.40402	6.73123
21.11453	-9.40402	6.73123
21.11871	-9.40402	6.73123
21.12300	-9.40402	6.73123
21.12720	-9.40402	6.73123
21.13139	-9.38205	6.73123
21.13557	-9.40402	6.73123
21.13976	-9.38205	6.73123
21.14394	-9.38205	6.73123
21.14813	-9.40402	6.73123
21.15254	-9.38205	6.73123
21.15674	-9.38205	6.73123
21.16094	-9.38205	6.73123
21.16512	-9.38205	6.73123
21.16930	-9.38205	6.73123
21.17349	-9.38205	6.73123
21.17767	-9.38205	6.73123
21.18204	-9.38205	6.73123
21.18629	-9.38205	6.73123
21.19048	-9.38205	6.73123
21.19466	-9.38205	6.73123
21.19885	-9.38205	6.73123
21.20304	-9.38205	6.73123
21.20722	-9.38205	6.73123
21.21146	-9.38205	6.73123
21.21573	-9.36007	6.73123
21.21997	-9.38205	6.73123
21.22416	-9.38205	6.73123
21.22835	-9.36007	6.73123
21.23254	-9.38205	6.73123
21.23672	-9.36007	6.73123
21.24092	-9.36007	6.73123
21.24518	-9.38205	6.73123
21.24940	-9.38205	6.73123
21.25359	-9.36007	6.73123
21.25777	-9.36007	6.73123
21.26196	-9.36007	6.73123
21.26614	-9.36007	6.73123
21.27033	-9.36007	6.73123
21.27473	-9.36007	6.73123
21.27894	-9.36007	6.73123
21.28323	-9.36007	6.73123
21.28742	-9.36007	6.73123
21.29160	-9.33810	6.73123
21.29578	-9.36007	6.73123
21.29997	-9.36007	6.73123
21.30422	-9.36007	6.73123
21.30848	-9.36007	6.73123
21.31267	-9.36007	6.73123
21.31686	-9.33810	6.73123
21.32106	-9.36007	6.73123
21.32524	-9.36007	6.73123
21.32943	-9.36007	6.73123
21.33368	-9.36007	6.73123
21.33797	-9.33810	6.73123
21.34217	-9.33810	6.73123
21.34636	-9.33810	6.73123
21.35055	-9.33810	6.73123
21.35473	-9.33810	6.73123
21.35892	-9.33810	6.73123
21.36311	-9.33810	6.73123
21.36741	-9.33810	6.73123
21.37162	-9.33810	6.73123
21.37581	-9.33810	6.73123
21.38000	-9.33810	6.73123
21.38429	-9.33810	6.73123
21.38848	-9.33810	6.73123
21.39266	-9.33810	6.73123
21.39709	-9.33810	6.73123
21.40131	-9.33810	6.73123
21.40550	-9.33810	6.73123
21.40969	-9.33810	6.73123
21.41387	-9.31613	6.73123
21.41806	-9.33810	6.73123
21.42224	-9.31613	6.73123
21.42651	-9.33810	6.73123
21.43077	-9.31613	6.73123
21.43496	-9.31613	6.73123
21.43915	-9.31613	6.73123
21.44334	-9.31613	6.73123
21.44753	-9.31613	6.73123
21.45172	-9.31613	6.73123
21.45598	-9.31613	6.73123
21.46026	-9.31613	6.73123
21.46447	-9.31613	6.73123
21.46866	-9.31613	6.73123
21.47285	-9.29416	6.73123
21.47704	-9.31613	6.73123
21.48124	-9.29416	6.73123
21.48553	-9.29416	6.73123
21.48990	-9.29416	6.73123
21.49412	-9.29416	6.73123
21.49832	-9.27218	6.73123
21.50251	-9.29416	6.73123
21.50670	-9.27218	6.73123
21.51089	-9.27218	6.73123
21.51507	-9.27218	6.73123
21.51952	-9.27218	6.73123
21.52374	-9.27218	6.73123
21.52793	-9.27218	6.73123
21.53212	-9.27218	6.73123
21.53630	-9.27218	6.73123
21.54049	-9.27218	6.73123
21.54468	-9.27218	6.73123
21.54898	-9.25021	6.73123
21.55323	-9.25021	6.73123
21.55743	-9.25021	6.73123
21.56161	-9.25021	6.73123
21.56580	-9.25021	6.73123
21.56999	-9.25021	6.73123
21.57417	-9.25021	6.73123
21.57843	-9.22824	6.73123
21.58272	-9.22824	6.73123
21.58702	-9.22824	6.73123
21.59121	-9.20627	6.73123
21.59539	-9.20627	6.73123
21.59958	-9.20627	6.73123
21.60376	-9.20627	6.73123
21.60795	-9.18429	6.73123
21.61225	-9.20627	6.73123
21.61646	-9.18429	6.73123
21.62065	-9.18429	6.73123
21.62484	-9.18429	6.73123
21.62903	-9.18429	6.73123
21.63322	-9.18429	6.73123
21.63740	-9.16232	6.73123
21.64180	-9.16232	6.73123
21.64601	-9.16232	6.73123
21.65020	-9.16232	6.73123
21.65439	-9.16232	6.73123
21.65857	-9.16232	6.73123
21.66276	-9.14035	6.73123
21.66694	-9.11838	6.73123
21.67122	-9.14035	6.73123
21.67547	-9.11838	6.73123
21.67966	-9.11838	6.73123
21.68385	-9.11838	6.73123
21.68814	-9.09640	6.73123
21.69233	-9.09640	6.73123
21.69651	-9.09640	6.73123
21.70076	-9.09640	6.73123
21.70505	-9.09640	6.73123
21.70925	-9.09640	6.73123
21.71344	-9.07443	6.73123
21.71763	-9.07443	6.73123
21.72181	-9.05246	6.73123
21.72600	-9.05246	6.73123
21.73018	-9.05246	6.73123
21.73448	-9.05246	6.73123
21.73868	-9.03048	6.73123
21.74287	-9.03048	6.73123
21.74706	-9.03048	6.73123
21.75125	-9.03048	6.73123
21.75543	-9.03048	6.73123
21.75961	-9.00851	6.73123
21.76401	-9.00851	6.73123
21.76822	-8.98654	6.73123
21.77241	-8.98654	6.73123
21.77660	-8.98654	6.73123
21.78078	-8.98654	6.73123
21.78498	-8.98654	6.73123
21.78926	-8.96457	6.73123
21.79354	-8.96457	6.73123
21.79781	-8.96457	6.73123
21.80201	-8.94259	6.73123
21.80619	-8.94259	6.73123
21.81038	-8.92062	6.73123
21.81459	-8.94259	6.73123
21.81878	-8.92062	6.73123
21.82305	-8.92062	6.73123
21.82734	-8.92062	6.73123
21.83156	-8.92062	6.73123
21.83575	-8.89865	6.73123
21.83994	-8.89865	6.73123
21.84412	-8.89865	6.73123
21.84832	-8.87668	6.73123
21.85250	-8.87668	6.73123
21.85680	-8.87668	6.73123
21.86101	-8.87668	6.73123
21.86520	-8.87668	6.73123
21.86939	-8.85470	6.73123
21.87358	-8.85470	6.73123
21.87776	-8.85470	6.73123
21.88194	-8.85470	6.73123
21.88634	-8.85470	6.73123
21.89065	-8.83273	6.73123
21.89484	-8.81076	6.73123
21.89903	-8.81076	6.73123
21.90321	-8.81076	6.73123
21.90740	-8.81076	6.73123
21.91158	-8.81076	6.73123
21.91585	-8.81076	6.73123
21.92011	-8.78879	6.73123
21.92430	-8.78879	6.73123
21.92848	-8.78879	6.73123
21.93267	-8.76681	6.73123
21.93685	-8.76681	6.73123
21.94105	-8.76681	6.73123
21.94530	-8.76681	6.73123
21.94959	-8.76681	6.73123
21.95379	-8.74484	6.73123
21.95797	-8.74484	6.73123
21.96216	-8.74484	6.73123
21.96635	-8.74484	6.73123
21.97053	-8.72287	6.73123
21.97471	-8.72287	6.73123
21.97901	-8.72287	6.73123
21.98322	-8.72287	6.73123
21.98741	-8.72287	6.73123
21.99170	-8.72287	6.73123
21.99589	-8.70089	6.73123
22.00007	-8.70089	6.73123
22.00426	-8.70089	6.73123
22.00869	-8.70089	6.73123
22.01290	-8.67892	6.73123
22.01707	-8.67892	6.73123
22.02126	-8.67892	6.73123
22.02544	-8.67892	6.73123
22.02963	-8.65695	6.73123
22.03381	-8.65695	6.73123
22.03808	-8.65695	6.73123
22.04234	-8.65695	6.73123
22.04653	-8.63498	6.73123
22.05072	-8.63498	6.73123
22.05491	-8.63498	6.73123
22.05909	-8.63498	6.73123
22.06328	-8.63498	6.73123
22.06754	-8.63498	6.73123
22.07182	-8.63498	6.73123
22.07603	-8.63498	6.73123
22.08022	-8.61300	6.73123
22.08441	-8.61300	6.73123
22.08859	-8.61300	6.73123
22.09288	-8.61300	6.73123
22.09706	-8.61300	6.73123
22.10137	-8.61300	6.73123
22.10557	-8.59103	6.73123
22.10975	-8.59103	6.73123
22.11394	-8.59103	6.73123
22.11812	-8.59103	6.73123
22.12231	-8.59103	6.73123
22.12649	-8.59103	6.73123
22.13089	-8.59103	6.73123
22.13510	-8.59103	6.73123
22.13929	-8.59103	6.73123
22.14347	-8.59103	6.73123
22.14767	-8.59103	6.73123
22.15186	-8.59103	6.73123
22.15604	-8.56906	6.73123
22.16032	-8.56906	6.73123
22.16458	-8.56906	6.73123
22.16877	-8.56906	6.73123
22.17297	-8.56906	6.73123
22.17716	-8.56906	6.73123
22.18134	-8.56906	6.73123
22.18553	-8.56906	6.73123
22.18977	-8.56906	6.73123
22.19415	-8.56906	6.73123
22.19835	-8.56906	6.73123
22.20254	-8.56906	6.73123
22.20672	-8.56906	6.73123
22.21091	-8.56906	6.73123
22.21509	-8.56906	6.73123
22.21928	-8.56906	6.73123
22.22357	-8.56906	6.73123
22.22778	-8.56906	6.73123
22.23197	-8.59103	6.73123
22.23615	-8.56906	6.73123
22.24034	-8.56906	6.73123
22.24452	-8.56906	6.73123
22.24871	-8.56906	6.73123
22.25312	-8.56906	6.73123
22.25732	-8.56906	6.73123
22.26151	-8.56906	6.73123
22.26570	-8.59103	6.73123
22.26988	-8.56906	6.73123
22.27407	-8.56906	6.73123
22.27825	-8.56906	6.73123
22.28253	-8.59103	6.73123
22.28678	-8.56906	6.73123
22.29097	-8.59103	6.73123
22.29526	-8.59103	6.73123
22.29945	-8.59103	6.73123
22.30363	-8.59103	6.73123
22.30782	-8.59103	6.73123
22.31206	-8.59103	6.73123
22.31635	-8.59103	6.73123
22.32055	-8.59103	6.73123
22.32474	-8.59103	6.73123
22.32892	-8.59103	6.73123
22.33311	-8.59103	6.73123
22.33729	-8.61300	6.73123
22.34148	-8.59103	6.73123
22.34578	-8.61300	6.73123
22.34998	-8.61300	6.73123
22.35417	-8.61300	6.73123
22.35837	-8.61300	6.73123
22.36256	-8.61300	6.73123
22.36675	-8.61300	6.73123
22.37093	-8.61300	6.73123
22.37536	-8.63498	6.73123
22.37958	-8.63498	6.73123
22.38377	-8.63498	6.73123
22.38796	-8.65695	6.73123
22.39215	-8.63498	6.73123
22.39644	-8.63498	6.73123
22.40062	-8.65695	6.73123
22.40490	-8.63498	6.73123
22.40914	-8.65695	6.73123
22.41333	-8.65695	6.73123
22.41752	-8.65695	6.73123
22.42173	-8.67892	6.73123
22.42592	-8.67892	6.73123
22.43011	-8.65695	6.73123
22.43437	-8.67892	6.73123
22.43865	-8.67892	6.73123
22.44285	-8.67892	6.73123
22.44704	-8.67892	6.73123
22.45123	-8.67892	6.73123
22.45543	-8.67892	6.73123
22.45962	-8.70089	6.73123
22.46380	-8.70089	6.73123
22.46810	-8.70089	6.73123
22.47231	-8.70089	6.73123
22.47650	-8.70089	6.73123
22.48068	-8.72287	6.73123
22.48487	-8.72287	6.73123
22.48907	-8.72287	6.73123
22.49326	-8.72287	6.73123
22.49779	-8.72287	6.73123
22.50200	-8.72287	6.73123
22.50618	-8.74484	6.73123
22.51037	-8.74484	6.73123
22.51455	-8.74484	6.73123
22.51874	-8.74484	6.73123
22.52292	-8.76681	6.73123
22.52720	-8.74484	6.73123
22.53146	-8.76681	6.73123
22.53566	-8.76681	6.73123
22.53984	-8.76681	6.73123
22.54403	-8.76681	6.73123
22.54821	-8.76681	6.73123
22.55240	-8.76681	6.73123
22.55665	-8.78879	6.73123
22.56095	-8.78879	6.73123
22.56515	-8.78879	6.73123
22.56934	-8.78879	6.73123
22.57353	-8.78879	6.73123
22.57771	-8.78879	6.73123
22.58190	-8.81076	6.73123
22.58608	-8.78879	6.73123
22.59037	-8.81076	6.73123
22.59458	-8.81076	6.73123
22.59887	-8.81076	6.73123
22.60306	-8.81076	6.73123
22.60724	-8.83273	6.73123
22.61142	-8.81076	6.73123
22.61561	-8.83273	6.73123
22.62001	-8.83273	6.73123
22.62421	-8.83273	6.73123
22.62840	-8.83273	6.73123
22.63258	-8.85470	6.73123
22.63677	-8.85470	6.73123
22.64096	-8.85470	6.73123
22.64515	-8.85470	6.73123
22.64943	-8.85470	6.73123
22.65369	-8.85470	6.73123
22.65789	-8.87668	6.73123
22.66210	-8.85470	6.73123
22.66629	-8.87668	6.73123
22.67049	-8.87668	6.73123
22.67467	-8.87668	6.73123
22.67896	-8.87668	6.73123
22.68324	-8.87668	6.73123
22.68744	-8.87668	6.73123
22.69162	-8.89865	6.73123
22.69581	-8.89865	6.73123
22.70010	-8.89865	6.73123
22.70429	-8.89865	6.73123
22.70847	-8.89865	6.73123
22.71277	-8.89865	6.73123
22.71700	-8.92062	6.73123
22.72119	-8.89865	6.73123
22.72537	-8.92062	6.73123
22.72956	-8.92062	6.73123
22.73374	-8.92062	6.73123
22.73793	-8.94259	6.73123
22.74233	-8.94259	6.73123
22.74654	-8.94259	6.73123
22.75073	-8.94259	6.73123
22.75492	-8.94259	6.73123
22.75912	-8.96457	6.73123
22.76330	-8.96457	6.73123
22.76749	-8.96457	6.73123
22.77177	-8.98654	6.73123
22.77602	-8.98654	6.73123
22.78021	-8.98654	6.73123
22.78440	-8.98654	6.73123
22.78858	-8.98654	6.73123
22.79277	-8.98654	6.73123
22.79697	-9.00851	6.73123
22.80135	-9.00851	6.73123
22.80563	-9.00851	6.73123
22.80983	-9.00851	6.73123
22.81402	-9.03048	6.73123
22.81821	-9.03048	6.73123
22.82240	-9.03048	6.73123
22.82658	-9.05246	6.73123
22.83077	-9.05246	6.73123
22.83506	-9.05246	6.73123
22.83927	-9.05246	6.73123
22.84345	-9.07443	6.73123
22.84764	-9.07443	6.73123
22.85182	-9.07443	6.73123
22.85601	-9.07443	6.73123
22.86019	-9.09640	6.73123
22.86458	-9.09640	6.73123
22.86878	-9.09640	6.73123
22.87298	-9.11838	6.73123
22.87716	-9.11838	6.73123
22.88135	-9.11838	6.73123
22.88554	-9.11838	6.73123
22.88972	-9.14035	6.73123
22.89399	-9.14035	6.73123
22.89824	-9.14035	6.73123
22.90254	-9.16232	6.73123
22.90672	-9.16232	6.73123
22.91091	-9.16232	6.73123
22.91509	-9.16232	6.73123
22.91928	-9.18429	6.73123
22.92352	-9.18429	6.73123
22.92780	-9.20627	6.73123
22.93200	-9.20627	6.73123
22.93619	-9.22824	6.73123
22.94037	-9.22824	6.73123
22.94455	-9.22824	6.73123
22.94874	-9.22824	6.73123
22.95293	-9.22824	6.73123
22.95722	-9.25021	6.73123
22.96144	-9.25021	6.73123
22.96562	-9.25021	6.73123
22.96981	-9.27218	6.73123
22.97399	-9.27218	6.73123
22.97818	-9.27218	6.73123
22.98236	-9.29416	6.73123
22.98676	-9.29416	6.73123
22.99096	-9.29416	6.73123
22.99515	-9.31613	6.73123
22.99934	-9.31613	6.73123
23.00363	-9.31613	6.73123
23.00781	-9.33810	6.73123
23.01200	-9.33810	6.73123
23.01629	-9.33810	6.73123
23.02054	-9.33810	6.73123
23.02473	-9.36007	6.73123
23.02892	-9.36007	6.73123
23.03307	-9.36007	6.73123
23.03726	-9.38205	6.73123
23.04144	-9.38205	6.73123
23.04569	-9.38205	6.73123
23.04996	-9.38205	6.73123
23.05416	-9.40402	6.73123
23.05834	-9.40402	6.73123
23.06253	-9.40402	6.73123
23.06672	-9.40402	6.73123
23.07090	-9.42599	6.73123
23.07509	-9.42599	6.73123
23.07938	-9.42599	6.73123
23.08359	-9.42599	6.73123
23.08778	-9.44797	6.73123
23.09196	-9.44797	6.73123
23.09615	-9.44797	6.73123
23.10035	-9.44797	6.73123
23.10463	-9.46994	6.73123
23.10909	-9.46994	6.73123
23.11330	-9.49191	6.73123
23.11749	-9.49191	6.73123
23.12168	-9.49191	6.73123
23.12586	-9.49191	6.73123
23.13004	-9.49191	6.73123
23.13423	-9.49191	6.73123
23.13849	-9.51388	6.73123
23.14276	-9.53586	6.73123
23.14695	-9.53586	6.73123
23.15114	-9.51388	6.73123
23.15532	-9.53586	6.73123
23.15950	-9.53586	6.73123
23.16370	-9.53586	6.73123
23.16794	-9.53586	6.73123
23.17223	-9.55783	6.73123
23.17642	-9.55783	6.73123
23.18062	-9.55783	6.73123
23.18481	-9.55783	6.73123
23.18900	-9.57980	6.73123
23.19318	-9.57980	6.73123
23.19737	-9.57980	6.73123
23.20166	-9.57980	6.73123
23.20596	-9.60177	6.73123
23.21014	-9.60177	6.73123
23.21433	-9.60177	6.73123
23.21851	-9.60177	6.73123
23.22270	-9.62375	6.73123
23.22688	-9.62375	6.73123
23.23130	-9.62375	6.73123
23.23550	-9.62375	6.73123
23.23969	-9.62375	6.73123
23.24387	-9.62375	6.73123
23.24806	-9.64572	6.73123
23.25225	-9.64572	6.73123
23.25643	-9.64572	6.73123
23.26069	-9.64572	6.73123
23.26497	-9.66769	6.73123
23.26916	-9.64572	6.73123
23.27335	-9.66769	6.73123
23.27753	-9.66769	6.73123
23.28172	-9.66769	6.73123
23.28590	-9.66769	6.73123
23.29014	-9.68966	6.73123
23.29442	-9.68966	6.73123
23.29862	-9.68966	6.73123
23.30281	-9.68966	6.73123
23.30709	-9.68966	6.73123
23.31128	-9.68966	6.73123
23.31546	-9.68966	6.73123
23.31964	-9.68966	6.73123
23.32394	-9.71164	6.73123
23.32814	-9.71164	6.73123
23.33233	-9.71164	6.73123
23.33651	-9.71164	6.73123
23.34069	-9.71164	6.73123
23.34488	-9.71164	6.73123
23.34906	-9.71164	6.73123
23.35348	-9.71164	6.73123
23.35769	-9.71164	6.73123
23.36188	-9.73361	6.73123
23.36607	-9.73361	6.73123
23.37025	-9.73361	6.73123
23.37444	-9.73361	6.73123
23.37862	-9.73361	6.73123
23.38290	-9.75558	6.73123
23.38716	-9.75558	6.73123
23.39135	-9.75558	6.73123
23.39554	-9.75558	6.73123
23.39972	-9.75558	6.73123
23.40391	-9.75558	6.73123
23.40819	-9.75558	6.73123
23.41245	-9.75558	6.73123
23.41673	-9.75558	6.73123
23.42099	-9.77756	6.73123
23.42520	-9.77756	6.73123
23.42939	-9.77756	6.73123
23.43359	-9.77756	6.73123
23.43778	-9.77756	6.73123
23.44196	-9.77756	6.73123
23.44629	-9.77756	6.73123
23.45050	-9.77756	6.73123
23.45469	-9.79953	6.73123
23.45888	-9.77756	6.73123
23.46307	-9.77756	6.73123
23.46725	-9.77756	6.73123
23.47144	-9.79953	6.73123
23.47587	-9.77756	6.73123
23.48008	-9.79953	6.73123
23.48428	-9.79953	6.73123
23.48847	-9.79953	6.73123
23.49265	-9.79953	6.73123
23.49684	-9.79953	6.73123
23.50104	-9.79953	6.73123
23.50531	-9.79953	6.73123
23.50968	-9.79953	6.73123
23.51389	-9.79953	6.73123
23.51807	-9.79953	6.73123
23.52226	-9.79953	6.73123
23.52644	-9.82150	6.73123
23.53062	-9.82150	6.73123
23.53488	-9.82150	6.73123
23.53916	-9.82150	6.73123
23.54336	-9.82150	6.73123
23.54754	-9.82150	6.73123
23.55173	-9.82150	6.73123
23.55591	-9.82150	6.73123
23.56009	-9.82150	6.73123
23.56428	-9.84347	6.73123
23.56858	-9.84347	6.73123
23.57278	-9.82150	6.73123
23.57698	-9.82150	6.73123
23.58117	-9.84347	6.73123
23.58536	-9.84347	6.73123
23.58954	-9.84347	6.73123
23.59372	-9.84347	6.73123
23.59814	-9.84347	6.73123
23.60234	-9.84347	6.73123
23.60653	-9.84347	6.73123
23.61081	-9.84347	6.73123
23.61500	-9.84347	6.73123
23.61918	-9.84347	6.73123
23.62337	-9.84347	6.73123
23.62762	-9.84347	6.73123
23.63188	-9.84347	6.73123
23.63607	-9.84347	6.73123
23.64026	-9.84347	6.73123
23.64444	-9.86545	6.73123
23.64863	-9.86545	6.73123
23.65281	-9.86545	6.73123
23.65706	-9.86545	6.73123
23.66134	-9.86545	6.73123
23.66554	-9.86545	6.73123
23.66973	-9.86545	6.73123
23.67392	-9.86545	6.73123
23.67810	-9.86545	6.73123
23.68229	-9.86545	6.73123
23.68647	-9.86545	6.73123
23.69076	-9.86545	6.73123
23.69496	-9.86545	6.73123
23.69915	-9.88742	6.73123
23.70334	-9.88742	6.73123
23.70752	-9.86545	6.73123
23.71181	-9.86545	6.73123
23.71600	-9.88742	6.73123
23.72041	-9.86545	6.73123
23.72462	-9.88742	6.73123
23.72880	-9.88742	6.73123
23.73300	-9.88742	6.73123
23.73719	-9.88742	6.73123
23.74137	-9.86545	6.73123
23.74555	-9.88742	6.73123
23.74982	-9.88742	6.73123
23.75408	-9.88742	6.73123
23.75827	-9.88742	6.73123
23.76245	-9.88742	6.73123
23.76665	-9.88742	6.73123
23.77084	-9.88742	6.73123
23.77502	-9.88742	6.73123
23.77926	-9.88742	6.73123
23.78354	-9.88742	6.73123
23.78773	-9.88742	6.73123
23.79192	-9.86545	6.73123
23.79610	-9.88742	6.73123
23.80029	-9.88742	6.73123
23.80447	-9.88742	6.73123
23.80866	-9.88742	6.73123
23.81307	-9.88742	6.73123
23.81727	-9.86545	6.73123
23.82145	-9.86545	6.73123
23.82564	-9.86545	6.73123
23.82982	-9.86545	6.73123
23.83400	-9.86545	6.73123
23.83819	-9.86545	6.73123
23.84259	-9.86545	6.73123
23.84680	-9.86545	6.73123
23.85098	-9.86545	6.73123
23.85517	-9.86545	6.73123
23.85935	-9.86545	6.73123
23.86354	-9.86545	6.73123
23.86773	-9.86545	6.73123
23.87199	-9.84347	6.73123
23.87625	-9.84347	6.73123
23.88046	-9.84347	6.73123
23.88464	-9.84347	6.73123
23.88883	-9.84347	6.73123
23.89302	-9.84347	6.73123
23.89720	-9.84347	6.73123
23.90144	-9.84347	6.73123
23.90572	-9.82150	6.73123
23.90991	-9.82150	6.73123
23.91420	-9.82150	6.73123
23.91839	-9.82150	6.73123
23.92257	-9.82150	6.73123
23.92675	-9.79953	6.73123
23.93094	-9.79953	6.73123
23.93523	-9.79953	6.73123
23.93943	-9.79953	6.73123
23.94362	-9.79953	6.73123
23.94780	-9.79953	6.73123
23.95199	-9.79953	6.73123
23.95617	-9.77756	6.73123
23.96035	-9.77756	6.73123
23.96477	-9.77756	6.73123
23.96899	-9.77756	6.73123
23.97318	-9.77756	6.73123
23.97736	-9.75558	6.73123
23.98155	-9.75558	6.73123
23.98573	-9.73361	6.73123
23.98992	-9.75558	6.73123
23.99418	-9.75558	6.73123
23.99844	-9.73361	6.73123
24.00263	-9.73361	6.73123
24.00682	-9.73361	6.73123
24.01100	-9.73361	6.73123
24.01529	-9.73361	6.73123
24.01947	-9.71164	6.73123
24.02372	-9.71164	6.73123
24.02800	-9.71164	6.73123
24.03220	-9.68966	6.73123
24.03639	-9.68966	6.73123
24.04058	-9.68966	6.73123
24.04476	-9.66769	6.73123
24.04896	-9.66769	6.73123
24.05314	-9.66769	6.73123
24.05744	-9.64572	6.73123
24.06164	-9.64572	6.73123
24.06583	-9.64572	6.73123
24.07002	-9.64572	6.73123
24.07420	-9.64572	6.73123
24.07838	-9.62375	6.73123
24.08257	-9.62375	6.73123
24.08699	-9.60177	6.73123
24.09119	-9.60177	6.73123
24.09537	-9.60177	6.73123
24.09957	-9.60177	6.73123
24.10376	-9.60177	6.73123
24.10794	-9.57980	6.73123
24.11213	-9.57980	6.73123
24.11653	-9.57980	6.73123
24.12079	-9.57980	6.73123
24.12499	-9.55783	6.73123
24.12917	-9.55783	6.73123
24.13336	-9.55783	6.73123
24.13755	-9.53586	6.73123
24.14173	-9.53586	6.73123
24.14600	-9.53586	6.73123
24.15028	-9.53586	6.73123
24.15448	-9.51388	6.73123
24.15867	-9.51388	6.73123
24.16285	-9.51388	6.73123
24.16704	-9.49191	6.73123
24.17123	-9.49191	6.73123
24.17541	-9.49191	6.73123
24.17971	-9.49191	6.73123
24.18392	-9.46994	6.73123
24.18811	-9.46994	6.73123
24.19229	-9.46994	6.73123
24.19648	-9.44797	6.73123
24.20066	-9.44797	6.73123
24.20485	-9.44797	6.73123
24.20926	-9.44797	6.73123
24.21348	-9.44797	6.73123
24.21777	-9.42599	6.73123
24.22196	-9.42599	6.73123
24.22615	-9.42599	6.73123
24.23034	-9.42599	6.73123
24.23453	-9.40402	6.73123
24.23881	-9.40402	6.73123
24.24307	-9.40402	6.73123
24.24727	-9.40402	6.73123
24.25146	-9.38205	6.73123
24.25565	-9.38205	6.73123
24.25983	-9.38205	6.73123
24.26402	-9.36007	6.73123
24.26828	-9.36007	6.73123
24.27256	-9.33810	6.73123
24.27677	-9.33810	6.73123
24.28097	-9.33810	6.73123
24.28515	-9.33810	6.73123
24.28934	-9.33810	6.73123
24.29352	-9.31613	6.73123
24.29771	-9.31613	6.73123
24.30201	-9.31613	6.73123
24.30621	-9.29416	6.73123
24.31040	-9.29416	6.73123
24.31458	-9.29416	6.73123
24.31887	-9.29416	6.73123
24.32306	-9.27218	6.73123
24.32724	-9.27218	6.73123
24.33164	-9.27218	6.73123
24.33585	-9.27218	6.73123
24.34004	-9.25021	6.73123
24.34422	-9.25021	6.73123
24.34841	-9.25021	6.73123
24.35259	-9.22824	6.73123
24.35678	-9.22824	6.73123
24.36111	-9.22824	6.73123
24.36538	-9.22824	6.73123
24.36958	-9.22824	6.73123
24.37377	-9.20627	6.73123
24.37796	-9.20627	6.73123
24.38215	-9.20627	6.73123
24.38633	-9.20627	6.73123
24.39058	-9.20627	6.73123
24.39486	-9.20627	6.73123
24.39907	-9.18429	6.73123
24.40325	-9.18429	6.73123
24.40744	-9.18429	6.73123
24.41163	-9.18429	6.73123
24.41581	-9.16232	6.73123
24.42010	-9.18429	6.73123
24.42440	-9.16232	6.73123
24.42860	-9.16232	6.73123
24.43280	-9.16232	6.73123
24.43699	-9.16232	6.73123
24.44117	-9.14035	6.73123
24.44536	-9.14035	6.73123
24.44955	-9.14035	6.73123
24.45399	-9.14035	6.73123
24.45820	-9.14035	6.73123
24.46239	-9.11838	6.73123
24.46657	-9.11838	6.73123
24.47077	-9.11838	6.73123
24.47496	-9.11838	6.73123
24.47914	-9.11838	6.73123
24.48342	-9.11838	6.73123
24.48768	-9.11838	6.73123
24.49188	-9.09640	6.73123
24.49606	-9.09640	6.73123
24.50025	-9.09640	6.73123
24.50444	-9.09640	6.73123
24.50862	-9.09640	6.73123
24.51288	-9.09640	6.73123
24.51716	-9.09640	6.73123
24.52146	-9.09640	6.73123
24.52565	-9.07443	6.73123
24.52983	-9.07443	6.73123
24.53402	-9.07443	6.73123
24.53821	-9.07443	6.73123
24.54239	-9.07443	6.73123
24.54669	-9.07443	6.73123
24.55090	-9.07443	6.73123
24.55509	-9.07443	6.73123
24.55927	-9.07443	6.73123
24.56346	-9.07443	6.73123
24.56765	-9.07443	6.73123
24.57183	-9.07443	6.73123
24.57622	-9.07443	6.73123
24.58044	-9.07443	6.73123
24.58463	-9.05246	6.73123
24.58881	-9.07443	6.73123
24.59300	-9.07443	6.73123
24.59719	-9.05246	6.73123
24.60137	-9.05246	6.73123
24.60564	-9.07443	6.73123
24.60990	-9.05246	6.73123
24.61410	-9.07443	6.73123
24.61829	-9.05246	6.73123
24.62257	-9.05246	6.73123
24.62676	-9.05246	6.73123
24.63094	-9.05246	6.73123
24.63519	-9.05246	6.73123
24.63947	-9.05246	6.73123
24.64367	-9.05246	6.73123
24.64787	-9.05246	6.73123
24.65205	-9.05246	6.73123
24.65624	-9.05246	6.73123
24.66042	-9.05246	6.73123
24.66460	-9.05246	6.73123
24.66890	-9.05246	6.73123
24.67308	-9.05246	6.73123
24.67726	-9.05246	6.73123
24.68145	-9.05246	6.73123
24.68564	-9.05246	6.73123
24.68982	-9.05246	6.73123
24.69400	-9.05246	6.73123
24.69840	-9.05246	6.73123
24.70261	-9.05246	6.73123
24.70679	-9.05246	6.73123
24.71098	-9.05246	6.73123
24.71516	-9.05246	6.73123
24.71935	-9.05246	6.73123
24.72363	-9.05246	6.73123
24.72790	-9.05246	6.73123
24.73216	-9.05246	6.73123
24.73636	-9.05246	6.73123
24.74054	-9.05246	6.73123
24.74472	-9.05246	6.73123
24.74891	-9.05246	6.73123
24.75306	-9.05246	6.73123
24.75731	-9.05246	6.73123
24.76158	-9.05246	6.73123
24.76579	-9.07443	6.73123
24.76997	-9.05246	6.73123
24.77417	-9.07443	6.73123
24.77835	-9.07443	6.73123
24.78253	-9.05246	6.73123
24.78672	-9.07443	6.73123
24.79101	-9.07443	6.73123
24.79521	-9.07443	6.73123
24.79940	-9.07443	6.73123
24.80359	-9.07443	6.73123
24.80777	-9.07443	6.73123
24.81196	-9.07443	6.73123
24.81614	-9.07443	6.73123
24.82054	-9.09640	6.73123
24.82489	-9.09640	6.73123
24.82907	-9.07443	6.73123
24.83326	-9.07443	6.73123
24.83745	-9.07443	6.73123
24.84164	-9.07443	6.73123
24.84582	-9.09640	6.73123
24.85009	-9.09640	6.73123
24.85435	-9.09640	6.73123
24.85854	-9.09640	6.73123
24.86273	-9.09640	6.73123
24.86691	-9.09640	6.73123
24.87110	-9.09640	6.73123
24.87529	-9.09640	6.73123
24.87954	-9.09640	6.73123
24.88382	-9.09640	6.73123
24.88802	-9.09640	6.73123
24.89220	-9.09640	6.73123
24.89639	-9.11838	6.73123
24.90058	-9.11838	6.73123
24.90476	-9.11838	6.73123
24.90895	-9.11838	6.73123
24.91326	-9.11838	6.73123
24.91746	-9.11838	6.73123
24.92165	-9.11838	6.73123
24.92594	-9.11838	6.73123
24.93013	-9.11838	6.73123
24.93431	-9.11838	6.73123
24.93849	-9.11838	6.73123
24.94288	-9.11838	6.73123
24.94710	-9.11838	6.73123
24.95129	-9.11838	6.73123
24.95547	-9.14035	6.73123
24.95966	-9.14035	6.73123
24.96384	-9.14035	6.73123
24.96803	-9.14035	6.73123
24.97230	-9.14035	6.73123
24.97657	-9.14035	6.73123
24.98077	-9.14035	6.73123
24.98497	-9.14035	6.73123
24.98915	-9.14035	6.73123
24.99334	-9.14035	6.73123
24.99752	-9.14035	6.73123
25.00178	-9.14035	6.73123
25.00608	-9.16232	6.73123
25.01029	-9.14035	6.73123
25.01449	-9.16232	6.73123
25.01868	-9.16232	6.73123
25.02287	-9.16232	6.73123
25.02716	-9.16232	6.73123
25.03134	-9.16232	6.73123
25.03564	-9.16232	6.73123
25.03985	-9.16232	6.73123
25.04403	-9.16232	6.73123
25.04822	-9.16232	6.73123
25.05241	-9.16232	6.73123
25.05659	-9.16232	6.73123
25.06078	-9.16232	6.73123
25.06518	-9.16232	6.73123
25.06938	-9.16232	6.73123
25.07358	-9.16232	6.73123
25.07776	-9.16232	6.73123
25.08195	-9.16232	6.73123
25.08614	-9.16232	6.73123
25.09032	-9.16232	6.73123
25.09460	-9.16232	6.73123
25.09887	-9.16232	6.73123
25.10308	-9.18429	6.73123
25.10728	-9.18429	6.73123
25.11147	-9.18429	6.73123
25.11566	-9.18429	6.73123
25.11985	-9.18429	6.73123
25.12411	-9.18429	6.73123
25.12848	-9.18429	6.73123
25.13270	-9.20627	6.73123
25.13689	-9.18429	6.73123
25.14107	-9.18429	6.73123
25.14525	-9.18429	6.73123
25.14944	-9.18429	6.73123
25.15362	-9.18429	6.73123
25.15792	-9.20627	6.73123
25.16212	-9.20627	6.73123
25.16631	-9.18429	6.73123
25.17050	-9.18429	6.73123
25.17468	-9.18429	6.73123
25.17888	-9.18429	6.73123
25.18307	-9.18429	6.73123
25.18746	-9.20627	6.73123
25.19167	-9.18429	6.73123
25.19586	-9.20627	6.73123
25.20005	-9.20627	6.73123
25.20425	-9.20627	6.73123
25.20845	-9.18429	6.73123
25.21264	-9.18429	6.73123
25.21694	-9.20627	6.73123
25.22121	-9.20627	6.73123
25.22541	-9.20627	6.73123
25.22971	-9.20627	6.73123
25.23390	-9.20627	6.73123
25.23809	-9.20627	6.73123
25.24228	-9.20627	6.73123
25.24658	-9.20627	6.73123
25.25086	-9.20627	6.73123
25.25506	-9.18429	6.73123
25.25925	-9.18429	6.73123
25.26344	-9.20627	6.73123
25.26763	-9.20627	6.73123
25.27181	-9.20627	6.73123
25.27600	-9.20627	6.73123
25.28030	-9.18429	6.73123
25.28451	-9.18429	6.73123
25.28870	-9.20627	6.73123
25.29288	-9.20627	6.73123
25.29706	-9.20627	6.73123
25.30125	-9.18429	6.73123
25.30545	-9.18429	6.73123
25.30988	-9.20627	6.73123
25.31411	-9.20627	6.73123
25.31830	-9.18429	6.73123
25.32249	-9.18429	6.73123
25.32668	-9.18429	6.73123
25.33096	-9.18429	6.73123
25.33515	-9.20627	6.73123
25.33942	-9.20627	6.73123
25.34368	-9.18429	6.73123
25.34788	-9.18429	6.73123
25.35207	-9.18429	6.73123
25.35626	-9.18429	6.73123
25.36044	-9.18429	6.73123
25.36462	-9.18429	6.73123
25.36889	-9.18429	6.73123
25.37316	-9.18429	6.73123
25.37735	-9.18429	6.73123
25.38154	-9.18429	6.73123
25.38573	-9.18429	6.73123
25.38991	-9.18429	6.73123
25.39410	-9.16232	6.73123
25.39828	-9.16232	6.73123
25.40259	-9.16232	6.73123
25.40681	-9.16232	6.73123
25.41100	-9.16232	6.73123
25.41520	-9.16232	6.73123
25.41939	-9.16232	6.73123
25.42359	-9.16232	6.73123
25.42778	-9.16232	6.73123
25.43232	-9.16232	6.73123
25.43652	-9.16232	6.73123
25.44071	-9.16232	6.73123
25.44490	-9.16232	6.73123
25.44908	-9.14035	6.73123
25.45327	-9.14035	6.73123
25.45745	-9.14035	6.73123
25.46173	-9.14035	6.73123
25.46601	-9.14035	6.73123
25.47021	-9.14035	6.73123
25.47440	-9.14035	6.73123
25.47858	-9.14035	6.73123
25.48277	-9.11838	6.73123
25.48696	-9.11838	6.73123
25.49123	-9.11838	6.73123
25.49551	-9.11838	6.73123
25.49972	-9.11838	6.73123
25.50392	-9.11838	6.73123
25.50812	-9.11838	6.73123
25.51231	-9.09640	6.73123
25.51650	-9.09640	6.73123
25.52069	-9.09640	6.73123
25.52501	-9.09640	6.73123
25.52921	-9.09640	6.73123
25.53352	-9.09640	6.73123
25.53771	-9.09640	6.73123
25.54189	-9.09640	6.73123
25.54608	-9.09640	6.73123
25.55027	-9.09640	6.73123
25.55467	-9.07443	6.73123
25.55888	-9.07443	6.73123
25.56307	-9.07443	6.73123
25.56726	-9.07443	6.73123
25.57145	-9.07443	6.73123
25.57563	-9.07443	6.73123
25.57982	-9.07443	6.73123
25.58411	-9.05246	6.73123
25.58838	-9.05246	6.73123
25.59258	-9.05246	6.73123
25.59676	-9.05246	6.73123
25.60096	-9.05246	6.73123
25.60516	-9.05246	6.73123
25.60936	-9.03048	6.73123
25.61364	-9.03048	6.73123
25.61792	-9.03048	6.73123
25.62212	-9.03048	6.73123
25.62631	-9.03048	6.73123
25.63050	-9.00851	6.73123
25.63479	-9.00851	6.73123
25.63897	-9.00851	6.73123
25.64316	-9.00851	6.73123
25.64747	-8.98654	6.73123
25.65167	-8.98654	6.73123
25.65586	-9.00851	6.73123
25.66005	-8.98654	6.73123
25.66423	-8.98654	6.73123
25.66842	-8.98654	6.73123
25.67261	-8.98654	6.73123
25.67700	-8.98654	6.73123
25.68122	-8.96457	6.73123
25.68541	-8.96457	6.73123
25.68960	-8.96457	6.73123
25.69378	-8.96457	6.73123
25.69797	-8.94259	6.73123
25.70215	-8.94259	6.73123
25.70645	-8.94259	6.73123
25.71073	-8.94259	6.73123
25.71494	-8.92062	6.73123
25.71913	-8.92062	6.73123
25.72331	-8.92062	6.73123
25.72750	-8.89865	6.73123
25.73169	-8.89865	6.73123
25.73605	-8.89865	6.73123
25.74032	-8.89865	6.73123
25.74452	-8.89865	6.73123
25.74871	-8.87668	6.73123
25.75290	-8.87668	6.73123
25.75707	-8.87668	6.73123
25.76126	-8.87668	6.73123
25.76544	-8.85470	6.73123
25.76974	-8.85470	6.73123
25.77395	-8.85470	6.73123
25.77813	-8.85470	6.73123
25.78233	-8.85470	6.73123
25.78652	-8.85470	6.73123
25.79070	-8.83273	6.73123
25.79489	-8.83273	6.73123
25.79929	-8.81076	6.73123
25.80353	-8.81076	6.73123
25.80772	-8.81076	6.73123
25.81191	-8.81076	6.73123
25.81611	-8.78879	6.73123
25.82030	-8.78879	6.73123
25.82449	-8.76681	6.73123
25.82876	-8.76681	6.73123
25.83304	-8.76681	6.73123
25.83734	-8.76681	6.73123
25.84152	-8.76681	6.73123
25.84571	-8.76681	6.73123
25.84990	-8.74484	6.73123
25.85409	-8.74484	6.73123
25.85835	-8.72287	6.73123
25.86263	-8.72287	6.73123
25.86685	-8.72287	6.73123
25.87104	-8.72287	6.73123
25.87522	-8.70089	6.73123
25.87941	-8.70089	6.73123
25.88360	-8.70089	6.73123
25.88779	-8.70089	6.73123
25.89209	-8.67892	6.73123
25.89629	-8.67892	6.73123
25.90048	-8.67892	6.73123
25.90469	-8.67892	6.73123
25.90888	-8.65695	6.73123
25.91308	-8.63498	6.73123
25.91727	-8.63498	6.73123
25.92168	-8.63498	6.73123
25.92589	-8.63498	6.73123
25.93009	-8.61300	6.73123
25.93428	-8.61300	6.73123
25.93857	-8.61300	6.73123
25.94275	-8.61300	6.73123
25.94694	-8.61300	6.73123
25.95122	-8.59103	6.73123
25.95548	-8.59103	6.73123
25.95967	-8.56906	6.73123
25.96386	-8.56906	6.73123
25.96805	-8.56906	6.73123
25.97223	-8.54709	6.73123
25.97642	-8.54709	6.73123
25.98067	-8.54709	6.73123
25.98497	-8.54709	6.73123
25.98917	-8.52511	6.73123
25.99336	-8.52511	6.73123
25.99754	-8.52511	6.73123
26.00173	-8.50314	6.73123
26.00593	-8.50314	6.73123
26.01012	-8.50314	6.73123
26.01443	-8.48117	6.73123
26.01863	-8.48117	6.73123
26.02282	-8.45920	6.73123
26.02700	-8.45920	6.73123
26.03119	-8.45920	6.73123
26.03540	-8.45920	6.73123
26.03970	-8.43722	6.73123
26.04412	-8.43722	6.73123
26.04833	-8.41525	6.73123
26.05252	-8.41525	6.73123
26.05671	-8.41525	6.73123
26.06089	-8.41525	6.73123
26.06506	-8.39328	6.73123
26.06925	-8.37131	6.73123
26.07353	-8.37131	6.73123
26.07778	-8.39328	6.73123
26.08198	-8.37131	6.73123
26.08617	-8.34933	6.73123
26.09035	-8.34933	6.73123
26.09454	-8.32736	6.73123
26.09873	-8.32736	6.73123
26.10299	-8.32736	6.73123
26.10728	-8.30539	6.73123
26.11149	-8.30539	6.73123
26.11570	-8.30539	6.73123
26.11990	-8.28341	6.73123
26.12409	-8.28341	6.73123
26.12828	-8.28341	6.73123
26.13246	-8.28341	6.73123
26.13683	-8.26144	6.73123
26.14116	-8.26144	6.73123
26.14535	-8.26144	6.73123
26.14956	-8.26144	6.73123
26.15376	-8.23947	6.73123
26.15794	-8.23947	6.73123
26.16213	-8.21750	6.73123
26.16682	-8.21750	6.73123
26.17103	-8.21750	6.73123
26.17522	-8.19552	6.73123
26.17942	-8.19552	6.73123
26.18363	-8.19552	6.73123
26.18783	-8.19552	6.73123
26.19202	-8.17355	6.73123
26.19635	-8.17355	6.73123
26.20063	-8.17355	6.73123
26.20484	-8.15158	6.73123
26.20905	-8.15158	6.73123
26.21324	-8.15158	6.73123
26.21742	-8.12961	6.73123
26.22161	-8.12961	6.73123
26.22590	-8.12961	6.73123
26.23019	-8.10763	6.73123
26.23439	-8.10763	6.73123
26.23858	-8.10763	6.73123
26.24287	-8.08566	6.73123
26.24706	-8.08566	6.73123
26.25124	-8.08566	6.73123
26.25543	-8.06369	6.73123
26.25974	-8.06369	6.73123
26.26396	-8.06369	6.73123
26.26815	-8.06369	6.73123
26.27233	-8.04172	6.73123
26.27652	-8.04172	6.73123
26.28071	-8.04172	6.73123
26.28489	-8.01974	6.73123
26.28932	-8.01974	6.73123
26.29352	-8.01974	6.73123
26.29771	-8.01974	6.73123
26.30190	-7.99777	6.73123
26.30610	-7.99777	6.73123
26.31029	-7.99777	6.73123
26.31449	-7.97580	6.73123
26.31876	-7.97580	6.73123
26.32303	-7.97580	6.73123
26.32723	-7.95382	6.73123
26.33142	-7.95382	6.73123
26.33561	-7.95382	6.73123
26.33979	-7.95382	6.73123
26.34408	-7.93185	6.73123
26.34834	-7.93185	6.73123
26.35262	-7.90988	6.73123
26.35683	-7.90988	6.73123
26.36103	-7.90988	6.73123
26.36522	-7.90988	6.73123
26.36941	-7.90988	6.73123
26.37359	-7.90988	6.73123
26.37778	-7.88791	6.73123
26.38208	-7.88791	6.73123
26.38630	-7.86593	6.73123
26.39048	-7.86593	6.73123
26.39467	-7.86593	6.73123
26.39886	-7.86593	6.73123
26.40304	-7.86593	6.73123
26.40725	-7.84396	6.73123
26.41170	-7.84396	6.73123
26.41593	-7.84396	6.73123
26.42057	-7.82199	6.73123
26.42477	-7.82199	6.73123
26.42896	-7.82199	6.73123
26.43315	-7.82199	6.73123
26.43734	-7.80002	6.73123
26.44160	-7.80002	6.73123
26.44599	-7.80002	6.73123
26.45020	-7.80002	6.73123
26.45439	-7.80002	6.73123
26.45858	-7.77804	6.73123
26.46277	-7.77804	6.73123
26.46695	-7.77804	6.73123
26.47123	-7.75607	6.73123
26.47552	-7.75607	6.73123
26.47972	-7.75607	6.73123
26.48391	-7.75607	6.73123
26.48810	-7.75607	6.73123
26.49229	-7.75607	6.73123
26.49648	-7.73410	6.73123
26.50066	-7.73410	6.73123
26.50500	-7.73410	6.73123
26.50922	-7.73410	6.73123
26.51342	-7.73410	6.73123
26.51761	-7.71213	6.73123
26.52180	-7.71213	6.73123
26.52599	-7.71213	6.73123
26.53017	-7.71213	6.73123
26.53461	-7.69015	6.73123
26.53884	-7.69015	6.73123
26.54303	-7.69015	6.73123
26.54733	-7.69015	6.73123
26.55151	-7.69015	6.73123
26.55570	-7.66818	6.73123
26.55988	-7.66818	6.73123
26.56415	-7.66818	6.73123
26.56842	-7.66818	6.73123
26.57261	-7.66818	6.73123
26.57680	-7.66818	6.73123
26.58100	-7.64621	6.73123
26.58518	-7.64621	6.73123
26.58937	-7.64621	6.73123
26.59362	-7.66818	6.73123
26.59790	-7.64621	6.73123
26.60210	-7.64621	6.73123
26.60630	-7.64621	6.73123
26.61049	-7.62423	6.73123
26.61468	-7.62423	6.73123
26.61887	-7.62423	6.73123
26.62305	-7.64621	6.73123
26.62735	-7.62423	6.73123
26.63156	-7.62423	6.73123
26.63575	-7.62423	6.73123
26.63994	-7.62423	6.73123
26.64412	-7.60226	6.73123
26.64841	-7.60226	6.73123
26.65260	-7.60226	6.73123
26.65705	-7.60226	6.73123
26.66127	-7.60226	6.73123
26.66546	-7.60226	6.73123
26.66965	-7.60226	6.73123
26.67384	-7.58029	6.73123
26.67803	-7.58029	6.73123
26.68221	-7.58029	6.73123
26.68648	-7.58029	6.73123
26.69075	-7.58029	6.73123
26.69495	-7.55832	6.73123
26.69914	-7.58029	6.73123
26.70333	-7.58029	6.73123
26.70754	-7.55832	6.73123
26.71173	-7.55832	6.73123
26.71601	-7.55832	6.73123
26.72030	-7.55832	6.73123
26.72451	-7.55832	6.73123
26.72869	-7.55832	6.73123
26.73288	-7.53634	6.73123
26.73708	-7.53634	6.73123
26.74126	-7.53634	6.73123
26.74545	-7.53634	6.73123
26.74986	-7.53634	6.73123
26.75406	-7.53634	6.73123
26.75824	-7.53634	6.73123
26.76243	-7.53634	6.73123
26.76663	-7.53634	6.73123
26.77082	-7.53634	6.73123
26.77500	-7.53634	6.73123
26.77946	-7.51437	6.73123
26.78366	-7.51437	6.73123
26.78785	-7.51437	6.73123
26.79204	-7.49240	6.73123
26.79623	-7.51437	6.73123
26.80042	-7.51437	6.73123
26.80461	-7.49240	6.73123
26.80889	-7.51437	6.73123
26.81315	-7.49240	6.73123
26.81736	-7.49240	6.73123
26.82154	-7.49240	6.73123
26.82573	-7.49240	6.73123
26.82992	-7.49240	6.73123
26.83410	-7.49240	6.73123
26.83834	-7.47043	6.73123
26.84262	-7.47043	6.73123
26.84683	-7.47043	6.73123
26.85112	-7.47043	6.73123
26.85530	-7.47043	6.73123
26.85949	-7.47043	6.73123
26.86368	-7.47043	6.73123
26.86786	-7.47043	6.73123
26.87215	-7.47043	6.73123
26.87635	-7.47043	6.73123
26.88054	-7.44845	6.73123
26.88473	-7.44845	6.73123
26.88891	-7.44845	6.73123
26.89306	-7.44845	6.73123
26.89725	-7.42648	6.73123
26.90167	-7.42648	6.73123
26.90589	-7.44845	6.73123
26.91008	-7.42648	6.73123
26.91427	-7.42648	6.73123
26.91846	-7.42648	6.73123
26.92264	-7.40451	6.73123
26.92683	-7.40451	6.73123
26.93110	-7.42648	6.73123
26.93537	-7.40451	6.73123
26.93956	-7.40451	6.73123
26.94375	-7.40451	6.73123
26.94794	-7.40451	6.73123
26.95223	-7.40451	6.73123
26.95641	-7.40451	6.73123
26.96065	-7.38254	6.73123
26.96495	-7.38254	6.73123
26.96915	-7.38254	6.73123
26.97334	-7.38254	6.73123
26.97752	-7.38254	6.73123
26.98171	-7.38254	6.73123
26.98590	-7.36056	6.73123
26.99008	-7.36056	6.73123
26.99439	-7.36056	6.73123
26.99859	-7.36056	6.73123
27.00278	-7.36056	6.73123
27.00698	-7.33859	6.73123
27.01118	-7.33859	6.73123
27.01537	-7.33859	6.73123
27.01956	-7.33859	6.73123
27.02400	-7.31662	6.73123
27.02820	-7.33859	6.73123
27.03241	-7.31662	6.73123
27.03660	-7.31662	6.73123
27.04078	-7.31662	6.73123
27.04498	-7.31662	6.73123
27.04917	-7.31662	6.73123
27.05354	-7.31662	6.73123
27.05781	-7.29464	6.73123
27.06200	-7.29464	6.73123
27.06619	-7.31662	6.73123
27.07038	-7.29464	6.73123
27.07456	-7.29464	6.73123
27.07875	-7.29464	6.73123
27.08299	-7.29464	6.73123
27.08728	-7.29464	6.73123
27.09147	-7.27267	6.73123
27.09567	-7.27267	6.73123
27.09986	-7.27267	6.73123
27.10406	-7.27267	6.73123
27.10827	-7.27267	6.73123
27.11246	-7.27267	6.73123
27.11679	-7.25070	6.73123
27.12102	-7.25070	6.73123
27.12521	-7.27267	6.73123
27.12941	-7.25070	6.73123
27.13359	-7.25070	6.73123
27.13778	-7.25070	6.73123
27.14196	-7.25070	6.73123
27.14641	-7.25070	6.73123
27.15061	-7.25070	6.73123
27.15491	-7.22873	6.73123
27.15909	-7.25070	6.73123
27.16328	-7.25070	6.73123
27.16747	-7.22873	6.73123
27.17165	-7.22873	6.73123
27.17591	-7.22873	6.73123
27.18018	-7.22873	6.73123
27.18438	-7.22873	6.73123
27.18857	-7.20675	6.73123
27.19275	-7.20675	6.73123
27.19696	-7.20675	6.73123
27.20114	-7.20675	6.73123
27.20545	-7.20675	6.73123
27.20974	-7.20675	6.73123
27.21396	-7.20675	6.73123
27.21815	-7.20675	6.73123
27.22234	-7.20675	6.73123
27.22652	-7.18478	6.73123
27.23071	-7.18478	6.73123
27.23490	-7.20675	6.73123
27.23920	-7.18478	6.73123
27.24340	-7.18478	6.73123
27.24759	-7.18478	6.73123
27.25178	-7.18478	6.73123
27.25607	-7.18478	6.73123
27.26025	-7.18478	6.73123
27.26444	-7.16281	6.73123
27.26887	-7.18478	6.73123
27.27308	-7.16281	6.73123
27.27727	-7.16281	6.73123
27.28146	-7.16281	6.73123
27.28564	-7.16281	6.73123
27.28983	-7.16281	6.73123
27.29401	-7.16281	6.73123
27.29828	-7.16281	6.73123
27.30255	-7.16281	6.73123
27.30676	-7.16281	6.73123
27.31095	-7.16281	6.73123
27.31515	-7.14084	6.73123
27.31934	-7.16281	6.73123
27.32353	-7.14084	6.73123
27.32778	-7.14084	6.73123
27.33207	-7.16281	6.73123
27.33627	-7.14084	6.73123
27.34046	-7.14084	6.73123
27.34465	-7.14084	6.73123
27.34884	-7.14084	6.73123
27.35303	-7.14084	6.73123
27.35733	-7.14084	6.73123
27.36163	-7.14084	6.73123
27.36584	-7.14084	6.73123
27.37003	-7.14084	6.73123
27.37422	-7.14084	6.73123
27.37840	-7.14084	6.73123
27.38259	-7.11886	6.73123
27.38677	-7.11886	6.73123
27.39120	-7.11886	6.73123
27.39541	-7.11886	6.73123
27.39961	-7.11886	6.73123
27.40379	-7.11886	6.73123
27.40800	-7.11886	6.73123
27.41219	-7.11886	6.73123
27.41639	-7.11886	6.73123
27.42066	-7.11886	6.73123
27.42495	-7.11886	6.73123
27.42915	-7.11886	6.73123
27.43334	-7.11886	6.73123
27.43752	-7.11886	6.73123
27.44171	-7.11886	6.73123
27.44590	-7.09689	6.73123
27.45020	-7.11886	6.73123
27.45448	-7.11886	6.73123
27.45878	-7.11886	6.73123
27.46297	-7.09689	6.73123
27.46716	-7.11886	6.73123
27.47134	-7.11886	6.73123
27.47553	-7.11886	6.73123
27.47971	-7.09689	6.73123
27.48401	-7.09689	6.73123
27.48822	-7.09689	6.73123
27.49241	-7.09689	6.73123
27.49661	-7.11886	6.73123
27.50080	-7.11886	6.73123
27.50500	-7.11886	6.73123
27.50920	-7.11886	6.73123
27.51365	-7.11886	6.73123
27.51786	-7.11886	6.73123
27.52205	-7.11886	6.73123
27.52624	-7.11886	6.73123
27.53042	-7.11886	6.73123
27.53461	-7.11886	6.73123
27.53880	-7.11886	6.73123
27.54307	-7.11886	6.73123
27.54735	-7.11886	6.73123
27.55155	-7.11886	6.73123
27.55574	-7.11886	6.73123
27.56003	-7.11886	6.73123
27.56421	-7.11886	6.73123
27.56840	-7.11886	6.73123
27.57265	-7.14084	6.73123
27.57694	-7.14084	6.73123
27.58115	-7.14084	6.73123
27.58534	-7.14084	6.73123
27.58953	-7.14084	6.73123
27.59371	-7.14084	6.73123
27.59790	-7.14084	6.73123
27.60208	-7.16281	6.73123
27.60640	-7.16281	6.73123
27.61061	-7.16281	6.73123
27.61481	-7.16281	6.73123
27.61900	-7.16281	6.73123
27.62318	-7.18478	6.73123
27.62737	-7.18478	6.73123
27.63156	-7.18478	6.73123
27.63599	-7.18478	6.73123
27.64020	-7.18478	6.73123
27.64438	-7.18478	6.73123
27.64857	-7.20675	6.73123
27.65276	-7.20675	6.73123
27.65695	-7.20675	6.73123
27.66124	-7.20675	6.73123
27.66551	-7.22873	6.73123
27.66978	-7.22873	6.73123
27.67398	-7.22873	6.73123
27.67816	-7.22873	6.73123
27.68235	-7.25070	6.73123
27.68654	-7.25070	6.73123
27.69072	-7.25070	6.73123
27.69496	-7.27267	6.73123
27.69924	-7.27267	6.73123
27.70345	-7.27267	6.73123
27.70765	-7.29464	6.73123
27.71185	-7.29464	6.73123
27.71605	-7.29464	6.73123
27.72023	-7.29464	6.73123
27.72442	-7.29464	6.73123
27.72873	-7.31662	6.73123
27.73296	-7.33859	6.73123
27.73715	-7.33859	6.73123
27.74134	-7.33859	6.73123
27.74553	-7.33859	6.73123
27.74971	-7.33859	6.73123
27.75390	-7.36056	6.73123
27.75832	-7.36056	6.73123
27.76265	-7.38254	6.73123
27.76684	-7.38254	6.73123
27.77102	-7.38254	6.73123
27.77521	-7.40451	6.73123
27.77939	-7.40451	6.73123
27.78358	-7.40451	6.73123
27.78784	-7.42648	6.73123
27.79211	-7.44845	6.73123
27.79631	-7.44845	6.73123
27.80049	-7.44845	6.73123
27.80468	-7.44845	6.73123
27.80888	-7.47043	6.73123
27.81307	-7.47043	6.73123
27.81734	-7.47043	6.73123
27.82162	-7.47043	6.73123
27.82583	-7.49240	6.73123
27.83002	-7.49240	6.73123
27.83421	-7.51437	6.73123
27.83840	-7.51437	6.73123
27.84258	-7.51437	6.73123
27.84677	-7.51437	6.73123
27.85106	-7.55832	6.73123
27.85526	-7.55832	6.73123
27.85945	-7.55832	6.73123
27.86374	-7.55832	6.73123
27.86793	-7.58029	6.73123
27.87211	-7.58029	6.73123
27.87630	-7.60226	6.73123
27.88074	-7.60226	6.73123
27.88496	-7.60226	6.73123
27.88915	-7.60226	6.73123
27.89333	-7.62423	6.73123
27.89753	-7.62423	6.73123
27.90171	-7.64621	6.73123
27.90590	-7.64621	6.73123
27.91018	-7.64621	6.73123
27.91446	-7.64621	6.73123
27.91866	-7.66818	6.73123
27.92285	-7.66818	6.73123
27.92703	-7.66818	6.73123
27.93122	-7.66818	6.73123
27.93540	-7.69015	6.73123
27.93965	-7.69015	6.73123
27.94393	-7.69015	6.73123
27.94814	-7.71213	6.73123
27.95232	-7.71213	6.73123
27.95651	-7.73410	6.73123
27.96069	-7.73410	6.73123
27.96500	-7.73410	6.73123
27.96919	-7.73410	6.73123
27.97349	-7.75607	6.73123
27.97769	-7.75607	6.73123
27.98188	-7.77804	6.73123
27.98606	-7.77804	6.73123
27.99025	-7.77804	6.73123
27.99443	-7.77804	6.73123
27.99863	-7.80002	6.73123
28.00305	-7.77804	6.73123
28.00728	-7.80002	6.73123
28.01147	-7.80002	6.73123
28.01569	-7.80002	6.73123
28.01988	-7.80002	6.73123
28.02407	-7.82199	6.73123
28.02826	-7.82199	6.73123
28.03253	-7.82199	6.73123
28.03680	-7.84396	6.73123
28.04101	-7.84396	6.73123
28.04520	-7.84396	6.73123
28.04939	-7.84396	6.73123
28.05358	-7.84396	6.73123
28.05776	-7.86593	6.73123
28.06200	-7.86593	6.73123
28.06639	-7.86593	6.73123
28.07059	-7.86593	6.73123
28.07477	-7.86593	6.73123
28.07897	-7.86593	6.73123
28.08315	-7.88791	6.73123
28.08734	-7.88791	6.73123
28.09152	-7.88791	6.73123
28.09584	-7.88791	6.73123
28.10006	-7.90988	6.73123
28.10424	-7.90988	6.73123
28.10845	-7.90988	6.73123
28.11264	-7.90988	6.73123
28.11682	-7.90988	6.73123
28.12102	-7.90988	6.73123
28.12544	-7.90988	6.73123
28.12965	-7.93185	6.73123
28.13384	-7.93185	6.73123
28.13802	-7.93185	6.73123
28.14221	-7.93185	6.73123
28.14640	-7.93185	6.73123
28.15058	-7.93185	6.73123
28.15484	-7.93185	6.73123
28.15910	-7.93185	6.73123
28.16330	-7.93185	6.73123
28.16760	-7.95382	6.73123
28.17178	-7.95382	6.73123
28.17597	-7.95382	6.73123
28.18015	-7.95382	6.73123
28.18440	-7.93185	6.73123
28.18867	-7.95382	6.73123
28.19287	-7.95382	6.73123
28.19706	-7.95382	6.73123
28.20125	-7.95382	6.73123
28.20543	-7.95382	6.73123
28.20964	-7.95382	6.73123
28.21383	-7.95382	6.73123
28.21812	-7.97580	6.73123
28.22233	-7.95382	6.73123
28.22652	-7.95382	6.73123
28.23071	-7.97580	6.73123
28.23490	-7.97580	6.73123
28.23908	-7.97580	6.73123
28.24327	-7.97580	6.73123
28.24771	-7.97580	6.73123
28.25191	-7.97580	6.73123
28.25610	-7.97580	6.73123
28.26029	-7.97580	6.73123
28.26447	-7.97580	6.73123
28.26876	-7.97580	6.73123
28.27296	-7.97580	6.73123
28.27723	-7.97580	6.73123
28.28150	-7.97580	6.73123
28.28570	-7.97580	6.73123
28.28988	-7.97580	6.73123
28.29407	-7.97580	6.73123
28.29825	-7.97580	6.73123
28.30245	-7.97580	6.73123
28.30675	-7.97580	6.73123
28.31105	-7.97580	6.73123
28.31526	-7.97580	6.73123
28.31945	-7.95382	6.73123
28.32364	-7.95382	6.73123
28.32782	-7.97580	6.73123
28.33201	-7.95382	6.73123
28.33619	-7.95382	6.73123
28.34049	-7.97580	6.73123
28.34469	-7.95382	6.73123
28.34888	-7.95382	6.73123
28.35307	-7.95382	6.73123
28.35726	-7.95382	6.73123
28.36148	-7.95382	6.73123
28.36568	-7.95382	6.73123
28.37025	-7.95382	6.73123
28.37446	-7.95382	6.73123
28.37865	-7.95382	6.73123
28.38284	-7.95382	6.73123
28.38703	-7.95382	6.73123
28.39122	-7.95382	6.73123
28.39541	-7.95382	6.73123
28.39969	-7.95382	6.73123
28.40396	-7.95382	6.73123
28.40817	-7.95382	6.73123
28.41238	-7.95382	6.73123
28.41658	-7.95382	6.73123
28.42078	-7.93185	6.73123
28.42498	-7.93185	6.73123
28.42925	-7.93185	6.73123
28.43354	-7.93185	6.73123
28.43775	-7.93185	6.73123
28.44194	-7.93185	6.73123
28.44613	-7.93185	6.73123
28.45032	-7.93185	6.73123
28.45451	-7.90988	6.73123
28.45870	-7.93185	6.73123
28.46301	-7.90988	6.73123
28.46722	-7.90988	6.73123
28.47152	-7.90988	6.73123
28.47570	-7.90988	6.73123
28.47989	-7.90988	6.73123
28.48408	-7.90988	6.73123
28.48826	-7.90988	6.73123
28.49270	-7.90988	6.73123
28.49691	-7.90988	6.73123
28.50107	-7.90988	6.73123
28.50525	-7.90988	6.73123
28.50946	-7.90988	6.73123
28.51365	-7.88791	6.73123
28.51785	-7.88791	6.73123
28.52212	-7.88791	6.73123
28.52640	-7.88791	6.73123
28.53060	-7.88791	6.73123
28.53479	-7.88791	6.73123
28.53898	-7.88791	6.73123
28.54316	-7.88791	6.73123
28.54735	-7.88791	6.73123
28.55161	-7.86593	6.73123
28.55589	-7.88791	6.73123
28.56008	-7.88791	6.73123
28.56427	-7.86593	6.73123
28.56846	-7.88791	6.73123
28.57275	-7.88791	6.73123
28.57694	-7.86593	6.73123
28.58113	-7.86593	6.73123
28.58543	-7.86593	6.73123
28.58963	-7.86593	6.73123
28.59382	-7.86593	6.73123
28.59800	-7.86593	6.73123
28.60219	-7.86593	6.73123
28.60638	-7.86593	6.73123
28.61057	-7.86593	6.73123
28.61502	-7.86593	6.73123
28.61923	-7.86593	6.73123
28.62342	-7.86593	6.73123
28.62761	-7.84396	6.73123
28.63179	-7.86593	6.73123
28.63598	-7.84396	6.73123
28.64016	-7.84396	6.73123
28.64443	-7.84396	6.73123
28.64873	-7.84396	6.73123
28.65296	-7.86593	6.73123
28.65717	-7.86593	6.73123
28.66138	-7.84396	6.73123
28.66558	-7.84396	6.73123
28.66979	-7.84396	6.73123
28.67576	-7.84396	6.73123
28.68001	-7.84396	6.73123
28.68420	-7.84396	6.73123
28.68839	-7.84396	6.73123
28.69258	-7.86593	6.73123
28.69676	-7.84396	6.73123
28.70096	-7.86593	6.73123
28.70525	-7.84396	6.73123
28.70956	-7.84396	6.73123
28.71378	-7.84396	6.73123
28.71797	-7.86593	6.73123
28.72216	-7.86593	6.73123
28.72635	-7.86593	6.73123
28.73053	-7.84396	6.73123
28.73472	-7.86593	6.73123
28.73902	-7.86593	6.73123
28.74324	-7.86593	6.73123
28.74743	-7.86593	6.73123
28.75161	-7.86593	6.73123
28.75580	-7.86593	6.73123
28.75999	-7.86593	6.73123
28.76417	-7.86593	6.73123
28.76857	-7.86593	6.73123
28.77279	-7.84396	6.73123
28.77709	-7.86593	6.73123
28.78128	-7.86593	6.73123
28.78547	-7.88791	6.73123
28.78966	-7.86593	6.73123
28.79384	-7.86593	6.73123
28.79812	-7.86593	6.73123
28.80238	-7.88791	6.73123
28.80658	-7.86593	6.73123
28.81078	-7.88791	6.73123
28.81498	-7.86593	6.73123
28.81917	-7.86593	6.73123
28.82338	-7.86593	6.73123
28.82765	-7.88791	6.73123
28.83194	-7.88791	6.73123
28.83614	-7.88791	6.73123
28.84033	-7.88791	6.73123
28.84452	-7.88791	6.73123
28.84871	-7.88791	6.73123
28.85289	-7.88791	6.73123
28.85707	-7.88791	6.73123
28.86137	-7.88791	6.73123
28.86558	-7.88791	6.73123
28.86977	-7.88791	6.73123
28.87395	-7.88791	6.73123
28.87824	-7.90988	6.73123
28.88243	-7.88791	6.73123
28.88662	-7.90988	6.73123
28.89102	-7.90988	6.73123
28.89523	-7.90988	6.73123
28.89942	-7.90988	6.73123
28.90361	-7.90988	6.73123
28.90781	-7.90988	6.73123
28.91202	-7.90988	6.73123
28.91620	-7.90988	6.73123
28.92048	-7.90988	6.73123
28.92475	-7.90988	6.73123
28.92897	-7.90988	6.73123
28.93316	-7.90988	6.73123
28.93735	-7.90988	6.73123
28.94154	-7.90988	6.73123
28.94572	-7.90988	6.73123
28.94997	-7.90988	6.73123
28.95425	-7.90988	6.73123
28.95845	-7.93185	6.73123
28.96264	-7.90988	6.73123
28.96682	-7.90988	6.73123
28.97101	-7.93185	6.73123
28.97520	-7.90988	6.73123
28.97952	-7.90988	6.73123
28.98383	-7.93185	6.73123
28.98804	-7.90988	6.73123
28.99223	-7.93185	6.73123
28.99643	-7.93185	6.73123
29.00062	-7.93185	6.73123
29.00481	-7.93185	6.73123
29.00902	-7.93185	6.73123
29.01346	-7.93185	6.73123
29.01768	-7.93185	6.73123
29.02187	-7.93185	6.73123
29.02606	-7.95382	6.73123
29.03025	-7.95382	6.73123
29.03444	-7.93185	6.73123
29.03863	-7.93185	6.73123
29.04290	-7.93185	6.73123
29.04717	-7.93185	6.73123
29.05136	-7.93185	6.73123
29.05555	-7.93185	6.73123
29.05974	-7.93185	6.73123
29.06392	-7.93185	6.73123
29.06811	-7.93185	6.73123
29.07236	-7.93185	6.73123
29.07664	-7.93185	6.73123
29.08097	-7.93185	6.73123
29.08516	-7.93185	6.73123
29.08935	-7.93185	6.73123
29.09354	-7.93185	6.73123
29.09772	-7.93185	6.73123
29.10191	-7.93185	6.73123
29.10621	-7.93185	6.73123
29.11043	-7.93185	6.73123
29.11464	-7.93185	6.73123
29.11883	-7.93185	6.73123
29.12302	-7.93185	6.73123
29.12720	-7.93185	6.73123
29.13139	-7.93185	6.73123
29.13580	-7.93185	6.73123
29.14001	-7.93185	6.73123
29.14420	-7.93185	6.73123
29.14840	-7.93185	6.73123
29.15259	-7.93185	6.73123
29.15677	-7.93185	6.73123
29.16099	-7.93185	6.73123
29.16528	-7.93185	6.73123
29.16955	-7.90988	6.73123
29.17375	-7.93185	6.73123
29.17795	-7.93185	6.73123
29.18224	-7.90988	6.73123
29.18643	-7.93185	6.73123
29.19061	-7.93185	6.73123
29.19488	-7.90988	6.73123
29.19917	-7.90988	6.73123
29.20338	-7.90988	6.73123
29.20757	-7.93185	6.73123
29.21175	-7.90988	6.73123
29.21592	-7.90988	6.73123
29.22009	-7.90988	6.73123
29.22425	-7.90988	6.73123
29.22854	-7.90988	6.73123
29.23273	-7.90988	6.73123
29.23690	-7.90988	6.73123
29.24104	-7.90988	6.73123
29.24520	-7.90988	6.73123
29.24937	-7.90988	6.73123
29.25353	-7.90988	6.73123
29.25786	-7.90988	6.73123
29.26206	-7.90988	6.73123
29.26623	-7.88791	6.73123
29.27039	-7.88791	6.73123
29.27455	-7.90988	6.73123
29.27872	-7.88791	6.73123
29.28297	-7.90988	6.73123
29.28730	-7.90988	6.73123
29.29154	-7.88791	6.73123
29.29572	-7.88791	6.73123
29.29988	-7.88791	6.73123
29.30405	-7.88791	6.73123
29.30823	-7.88791	6.73123
29.31243	-7.88791	6.73123
29.31669	-7.88791	6.73123
29.32099	-7.88791	6.73123
29.32519	-7.88791	6.73123
29.32938	-7.88791	6.73123
29.33356	-7.88791	6.73123
29.33775	-7.88791	6.73123
29.34194	-7.88791	6.73123
29.34612	-7.88791	6.73123
29.35042	-7.88791	6.73123
29.35462	-7.88791	6.73123
29.35881	-7.88791	6.73123
29.36300	-7.88791	6.73123
29.36719	-7.88791	6.73123
29.37138	-7.86593	6.73123
29.37556	-7.86593	6.73123
29.37999	-7.86593	6.73123
29.38431	-7.86593	6.73123
29.38850	-7.86593	6.73123
29.39268	-7.86593	6.73123
29.39687	-7.86593	6.73123
29.40107	-7.86593	6.73123
29.40526	-7.86593	6.73123
29.40955	-7.86593	6.73123
29.41383	-7.86593	6.73123
29.41808	-7.86593	6.73123
29.42229	-7.86593	6.73123
29.42648	-7.86593	6.73123
29.43067	-7.86593	6.73123
29.43485	-7.84396	6.73123
29.43912	-7.86593	6.73123
29.44340	-7.86593	6.73123
29.44764	-7.84396	6.73123
29.45183	-7.84396	6.73123
29.45602	-7.84396	6.73123
29.46021	-7.84396	6.73123
29.46440	-7.84396	6.73123
29.46858	-7.84396	6.73123
29.47289	-7.84396	6.73123
29.47708	-7.84396	6.73123
29.48127	-7.84396	6.73123
29.48556	-7.84396	6.73123
29.48975	-7.84396	6.73123
29.49393	-7.84396	6.73123
29.49812	-7.82199	6.73123
29.50255	-7.84396	6.73123
29.50676	-7.84396	6.73123
29.51097	-7.82199	6.73123
29.51516	-7.82199	6.73123
29.51935	-7.82199	6.73123
29.52354	-7.82199	6.73123
29.52772	-7.82199	6.73123
29.53199	-7.80002	6.73123
29.53626	-7.80002	6.73123
29.54045	-7.80002	6.73123
29.54464	-7.80002	6.73123
29.54883	-7.80002	6.73123
29.55302	-7.80002	6.73123
29.55720	-7.80002	6.73123
29.56146	-7.80002	6.73123
29.56575	-7.80002	6.73123
29.56995	-7.80002	6.73123
29.57413	-7.80002	6.73123
29.57832	-7.80002	6.73123
29.58251	-7.80002	6.73123
29.58680	-7.80002	6.73123
29.59099	-7.77804	6.73123
29.59530	-7.77804	6.73123
29.59950	-7.77804	6.73123
29.60369	-7.77804	6.73123
29.60788	-7.77804	6.73123
29.61208	-7.77804	6.73123
29.61627	-7.77804	6.73123
29.62045	-7.77804	6.73123
29.62488	-7.77804	6.73123
29.62909	-7.77804	6.73123
29.63328	-7.77804	6.73123
29.63746	-7.77804	6.73123
29.64165	-7.75607	6.73123
29.64583	-7.75607	6.73123
29.65002	-7.77804	6.73123
29.65428	-7.77804	6.73123
29.65854	-7.75607	6.73123
29.66274	-7.75607	6.73123
29.66693	-7.75607	6.73123
29.67111	-7.77804	6.73123
29.67529	-7.77804	6.73123
29.67948	-7.75607	6.73123
29.68372	-7.75607	6.73123
29.68811	-7.75607	6.73123
29.69231	-7.75607	6.73123
29.69650	-7.75607	6.73123
29.70068	-7.75607	6.73123
29.70487	-7.75607	6.73123
29.70908	-7.75607	6.73123
29.71328	-7.75607	6.73123
29.71759	-7.75607	6.73123
29.72179	-7.75607	6.73123
29.72598	-7.75607	6.73123
29.73018	-7.75607	6.73123
29.73437	-7.75607	6.73123
29.73855	-7.75607	6.73123
29.74274	-7.75607	6.73123
29.74717	-7.75607	6.73123
29.75138	-7.75607	6.73123
29.75557	-7.75607	6.73123
29.75975	-7.75607	6.73123
29.76394	-7.75607	6.73123
29.76812	-7.75607	6.73123
29.77231	-7.75607	6.73123
29.77658	-7.75607	6.73123
29.78085	-7.75607	6.73123
29.78505	-7.75607	6.73123
29.78935	-7.75607	6.73123
29.79353	-7.77804	6.73123
29.79772	-7.77804	6.73123
29.80190	-7.77804	6.73123
29.80615	-7.77804	6.73123
29.81045	-7.77804	6.73123
29.81467	-7.75607	6.73123
29.81886	-7.77804	6.73123
29.82305	-7.77804	6.73123
29.82723	-7.77804	6.73123
29.83142	-7.77804	6.73123
29.83560	-7.77804	6.73123
29.83991	-7.77804	6.73123
29.84411	-7.77804	6.73123
29.84830	-7.77804	6.73123
29.85249	-7.77804	6.73123
29.85667	-7.80002	6.73123
29.86086	-7.77804	6.73123
29.86505	-7.80002	6.73123
29.86947	-7.80002	6.73123
29.87367	-7.80002	6.73123
29.87786	-7.80002	6.73123
29.88205	-7.80002	6.73123
29.88624	-7.80002	6.73123
29.89053	-7.80002	6.73123
29.89472	-7.82199	6.73123
29.89899	-7.82199	6.73123
29.90325	-7.82199	6.73123
29.90744	-7.82199	6.73123
29.91166	-7.82199	6.73123
29.91586	-7.82199	6.73123
29.92004	-7.82199	6.73123
29.92423	-7.82199	6.73123
29.92849	-7.82199	6.73123
29.93276	-7.84396	6.73123
29.93697	-7.84396	6.73123
29.94116	-7.84396	6.73123
29.94535	-7.84396	6.73123
29.94954	-7.86593	6.73123
29.95372	-7.86593	6.73123
29.95791	-7.84396	6.73123
29.96220	-7.86593	6.73123
29.96640	-7.88791	6.73123
29.97059	-7.86593	6.73123
29.97477	-7.86593	6.73123
29.97896	-7.86593	6.73123
29.98318	-7.86593	6.73123
29.98737	-7.88791	6.73123
29.99194	-7.88791	6.73123
29.99615	-7.88791	6.73123
