Time (s)   roll (deg)   Delta
0.00038	-1.58175	11.27051
0.00461	-1.60373	11.27051
0.00881	-1.60373	11.27051
0.01298	-1.60373	11.27051
0.01721	-1.62570	11.27051
0.02147	-1.62570	11.27051
0.02566	-1.62570	11.27051
0.02982	-1.62570	11.27051
0.03399	-1.62570	11.27051
0.03816	-1.62570	11.27051
0.04233	-1.64767	11.27051
0.04649	-1.64767	11.27051
0.05088	-1.64767	11.27051
0.05507	-1.64767	11.27051
0.05924	-1.66964	11.27051
0.06341	-1.66964	11.27051
0.06757	-1.66964	11.27051
0.07174	-1.66964	11.27051
0.07591	-1.66964	11.27051
0.08016	-1.69162	11.27051
0.08442	-1.69162	11.27051
0.08860	-1.71359	11.27051
0.09278	-1.71359	11.27051
0.09695	-1.71359	11.27051
0.10121	-1.73556	11.27051
0.10538	-1.73556	11.27051
0.10955	-1.75754	11.27051
0.11386	-1.75754	11.27051
0.11806	-1.77951	11.27051
0.12225	-1.77951	11.27051
0.12644	-1.77951	11.27051
0.13063	-1.80148	11.27051
0.13481	-1.82345	11.27051
0.13900	-1.84543	11.27051
0.14326	-1.86740	11.27051
0.14752	-1.86740	11.27051
0.15171	-1.91134	11.27051
0.15590	-1.91134	11.27051
0.16008	-1.93332	11.27051
0.16426	-1.95529	11.27051
0.16845	-1.97726	11.27051
0.17261	-2.02121	11.27051
0.17690	-2.02121	11.27051
0.18110	-2.06515	11.27051
0.18529	-2.06515	11.27051
0.18947	-2.08713	11.27051
0.19365	-2.10910	11.27051
0.19783	-2.15304	11.27051
0.20212	-2.17502	11.27051
0.20655	-2.17502	11.27051
0.21076	-2.21896	11.27051
0.21494	-2.26291	11.27051
0.21913	-2.30685	11.27051
0.22331	-2.32882	11.27051
0.22760	-2.37277	11.27051
0.23181	-2.41672	11.27051
0.23611	-2.41672	11.27051
0.24040	-2.46066	11.27051
0.24461	-2.50461	11.27051
0.24880	-2.54855	11.27051
0.25298	-2.59250	11.27051
0.25717	-2.63644	11.27051
0.26135	-2.63644	11.27051
0.26553	-2.70236	11.27051
0.26983	-2.74631	11.27051
0.27403	-2.79025	11.27051
0.27821	-2.83420	11.27051
0.28240	-2.83420	11.27051
0.28658	-2.90011	11.27051
0.29076	-2.96603	11.27051
0.29494	-3.03195	11.27051
0.29919	-3.07589	11.27051
0.30355	-3.14181	11.27051
0.30775	-3.18576	11.27051
0.31193	-3.18576	11.27051
0.31611	-3.25168	11.27051
0.32030	-3.31759	11.27051
0.32448	-3.38351	11.27051
0.32867	-3.44943	11.27051
0.33296	-3.51535	11.27051
0.33716	-3.51535	11.27051
0.34134	-3.58127	11.27051
0.34553	-3.66916	11.27051
0.34971	-3.71310	11.27051
0.35390	-3.77902	11.27051
0.35808	-3.86691	11.27051
0.36233	-3.93283	11.27051
0.36659	-3.93283	11.27051
0.37078	-4.02072	11.27051
0.37496	-4.08664	11.27051
0.37915	-4.17453	11.27051
0.38333	-4.26242	11.27051
0.38751	-4.26242	11.27051
0.39169	-4.32834	11.27051
0.39598	-4.39425	11.27051
0.40018	-4.48214	11.27051
0.40449	-4.57004	11.27051
0.40868	-4.65793	11.27051
0.41287	-4.74582	11.27051
0.41705	-4.74582	11.27051
0.42123	-4.83371	11.27051
0.42565	-4.89963	11.27051
0.42985	-4.98752	11.27051
0.43404	-5.05343	11.27051
0.43822	-5.16330	11.27051
0.44240	-5.25119	11.27051
0.44659	-5.25119	11.27051
0.45077	-5.33908	11.27051
0.45513	-5.44894	11.27051
0.45942	-5.53683	11.27051
0.46362	-5.62472	11.27051
0.46781	-5.73459	11.27051
0.47199	-5.73459	11.27051
0.47617	-5.84445	11.27051
0.48036	-5.91037	11.27051
0.48455	-6.02023	11.27051
0.48884	-6.10812	11.27051
0.49305	-6.21798	11.27051
0.49723	-6.21798	11.27051
0.50142	-6.30588	11.27051
0.50570	-6.41574	11.27051
0.50990	-6.50363	11.27051
0.51408	-6.61349	11.27051
0.51833	-6.72336	11.27051
0.52258	-6.72336	11.27051
0.52678	-6.83322	11.27051
0.53096	-6.94308	11.27051
0.53514	-7.05295	11.27051
0.53932	-7.14084	11.27051
0.54351	-7.14084	11.27051
0.54769	-7.27267	11.27051
0.55198	-7.38254	11.27051
0.55618	-7.49240	11.27051
0.56037	-7.60226	11.27051
0.56456	-7.69015	11.27051
0.56874	-7.80002	11.27051
0.57293	-7.80002	11.27051
0.57711	-7.93185	11.27051
0.58136	-8.04172	11.27051
0.58562	-8.15158	11.27051
0.58981	-8.26144	11.27051
0.59400	-8.39328	11.27051
0.59818	-8.39328	11.27051
0.60236	-8.50314	11.27051
0.60665	-8.59103	11.27051
0.61083	-8.72287	11.27051
0.61513	-8.85470	11.27051
0.61933	-8.94259	11.27051
0.62351	-9.07443	11.27051
0.62770	-9.07443	11.27051
0.63188	-9.18429	11.27051
0.63606	-9.31613	11.27051
0.64025	-9.42599	11.27051
0.64451	-9.55783	11.27051
0.64878	-9.64572	11.27051
0.65297	-9.64572	11.27051
0.65715	-9.77756	11.27051
0.66133	-9.88742	11.27051
0.66552	-10.01925	11.27051
0.66970	-10.15109	11.27051
0.67388	-10.28293	11.27051
0.67818	-10.28293	11.27051
0.68238	-10.39279	11.27051
0.68656	-10.52463	11.27051
0.69075	-10.61252	11.27051
0.69493	-10.74435	11.27051
0.69912	-10.85422	11.27051
0.70330	-10.85422	11.27051
0.70766	-10.98605	11.27051
0.71192	-11.11789	11.27051
0.71611	-11.22775	11.27051
0.72029	-11.35959	11.27051
0.72449	-11.49142	11.27051
0.72867	-11.49142	11.27051
0.73285	-11.60129	11.27051
0.73704	-11.71115	11.27051
0.74133	-11.84298	11.27051
0.74552	-11.95285	11.27051
0.74971	-12.06271	11.27051
0.75389	-12.21652	11.27051
0.75807	-12.21652	11.27051
0.76225	-12.32638	11.27051
0.76644	-12.45822	11.27051
0.77068	-12.56808	11.27051
0.77494	-12.69992	11.27051
0.77913	-12.83175	11.27051
0.78331	-12.83175	11.27051
0.78749	-12.94162	11.27051
0.79168	-13.07345	11.27051
0.79586	-13.20529	11.27051
0.80004	-13.33713	11.27051
0.80433	-13.33713	11.27051
0.80866	-13.44699	11.27051
0.81284	-13.57882	11.27051
0.81702	-13.71066	11.27051
0.82121	-13.79855	11.27051
0.82539	-13.93039	11.27051
0.82957	-14.06222	11.27051
0.83400	-14.06222	11.27051
0.83821	-14.17209	11.27051
0.84240	-14.30392	11.27051
0.84658	-14.43576	11.27051
0.85076	-14.56759	11.27051
0.85495	-14.67746	11.27051
0.85913	-14.78732	11.27051
0.86339	-14.78732	11.27051
0.86766	-14.91916	11.27051
0.87186	-15.02902	11.27051
0.87604	-15.16086	11.27051
0.88023	-15.27072	11.27051
0.88441	-15.27072	11.27051
0.88860	-15.40256	11.27051
0.89278	-15.53439	11.27051
0.89707	-15.64425	11.27051
0.90127	-15.77609	11.27051
0.90546	-15.88595	11.27051
0.90975	-15.99582	11.27051
0.91393	-15.99582	11.27051
0.91811	-16.12765	11.27051
0.92230	-16.23752	11.27051
0.92655	-16.36935	11.27051
0.93080	-16.47922	11.27051
0.93499	-16.58908	11.27051
0.93917	-16.58908	11.27051
0.94336	-16.72091	11.27051
0.94754	-16.80881	11.27051
0.95172	-16.94064	11.27051
0.95591	-17.05050	11.27051
0.96020	-17.16037	11.27051
0.96440	-17.16037	11.27051
0.96860	-17.27023	11.27051
0.97278	-17.40207	11.27051
0.97696	-17.51193	11.27051
0.98115	-17.62179	11.27051
0.98533	-17.73166	11.27051
0.98958	-17.81955	11.27051
0.99384	-17.81955	11.27051
0.99803	-17.95138	11.27051
1.00221	-18.03927	11.27051
1.00639	-18.17111	11.27051
1.01068	-18.28097	11.27051
1.01486	-18.39084	11.27051
1.01905	-18.39084	11.27051
1.02334	-18.50070	11.27051
1.02754	-18.61056	11.27051
1.03173	-18.72043	11.27051
1.03591	-18.83029	11.27051
1.04010	-18.83029	11.27051
1.04428	-18.91818	11.27051
1.04846	-19.05002	11.27051
1.05269	-19.13791	11.27051
1.05694	-19.24777	11.27051
1.06113	-19.33566	11.27051
1.06532	-19.33566	11.27051
1.06950	-19.44552	11.27051
1.07368	-19.55539	11.27051
1.07786	-19.62131	11.27051
1.08204	-19.73117	11.27051
1.08633	-19.84103	11.27051
1.09052	-19.92892	11.27051
1.09471	-19.92892	11.27051
1.09889	-20.01681	11.27051
1.10307	-20.12668	11.27051
1.10726	-20.21457	11.27051
1.11155	-20.30246	11.27051
1.11599	-20.39035	11.27051
1.12020	-20.47824	11.27051
1.12439	-20.47824	11.27051
1.12858	-20.56613	11.27051
1.13277	-20.65402	11.27051
1.13695	-20.74191	11.27051
1.14114	-20.80783	11.27051
1.14545	-20.80783	11.27051
1.14974	-20.89572	11.27051
1.15394	-20.96164	11.27051
1.15812	-21.02756	11.27051
1.16231	-21.07150	11.27051
1.16649	-21.13742	11.27051
1.17067	-21.20334	11.27051
1.17486	-21.20334	11.27051
1.17915	-21.24728	11.27051
1.18335	-21.26925	11.27051
1.18754	-21.31320	11.27051
1.19173	-21.33517	11.27051
1.19591	-21.35714	11.27051
1.20009	-21.37912	11.27051
1.20428	-21.37912	11.27051
1.20855	-21.37912	11.27051
1.21291	-21.37912	11.27051
1.21710	-21.35714	11.27051
1.22128	-21.35714	11.27051
1.22546	-21.35714	11.27051
1.22965	-21.33517	11.27051
1.23386	-21.31320	11.27051
1.23805	-21.29123	11.27051
1.24236	-21.24728	11.27051
1.24659	-21.20334	11.27051
1.25078	-21.15939	11.27051
1.25497	-21.15939	11.27051
1.25915	-21.11545	11.27051
1.26334	-21.04953	11.27051
1.26752	-21.00558	11.27051
1.27178	-20.93966	11.27051
1.27604	-20.87375	11.27051
1.28024	-20.87375	11.27051
1.28442	-20.80783	11.27051
1.28861	-20.74191	11.27051
1.29279	-20.69797	11.27051
1.29697	-20.61007	11.27051
1.30116	-20.61007	11.27051
1.30545	-20.54416	11.27051
1.30966	-20.47824	11.27051
1.31396	-20.41232	11.27051
1.31814	-20.32443	11.27051
1.32233	-20.25851	11.27051
1.32651	-20.25851	11.27051
1.33069	-20.19259	11.27051
1.33512	-20.12668	11.27051
1.33933	-20.06076	11.27051
1.34352	-19.97287	11.27051
1.34771	-19.90695	11.27051
1.35189	-19.84103	11.27051
1.35608	-19.84103	11.27051
1.36026	-19.75314	11.27051
1.36455	-19.68722	11.27051
1.36883	-19.62131	11.27051
1.37303	-19.55539	11.27051
1.37721	-19.48947	11.27051
1.38140	-19.40158	11.27051
1.38558	-19.40158	11.27051
1.38977	-19.33566	11.27051
1.39395	-19.24777	11.27051
1.39825	-19.18185	11.27051
1.40246	-19.09396	11.27051
1.40664	-19.09396	11.27051
1.41083	-19.02804	11.27051
1.41513	-18.96213	11.27051
1.41931	-18.89621	11.27051
1.42350	-18.80832	11.27051
1.42775	-18.74240	11.27051
1.43202	-18.67648	11.27051
1.43621	-18.67648	11.27051
1.44040	-18.58859	11.27051
1.44459	-18.50070	11.27051
1.44877	-18.43478	11.27051
1.45296	-18.34689	11.27051
1.45716	-18.28097	11.27051
1.46147	-18.21506	11.27051
1.46568	-18.21506	11.27051
1.46987	-18.12716	11.27051
1.47406	-18.06125	11.27051
1.47824	-17.97336	11.27051
1.48243	-17.90744	11.27051
1.48661	-17.90744	11.27051
1.49104	-17.81955	11.27051
1.49525	-17.75363	11.27051
1.49944	-17.66574	11.27051
1.50362	-17.59982	11.27051
1.50781	-17.53390	11.27051
1.51199	-17.44601	11.27051
1.51629	-17.44601	11.27051
1.52056	-17.38009	11.27051
1.52483	-17.29220	11.27051
1.52902	-17.22629	11.27051
1.53320	-17.16037	11.27051
1.53739	-17.07248	11.27051
1.54157	-17.07248	11.27051
1.54575	-16.98459	11.27051
1.54994	-16.91867	11.27051
1.55423	-16.83078	11.27051
1.55844	-16.76486	11.27051
1.56262	-16.67697	11.27051
1.56681	-16.67697	11.27051
1.57099	-16.61105	11.27051
1.57517	-16.52316	11.27051
1.57935	-16.45724	11.27051
1.58360	-16.39132	11.27051
1.58786	-16.32541	11.27051
1.59205	-16.32541	11.27051
1.59624	-16.23752	11.27051
1.60042	-16.17160	11.27051
1.60460	-16.10568	11.27051
1.60878	-16.01779	11.27051
1.61297	-15.95187	11.27051
1.61736	-15.95187	11.27051
1.62155	-15.86398	11.27051
1.62574	-15.79806	11.27051
1.62992	-15.73214	11.27051
1.63410	-15.66623	11.27051
1.63828	-15.60031	11.27051
1.64246	-15.53439	11.27051
1.64688	-15.53439	11.27051
1.65109	-15.44650	11.27051
1.65527	-15.38058	11.27051
1.65946	-15.31466	11.27051
1.66364	-15.22677	11.27051
1.66782	-15.22677	11.27051
1.67200	-15.16086	11.27051
1.67626	-15.09494	11.27051
1.68056	-15.05099	11.27051
1.68476	-14.96310	11.27051
1.68895	-14.89718	11.27051
1.69313	-14.83127	11.27051
1.69731	-14.83127	11.27051
1.70150	-14.76535	11.27051
1.70568	-14.69943	11.27051
1.70997	-14.63351	11.27051
1.71417	-14.56759	11.27051
1.71846	-14.50168	11.27051
1.72264	-14.45773	11.27051
1.72682	-14.45773	11.27051
1.73101	-14.36984	11.27051
1.73519	-14.32589	11.27051
1.73944	-14.25998	11.27051
1.74370	-14.19406	11.27051
1.74789	-14.12814	11.27051
1.75207	-14.12814	11.27051
1.75625	-14.06222	11.27051
1.76043	-14.01828	11.27051
1.76461	-13.95236	11.27051
1.76879	-13.90841	11.27051
1.77308	-13.84250	11.27051
1.77728	-13.84250	11.27051
1.78146	-13.77658	11.27051
1.78564	-13.73263	11.27051
1.78983	-13.66672	11.27051
1.79401	-13.60080	11.27051
1.79819	-13.55685	11.27051
1.80244	-13.55685	11.27051
1.80669	-13.51291	11.27051
1.81089	-13.44699	11.27051
1.81507	-13.38107	11.27051
1.81937	-13.33713	11.27051
1.82355	-13.33713	11.27051
1.82773	-13.27121	11.27051
1.83191	-13.22726	11.27051
1.83620	-13.18332	11.27051
1.84040	-13.13937	11.27051
1.84460	-13.09543	11.27051
1.84878	-13.02951	11.27051
1.85297	-13.02951	11.27051
1.85715	-12.98556	11.27051
1.86134	-12.94162	11.27051
1.86559	-12.89767	11.27051
1.86985	-12.83175	11.27051
1.87404	-12.78781	11.27051
1.87823	-12.78781	11.27051
1.88241	-12.76584	11.27051
1.88659	-12.72189	11.27051
1.89077	-12.67795	11.27051
1.89496	-12.63400	11.27051
1.89925	-12.59006	11.27051
1.90345	-12.59006	11.27051
1.90763	-12.54611	11.27051
1.91182	-12.50216	11.27051
1.91600	-12.45822	11.27051
1.92028	-12.43625	11.27051
1.92447	-12.39230	11.27051
1.92868	-12.34836	11.27051
1.93294	-12.34836	11.27051
1.93714	-12.30441	11.27051
1.94133	-12.28244	11.27051
1.94552	-12.23849	11.27051
1.94971	-12.21652	11.27051
1.95389	-12.17257	11.27051
1.95808	-12.17257	11.27051
1.96238	-12.15060	11.27051
1.96659	-12.10666	11.27051
1.97077	-12.08468	11.27051
1.97496	-12.06271	11.27051
1.97916	-12.01877	11.27051
1.98334	-12.01877	11.27051
1.98753	-11.99679	11.27051
1.99195	-11.97482	11.27051
1.99616	-11.93088	11.27051
2.00035	-11.90890	11.27051
2.00455	-11.88693	11.27051
2.00874	-11.88693	11.27051
2.01293	-11.86496	11.27051
2.01712	-11.84298	11.27051
2.02155	-11.79904	11.27051
2.02584	-11.79904	11.27051
2.03003	-11.75509	11.27051
2.03422	-11.73312	11.27051
2.03841	-11.73312	11.27051
2.04260	-11.71115	11.27051
2.04679	-11.71115	11.27051
2.05098	-11.68918	11.27051
2.05528	-11.66720	11.27051
2.05949	-11.64523	11.27051
2.06368	-11.64523	11.27051
2.06787	-11.62326	11.27051
2.07206	-11.62326	11.27051
2.07625	-11.57931	11.27051
2.08044	-11.57931	11.27051
2.08485	-11.55734	11.27051
2.08905	-11.55734	11.27051
2.09324	-11.53537	11.27051
2.09743	-11.53537	11.27051
2.10162	-11.51339	11.27051
2.10581	-11.51339	11.27051
2.11001	-11.49142	11.27051
2.11430	-11.49142	11.27051
2.11859	-11.49142	11.27051
2.12292	-11.49142	11.27051
2.12711	-11.46945	11.27051
2.13130	-11.46945	11.27051
2.13549	-11.44748	11.27051
2.13968	-11.44748	11.27051
2.14387	-11.44748	11.27051
2.14819	-11.44748	11.27051
2.15239	-11.42550	11.27051
2.15659	-11.42550	11.27051
2.16079	-11.40353	11.27051
2.16498	-11.42550	11.27051
2.16917	-11.42550	11.27051
2.17336	-11.40353	11.27051
2.17780	-11.40353	11.27051
2.18201	-11.40353	11.27051
2.18621	-11.40353	11.27051
2.19039	-11.40353	11.27051
2.19458	-11.40353	11.27051
2.19876	-11.40353	11.27051
2.20295	-11.40353	11.27051
2.20720	-11.40353	11.27051
2.21148	-11.40353	11.27051
2.21567	-11.40353	11.27051
2.21985	-11.40353	11.27051
2.22414	-11.42550	11.27051
2.22833	-11.42550	11.27051
2.23252	-11.40353	11.27051
2.23673	-11.42550	11.27051
2.24105	-11.42550	11.27051
2.24526	-11.42550	11.27051
2.24945	-11.42550	11.27051
2.25364	-11.44748	11.27051
2.25782	-11.42550	11.27051
2.26201	-11.44748	11.27051
2.26619	-11.46945	11.27051
2.27061	-11.46945	11.27051
2.27483	-11.49142	11.27051
2.27902	-11.49142	11.27051
2.28320	-11.49142	11.27051
2.28738	-11.51339	11.27051
2.29157	-11.51339	11.27051
2.29575	-11.51339	11.27051
2.30001	-11.53537	11.27051
2.30429	-11.53537	11.27051
2.30851	-11.55734	11.27051
2.31270	-11.57931	11.27051
2.31688	-11.57931	11.27051
2.32106	-11.60129	11.27051
2.32535	-11.60129	11.27051
2.32954	-11.62326	11.27051
2.33383	-11.62326	11.27051
2.33804	-11.66720	11.27051
2.34222	-11.66720	11.27051
2.34641	-11.71115	11.27051
2.35059	-11.71115	11.27051
2.35478	-11.71115	11.27051
2.35896	-11.73312	11.27051
2.36321	-11.75509	11.27051
2.36747	-11.77707	11.27051
2.37166	-11.79904	11.27051
2.37586	-11.82101	11.27051
2.38004	-11.82101	11.27051
2.38423	-11.84298	11.27051
2.38841	-11.86496	11.27051
2.39260	-11.90890	11.27051
2.39689	-11.93088	11.27051
2.40110	-11.95285	11.27051
2.40528	-11.95285	11.27051
2.40947	-11.97482	11.27051
2.41365	-11.99679	11.27051
2.41783	-12.04074	11.27051
2.42202	-12.06271	11.27051
2.42655	-12.08468	11.27051
2.43075	-12.08468	11.27051
2.43493	-12.12863	11.27051
2.43912	-12.15060	11.27051
2.44334	-12.17257	11.27051
2.44754	-12.19455	11.27051
2.45173	-12.23849	11.27051
2.45599	-12.26047	11.27051
2.46028	-12.26047	11.27051
2.46449	-12.30441	11.27051
2.46869	-12.34836	11.27051
2.47289	-12.37033	11.27051
2.47708	-12.41427	11.27051
2.48126	-12.43625	11.27051
2.48545	-12.45822	11.27051
2.48975	-12.45822	11.27051
2.49396	-12.50216	11.27051
2.49815	-12.54611	11.27051
2.50233	-12.59006	11.27051
2.50652	-12.61203	11.27051
2.51070	-12.61203	11.27051
2.51489	-12.65597	11.27051
2.51914	-12.67795	11.27051
2.52342	-12.72189	11.27051
2.52773	-12.76584	11.27051
2.53192	-12.78781	11.27051
2.53610	-12.85373	11.27051
2.54029	-12.85373	11.27051
2.54448	-12.87570	11.27051
2.54867	-12.91964	11.27051
2.55296	-12.96359	11.27051
2.55717	-13.00754	11.27051
2.56136	-13.05148	11.27051
2.56555	-13.05148	11.27051
2.56973	-13.07345	11.27051
2.57391	-13.13937	11.27051
2.57809	-13.16134	11.27051
2.58252	-13.20529	11.27051
2.58673	-13.24923	11.27051
2.59092	-13.24923	11.27051
2.59510	-13.29318	11.27051
2.59929	-13.33713	11.27051
2.60347	-13.38107	11.27051
2.60765	-13.42502	11.27051
2.61194	-13.46896	11.27051
2.61623	-13.51291	11.27051
2.62043	-13.51291	11.27051
2.62462	-13.55685	11.27051
2.62890	-13.60080	11.27051
2.63309	-13.64474	11.27051
2.63727	-13.68869	11.27051
2.64146	-13.68869	11.27051
2.64575	-13.75461	11.27051
2.64995	-13.77658	11.27051
2.65413	-13.82052	11.27051
2.65832	-13.88644	11.27051
2.66251	-13.93039	11.27051
2.66669	-13.97433	11.27051
2.67087	-13.97433	11.27051
2.67513	-14.01828	11.27051
2.67940	-14.06222	11.27051
2.68359	-14.12814	11.27051
2.68778	-14.17209	11.27051
2.69197	-14.17209	11.27051
2.69615	-14.23800	11.27051
2.70034	-14.23800	11.27051
2.70453	-14.30392	11.27051
2.70883	-14.34787	11.27051
2.71302	-14.41379	11.27051
2.71721	-14.45773	11.27051
2.72139	-14.45773	11.27051
2.72558	-14.50168	11.27051
2.72987	-14.54562	11.27051
2.73405	-14.58957	11.27051
2.73849	-14.63351	11.27051
2.74270	-14.67746	11.27051
2.74689	-14.74338	11.27051
2.75107	-14.74338	11.27051
2.75526	-14.78732	11.27051
2.75944	-14.83127	11.27051
2.76362	-14.87521	11.27051
2.76789	-14.94113	11.27051
2.77216	-14.98507	11.27051
2.77637	-14.98507	11.27051
2.78056	-15.02902	11.27051
2.78475	-15.07297	11.27051
2.78893	-15.11691	11.27051
2.79312	-15.18283	11.27051
2.79730	-15.22677	11.27051
2.80160	-15.27072	11.27051
2.80580	-15.27072	11.27051
2.80999	-15.31466	11.27051
2.81417	-15.38058	11.27051
2.81836	-15.42453	11.27051
2.82256	-15.46847	11.27051
2.82675	-15.46847	11.27051
2.83113	-15.53439	11.27051
2.83539	-15.57834	11.27051
2.83959	-15.62228	11.27051
2.84378	-15.66623	11.27051
2.84796	-15.71017	11.27051
2.85215	-15.71017	11.27051
2.85633	-15.77609	11.27051
2.86053	-15.82004	11.27051
2.86483	-15.86398	11.27051
2.86903	-15.90793	11.27051
2.87322	-15.95187	11.27051
2.87740	-15.99582	11.27051
2.88159	-15.99582	11.27051
2.88577	-16.03976	11.27051
2.88995	-16.08371	11.27051
2.89421	-16.14963	11.27051
2.89847	-16.19357	11.27051
2.90266	-16.19357	11.27051
2.90685	-16.23752	11.27051
2.91103	-16.25949	11.27051
2.91522	-16.30343	11.27051
2.91940	-16.34738	11.27051
2.92358	-16.41330	11.27051
2.92788	-16.45724	11.27051
2.93220	-16.45724	11.27051
2.93638	-16.50119	11.27051
2.94058	-16.54513	11.27051
2.94476	-16.58908	11.27051
2.94895	-16.63302	11.27051
2.95313	-16.67697	11.27051
2.95756	-16.69894	11.27051
2.96177	-16.69894	11.27051
2.96595	-16.76486	11.27051
2.97014	-16.80881	11.27051
2.97432	-16.83078	11.27051
2.97851	-16.87472	11.27051
2.98269	-16.87472	11.27051
2.98695	-16.91867	11.27051
2.99123	-16.96261	11.27051
2.99543	-17.00656	11.27051
2.99962	-17.02853	11.27051
3.00380	-17.07248	11.27051
3.00799	-17.11642	11.27051
3.01217	-17.11642	11.27051
3.01635	-17.16037	11.27051
3.02066	-17.18234	11.27051
3.02488	-17.22629	11.27051
3.02906	-17.27023	11.27051
3.03335	-17.31418	11.27051
3.03753	-17.33615	11.27051
3.04172	-17.33615	11.27051
3.04590	-17.38009	11.27051
3.05015	-17.42404	11.27051
3.05450	-17.44601	11.27051
3.05870	-17.48996	11.27051
3.06289	-17.53390	11.27051
3.06708	-17.53390	11.27051
3.07126	-17.55588	11.27051
3.07545	-17.57785	11.27051
3.07963	-17.62179	11.27051
3.08392	-17.66574	11.27051
3.08813	-17.66574	11.27051
3.09231	-17.68771	11.27051
3.09651	-17.70968	11.27051
3.10069	-17.75363	11.27051
3.10488	-17.79757	11.27051
3.10911	-17.81955	11.27051
3.11340	-17.81955	11.27051
3.11762	-17.84152	11.27051
3.12181	-17.88547	11.27051
3.12600	-17.90744	11.27051
3.13019	-17.92941	11.27051
3.13447	-17.95138	11.27051
3.13866	-17.99533	11.27051
3.14296	-17.99533	11.27051
3.14725	-18.01730	11.27051
3.15144	-18.03927	11.27051
3.15563	-18.08322	11.27051
3.15981	-18.10519	11.27051
3.16400	-18.12716	11.27051
3.16818	-18.12716	11.27051
3.17237	-18.14914	11.27051
3.17668	-18.17111	11.27051
3.18088	-18.19308	11.27051
3.18507	-18.21506	11.27051
3.18925	-18.25900	11.27051
3.19344	-18.25900	11.27051
3.19762	-18.28097	11.27051
3.20181	-18.30295	11.27051
3.20606	-18.32492	11.27051
3.21032	-18.32492	11.27051
3.21451	-18.36886	11.27051
3.21869	-18.36886	11.27051
3.22287	-18.36886	11.27051
3.22706	-18.41281	11.27051
3.23124	-18.43478	11.27051
3.23558	-18.43478	11.27051
3.23989	-18.45675	11.27051
3.24410	-18.47873	11.27051
3.24829	-18.50070	11.27051
3.25249	-18.50070	11.27051
3.25667	-18.52267	11.27051
3.26086	-18.54464	11.27051
3.26504	-18.56662	11.27051
3.26945	-18.56662	11.27051
3.27366	-18.56662	11.27051
3.27785	-18.58859	11.27051
3.28203	-18.61056	11.27051
3.28621	-18.63254	11.27051
3.29040	-18.63254	11.27051
3.29458	-18.65451	11.27051
3.29884	-18.67648	11.27051
3.30311	-18.67648	11.27051
3.30731	-18.67648	11.27051
3.31150	-18.69845	11.27051
3.31568	-18.72043	11.27051
3.31986	-18.72043	11.27051
3.32405	-18.74240	11.27051
3.32823	-18.74240	11.27051
3.33254	-18.76437	11.27051
3.33685	-18.76437	11.27051
3.34104	-18.78634	11.27051
3.34522	-18.80832	11.27051
3.34941	-18.80832	11.27051
3.35359	-18.78634	11.27051
3.35777	-18.80832	11.27051
3.36202	-18.83029	11.27051
3.36628	-18.83029	11.27051
3.37047	-18.83029	11.27051
3.37466	-18.83029	11.27051
3.37884	-18.85226	11.27051
3.38303	-18.85226	11.27051
3.38721	-18.85226	11.27051
3.39139	-18.87423	11.27051
3.39569	-18.87423	11.27051
3.39989	-18.89621	11.27051
3.40407	-18.89621	11.27051
3.40826	-18.89621	11.27051
3.41245	-18.89621	11.27051
3.41661	-18.91818	11.27051
3.42079	-18.89621	11.27051
3.42504	-18.91818	11.27051
3.42930	-18.91818	11.27051
3.43349	-18.91818	11.27051
3.43778	-18.91818	11.27051
3.44197	-18.94015	11.27051
3.44615	-18.91818	11.27051
3.45033	-18.94015	11.27051
3.45452	-18.94015	11.27051
3.45883	-18.94015	11.27051
3.46304	-18.91818	11.27051
3.46723	-18.94015	11.27051
3.47142	-18.91818	11.27051
3.47561	-18.94015	11.27051
3.47980	-18.91818	11.27051
3.48398	-18.91818	11.27051
3.48841	-18.94015	11.27051
3.49264	-18.91818	11.27051
3.49682	-18.91818	11.27051
3.50101	-18.94015	11.27051
3.50519	-18.91818	11.27051
3.50937	-18.91818	11.27051
3.51356	-18.91818	11.27051
3.51782	-18.91818	11.27051
3.52209	-18.91818	11.27051
3.52630	-18.91818	11.27051
3.53048	-18.91818	11.27051
3.53466	-18.91818	11.27051
3.53895	-18.91818	11.27051
3.54314	-18.89621	11.27051
3.54732	-18.91818	11.27051
3.55161	-18.89621	11.27051
3.55581	-18.89621	11.27051
3.56000	-18.87423	11.27051
3.56420	-18.87423	11.27051
3.56838	-18.87423	11.27051
3.57258	-18.87423	11.27051
3.57676	-18.85226	11.27051
3.58102	-18.87423	11.27051
3.58527	-18.85226	11.27051
3.58946	-18.85226	11.27051
3.59365	-18.85226	11.27051
3.59783	-18.83029	11.27051
3.60201	-18.80832	11.27051
3.60620	-18.83029	11.27051
3.61038	-18.83029	11.27051
3.61468	-18.80832	11.27051
3.61887	-18.80832	11.27051
3.62306	-18.80832	11.27051
3.62724	-18.78634	11.27051
3.63143	-18.76437	11.27051
3.63561	-18.76437	11.27051
3.63990	-18.76437	11.27051
3.64433	-18.76437	11.27051
3.64854	-18.72043	11.27051
3.65273	-18.74240	11.27051
3.65691	-18.69845	11.27051
3.66110	-18.69845	11.27051
3.66528	-18.69845	11.27051
3.66946	-18.69845	11.27051
3.67373	-18.67648	11.27051
3.67800	-18.67648	11.27051
3.68220	-18.63254	11.27051
3.68638	-18.63254	11.27051
3.69056	-18.63254	11.27051
3.69475	-18.63254	11.27051
3.69893	-18.61056	11.27051
3.70311	-18.61056	11.27051
3.70741	-18.58859	11.27051
3.71161	-18.56662	11.27051
3.71579	-18.56662	11.27051
3.71998	-18.54464	11.27051
3.72416	-18.54464	11.27051
3.72834	-18.52267	11.27051
3.73254	-18.50070	11.27051
3.73680	-18.50070	11.27051
3.74116	-18.47873	11.27051
3.74535	-18.47873	11.27051
3.74954	-18.45675	11.27051
3.75372	-18.43478	11.27051
3.75790	-18.41281	11.27051
3.76209	-18.41281	11.27051
3.76627	-18.39084	11.27051
3.77057	-18.36886	11.27051
3.77477	-18.36886	11.27051
3.77896	-18.36886	11.27051
3.78314	-18.34689	11.27051
3.78733	-18.32492	11.27051
3.79151	-18.30295	11.27051
3.79569	-18.30295	11.27051
3.79994	-18.30295	11.27051
3.80420	-18.28097	11.27051
3.80839	-18.25900	11.27051
3.81259	-18.23703	11.27051
3.81677	-18.21506	11.27051
3.82095	-18.21506	11.27051
3.82513	-18.21506	11.27051
3.82932	-18.19308	11.27051
3.83361	-18.17111	11.27051
3.83781	-18.14914	11.27051
3.84210	-18.12716	11.27051
3.84628	-18.10519	11.27051
3.85046	-18.10519	11.27051
3.85465	-18.08322	11.27051
3.85883	-18.06125	11.27051
3.86325	-18.03927	11.27051
3.86746	-18.01730	11.27051
3.87164	-18.01730	11.27051
3.87583	-17.99533	11.27051
3.88001	-17.99533	11.27051
3.88419	-17.97336	11.27051
3.88838	-17.95138	11.27051
3.89265	-17.92941	11.27051
3.89693	-17.90744	11.27051
3.90113	-17.90744	11.27051
3.90532	-17.88547	11.27051
3.90950	-17.86349	11.27051
3.91368	-17.84152	11.27051
3.91787	-17.81955	11.27051
3.92205	-17.79757	11.27051
3.92635	-17.79757	11.27051
3.93055	-17.77560	11.27051
3.93474	-17.75363	11.27051
3.93892	-17.73166	11.27051
3.94322	-17.73166	11.27051
3.94740	-17.70968	11.27051
3.95158	-17.70968	11.27051
3.95583	-17.68771	11.27051
3.96010	-17.64377	11.27051
3.96429	-17.64377	11.27051
3.96848	-17.59982	11.27051
3.97267	-17.59982	11.27051
3.97685	-17.57785	11.27051
3.98103	-17.57785	11.27051
3.98522	-17.53390	11.27051
3.98951	-17.53390	11.27051
3.99372	-17.48996	11.27051
3.99790	-17.46798	11.27051
4.00209	-17.46798	11.27051
4.00627	-17.46798	11.27051
4.01045	-17.42404	11.27051
4.01464	-17.40207	11.27051
4.01889	-17.38009	11.27051
4.02316	-17.38009	11.27051
4.02735	-17.33615	11.27051
4.03154	-17.31418	11.27051
4.03572	-17.31418	11.27051
4.03993	-17.31418	11.27051
4.04424	-17.27023	11.27051
4.04843	-17.24826	11.27051
4.05274	-17.22629	11.27051
4.05696	-17.22629	11.27051
4.06116	-17.20431	11.27051
4.06536	-17.18234	11.27051
4.06954	-17.16037	11.27051
4.07374	-17.13839	11.27051
4.07792	-17.11642	11.27051
4.08235	-17.09445	11.27051
4.08657	-17.09445	11.27051
4.09076	-17.07248	11.27051
4.09495	-17.02853	11.27051
4.09913	-17.00656	11.27051
4.10331	-16.98459	11.27051
4.10750	-16.96261	11.27051
4.11177	-16.96261	11.27051
4.11604	-16.94064	11.27051
4.12024	-16.91867	11.27051
4.12442	-16.89670	11.27051
4.12861	-16.87472	11.27051
4.13279	-16.87472	11.27051
4.13698	-16.83078	11.27051
4.14116	-16.80881	11.27051
4.14556	-16.78683	11.27051
4.14976	-16.76486	11.27051
4.15394	-16.74289	11.27051
4.15813	-16.72091	11.27051
4.16232	-16.72091	11.27051
4.16651	-16.69894	11.27051
4.17070	-16.67697	11.27051
4.17514	-16.63302	11.27051
4.17935	-16.61105	11.27051
4.18354	-16.61105	11.27051
4.18772	-16.56711	11.27051
4.19191	-16.56711	11.27051
4.19611	-16.54513	11.27051
4.20029	-16.52316	11.27051
4.20460	-16.50119	11.27051
4.20889	-16.47922	11.27051
4.21310	-16.45724	11.27051
4.21729	-16.45724	11.27051
4.22148	-16.43527	11.27051
4.22566	-16.39132	11.27051
4.22984	-16.39132	11.27051
4.23403	-16.34738	11.27051
4.23836	-16.34738	11.27051
4.24259	-16.30343	11.27051
4.24689	-16.30343	11.27051
4.25108	-16.28146	11.27051
4.25526	-16.25949	11.27051
4.25945	-16.23752	11.27051
4.26363	-16.21554	11.27051
4.26807	-16.19357	11.27051
4.27228	-16.17160	11.27051
4.27648	-16.17160	11.27051
4.28067	-16.14963	11.27051
4.28485	-16.12765	11.27051
4.28903	-16.10568	11.27051
4.29322	-16.08371	11.27051
4.29747	-16.08371	11.27051
4.30175	-16.06173	11.27051
4.30595	-16.03976	11.27051
4.31013	-16.01779	11.27051
4.31432	-15.99582	11.27051
4.31850	-15.97384	11.27051
4.32268	-15.95187	11.27051
4.32687	-15.95187	11.27051
4.33116	-15.92990	11.27051
4.33536	-15.90793	11.27051
4.33955	-15.88595	11.27051
4.34374	-15.86398	11.27051
4.34803	-15.84201	11.27051
4.35221	-15.84201	11.27051
4.35639	-15.82004	11.27051
4.36067	-15.79806	11.27051
4.36493	-15.77609	11.27051
4.36912	-15.75412	11.27051
4.37331	-15.75412	11.27051
4.37749	-15.73214	11.27051
4.38167	-15.71017	11.27051
4.38585	-15.68820	11.27051
4.39004	-15.66623	11.27051
4.39433	-15.64425	11.27051
4.39853	-15.64425	11.27051
4.40271	-15.62228	11.27051
4.40690	-15.60031	11.27051
4.41108	-15.57834	11.27051
4.41526	-15.55636	11.27051
4.41944	-15.53439	11.27051
4.42369	-15.53439	11.27051
4.42795	-15.53439	11.27051
4.43214	-15.51242	11.27051
4.43633	-15.49045	11.27051
4.44052	-15.46847	11.27051
4.44471	-15.44650	11.27051
4.44899	-15.42453	11.27051
4.45318	-15.42453	11.27051
4.45747	-15.42453	11.27051
4.46169	-15.40256	11.27051
4.46588	-15.38058	11.27051
4.47007	-15.35861	11.27051
4.47425	-15.33664	11.27051
4.47845	-15.33664	11.27051
4.48263	-15.33664	11.27051
4.48689	-15.31466	11.27051
4.49116	-15.29269	11.27051
4.49535	-15.29269	11.27051
4.49953	-15.24875	11.27051
4.50372	-15.24875	11.27051
4.50790	-15.24875	11.27051
4.51208	-15.22677	11.27051
4.51626	-15.22677	11.27051
4.52058	-15.20480	11.27051
4.52479	-15.18283	11.27051
4.52898	-15.18283	11.27051
4.53317	-15.18283	11.27051
4.53736	-15.16086	11.27051
4.54154	-15.16086	11.27051
4.54572	-15.13888	11.27051
4.55009	-15.13888	11.27051
4.55436	-15.11691	11.27051
4.55856	-15.11691	11.27051
4.56275	-15.09494	11.27051
4.56693	-15.09494	11.27051
4.57111	-15.07297	11.27051
4.57530	-15.07297	11.27051
4.57948	-15.05099	11.27051
4.58377	-15.05099	11.27051
4.58798	-15.05099	11.27051
4.59216	-15.05099	11.27051
4.59635	-15.02902	11.27051
4.60055	-15.02902	11.27051
4.60473	-15.00705	11.27051
4.60891	-15.00705	11.27051
4.61317	-15.00705	11.27051
4.61744	-14.98507	11.27051
4.62163	-15.00705	11.27051
4.62582	-14.98507	11.27051
4.63000	-14.98507	11.27051
4.63419	-14.98507	11.27051
4.63837	-14.96310	11.27051
4.64258	-14.96310	11.27051
4.64689	-14.96310	11.27051
4.65121	-14.94113	11.27051
4.65540	-14.94113	11.27051
4.65959	-14.94113	11.27051
4.66377	-14.94113	11.27051
4.66795	-14.94113	11.27051
4.67214	-14.94113	11.27051
4.67661	-14.91916	11.27051
4.68081	-14.94113	11.27051
4.68500	-14.91916	11.27051
4.68918	-14.91916	11.27051
4.69337	-14.91916	11.27051
4.69755	-14.91916	11.27051
4.70174	-14.91916	11.27051
4.70599	-14.91916	11.27051
4.71027	-14.91916	11.27051
4.71446	-14.91916	11.27051
4.71865	-14.91916	11.27051
4.72283	-14.91916	11.27051
4.72701	-14.91916	11.27051
4.73120	-14.94113	11.27051
4.73538	-14.91916	11.27051
4.73967	-14.91916	11.27051
4.74388	-14.91916	11.27051
4.74807	-14.91916	11.27051
4.75235	-14.91916	11.27051
4.75654	-14.94113	11.27051
4.76073	-14.91916	11.27051
4.76491	-14.94113	11.27051
4.76916	-14.94113	11.27051
4.77344	-14.94113	11.27051
4.77764	-14.94113	11.27051
4.78183	-14.94113	11.27051
4.78602	-14.94113	11.27051
4.79020	-14.96310	11.27051
4.79438	-14.96310	11.27051
4.79857	-14.96310	11.27051
4.80286	-14.96310	11.27051
4.80707	-14.96310	11.27051
4.81126	-14.96310	11.27051
4.81544	-14.98507	11.27051
4.81963	-14.98507	11.27051
4.82381	-14.98507	11.27051
4.82799	-15.00705	11.27051
4.83225	-14.98507	11.27051
4.83653	-15.00705	11.27051
4.84073	-15.00705	11.27051
4.84491	-15.02902	11.27051
4.84910	-15.02902	11.27051
4.85339	-15.05099	11.27051
4.85757	-15.02902	11.27051
4.86175	-15.05099	11.27051
4.86605	-15.05099	11.27051
4.87025	-15.05099	11.27051
4.87443	-15.05099	11.27051
4.87862	-15.07297	11.27051
4.88280	-15.07297	11.27051
4.88699	-15.09494	11.27051
4.89117	-15.09494	11.27051
4.89542	-15.09494	11.27051
4.89969	-15.11691	11.27051
4.90388	-15.11691	11.27051
4.90807	-15.11691	11.27051
4.91225	-15.13888	11.27051
4.91644	-15.13888	11.27051
4.92061	-15.16086	11.27051
4.92479	-15.16086	11.27051
4.92908	-15.16086	11.27051
4.93327	-15.18283	11.27051
4.93746	-15.18283	11.27051
4.94164	-15.20480	11.27051
4.94583	-15.20480	11.27051
4.95001	-15.22677	11.27051
4.95430	-15.22677	11.27051
4.95871	-15.22677	11.27051
4.96292	-15.24875	11.27051
4.96710	-15.27072	11.27051
4.97128	-15.27072	11.27051
4.97547	-15.27072	11.27051
4.97965	-15.27072	11.27051
4.98383	-15.29269	11.27051
4.98809	-15.31466	11.27051
4.99237	-15.31466	11.27051
4.99658	-15.33664	11.27051
5.00077	-15.33664	11.27051
5.00495	-15.33664	11.27051
5.00914	-15.35861	11.27051
5.01332	-15.35861	11.27051
5.01751	-15.38058	11.27051
5.02181	-15.38058	11.27051
5.02602	-15.40256	11.27051
5.03020	-15.40256	11.27051
5.03439	-15.42453	11.27051
5.03857	-15.44650	11.27051
5.04276	-15.44650	11.27051
5.04694	-15.44650	11.27051
5.05119	-15.46847	11.27051
5.05556	-15.49045	11.27051
5.05975	-15.49045	11.27051
5.06393	-15.49045	11.27051
5.06812	-15.51242	11.27051
5.07230	-15.53439	11.27051
5.07649	-15.55636	11.27051
5.08068	-15.55636	11.27051
5.08497	-15.55636	11.27051
5.08917	-15.55636	11.27051
5.09336	-15.57834	11.27051
5.09754	-15.60031	11.27051
5.10173	-15.62228	11.27051
5.10591	-15.62228	11.27051
5.11010	-15.62228	11.27051
5.11436	-15.64425	11.27051
5.11863	-15.64425	11.27051
5.12283	-15.66623	11.27051
5.12702	-15.68820	11.27051
5.13120	-15.68820	11.27051
5.13539	-15.68820	11.27051
5.13957	-15.71017	11.27051
5.14375	-15.71017	11.27051
5.14805	-15.73214	11.27051
5.15225	-15.75412	11.27051
5.15656	-15.75412	11.27051
5.16074	-15.77609	11.27051
5.16492	-15.77609	11.27051
5.16911	-15.79806	11.27051
5.17336	-15.82004	11.27051
5.17781	-15.82004	11.27051
5.18204	-15.84201	11.27051
5.18624	-15.84201	11.27051
5.19043	-15.84201	11.27051
5.19462	-15.86398	11.27051
5.19881	-15.88595	11.27051
5.20300	-15.88595	11.27051
5.20730	-15.90793	11.27051
5.21159	-15.92990	11.27051
5.21579	-15.92990	11.27051
5.21998	-15.92990	11.27051
5.22417	-15.95187	11.27051
5.22836	-15.95187	11.27051
5.23256	-15.97384	11.27051
5.23689	-15.99582	11.27051
5.24123	-15.99582	11.27051
5.24544	-16.01779	11.27051
5.24964	-16.01779	11.27051
5.25383	-16.03976	11.27051
5.25814	-16.03976	11.27051
5.26234	-16.06173	11.27051
5.26653	-16.08371	11.27051
5.27098	-16.08371	11.27051
5.27519	-16.08371	11.27051
5.27939	-16.10568	11.27051
5.28358	-16.12765	11.27051
5.28777	-16.12765	11.27051
5.29195	-16.12765	11.27051
5.29614	-16.14963	11.27051
5.30042	-16.17160	11.27051
5.30470	-16.17160	11.27051
5.30891	-16.19357	11.27051
5.31309	-16.19357	11.27051
5.31727	-16.21554	11.27051
5.32146	-16.21554	11.27051
5.32564	-16.21554	11.27051
5.32982	-16.25949	11.27051
5.33412	-16.25949	11.27051
5.33832	-16.28146	11.27051
5.34250	-16.28146	11.27051
5.34668	-16.28146	11.27051
5.35087	-16.28146	11.27051
5.35505	-16.30343	11.27051
5.35933	-16.32541	11.27051
5.36359	-16.32541	11.27051
5.36786	-16.34738	11.27051
5.37205	-16.34738	11.27051
5.37624	-16.34738	11.27051
5.38042	-16.36935	11.27051
5.38460	-16.36935	11.27051
5.38879	-16.41330	11.27051
5.39297	-16.41330	11.27051
5.39726	-16.41330	11.27051
5.40145	-16.43527	11.27051
5.40563	-16.43527	11.27051
5.40982	-16.45724	11.27051
5.41400	-16.45724	11.27051
5.41818	-16.45724	11.27051
5.42236	-16.45724	11.27051
5.42661	-16.47922	11.27051
5.43086	-16.50119	11.27051
5.43506	-16.50119	11.27051
5.43924	-16.50119	11.27051
5.44342	-16.52316	11.27051
5.44760	-16.52316	11.27051
5.45179	-16.54513	11.27051
5.45597	-16.54513	11.27051
5.46040	-16.56711	11.27051
5.46460	-16.56711	11.27051
5.46879	-16.56711	11.27051
5.47298	-16.58908	11.27051
5.47717	-16.58908	11.27051
5.48136	-16.58908	11.27051
5.48554	-16.61105	11.27051
5.48991	-16.63302	11.27051
5.49412	-16.63302	11.27051
5.49831	-16.63302	11.27051
5.50249	-16.63302	11.27051
5.50667	-16.65500	11.27051
5.51086	-16.65500	11.27051
5.51504	-16.65500	11.27051
5.51928	-16.67697	11.27051
5.52356	-16.67697	11.27051
5.52776	-16.69894	11.27051
5.53195	-16.69894	11.27051
5.53613	-16.69894	11.27051
5.54031	-16.72091	11.27051
5.54450	-16.72091	11.27051
5.54869	-16.72091	11.27051
5.55307	-16.74289	11.27051
5.55729	-16.74289	11.27051
5.56158	-16.74289	11.27051
5.56576	-16.74289	11.27051
5.56994	-16.76486	11.27051
5.57412	-16.76486	11.27051
5.57831	-16.78683	11.27051
5.58255	-16.78683	11.27051
5.58683	-16.78683	11.27051
5.59102	-16.80881	11.27051
5.59521	-16.80881	11.27051
5.59939	-16.80881	11.27051
5.60357	-16.80881	11.27051
5.60775	-16.80881	11.27051
5.61194	-16.80881	11.27051
5.61632	-16.83078	11.27051
5.62055	-16.83078	11.27051
5.62473	-16.85275	11.27051
5.62892	-16.85275	11.27051
5.63310	-16.85275	11.27051
5.63728	-16.85275	11.27051
5.64146	-16.87472	11.27051
5.64570	-16.87472	11.27051
5.64998	-16.87472	11.27051
5.65417	-16.87472	11.27051
5.65835	-16.87472	11.27051
5.66264	-16.87472	11.27051
5.66682	-16.87472	11.27051
5.67100	-16.87472	11.27051
5.67518	-16.89670	11.27051
5.67948	-16.89670	11.27051
5.68368	-16.89670	11.27051
5.68786	-16.89670	11.27051
5.69204	-16.89670	11.27051
5.69623	-16.91867	11.27051
5.70041	-16.91867	11.27051
5.70460	-16.91867	11.27051
5.70885	-16.91867	11.27051
5.71311	-16.91867	11.27051
5.71730	-16.91867	11.27051
5.72148	-16.91867	11.27051
5.72566	-16.91867	11.27051
5.72984	-16.94064	11.27051
5.73403	-16.94064	11.27051
5.73821	-16.94064	11.27051
5.74250	-16.94064	11.27051
5.74670	-16.94064	11.27051
5.75088	-16.94064	11.27051
5.75506	-16.94064	11.27051
5.75924	-16.94064	11.27051
5.76353	-16.94064	11.27051
5.76771	-16.94064	11.27051
5.77196	-16.94064	11.27051
5.77623	-16.94064	11.27051
5.78041	-16.96261	11.27051
5.78460	-16.94064	11.27051
5.78879	-16.94064	11.27051
5.79297	-16.94064	11.27051
5.79715	-16.96261	11.27051
5.80133	-16.94064	11.27051
5.80562	-16.96261	11.27051
5.80984	-16.94064	11.27051
5.81405	-16.94064	11.27051
5.81826	-16.94064	11.27051
5.82248	-16.94064	11.27051
5.82668	-16.94064	11.27051
5.83089	-16.94064	11.27051
5.83539	-16.94064	11.27051
5.83963	-16.94064	11.27051
5.84382	-16.94064	11.27051
5.84801	-16.94064	11.27051
5.85220	-16.94064	11.27051
5.85639	-16.94064	11.27051
5.86059	-16.91867	11.27051
5.86501	-16.94064	11.27051
5.86929	-16.91867	11.27051
5.87350	-16.91867	11.27051
5.87769	-16.91867	11.27051
5.88188	-16.91867	11.27051
5.88607	-16.91867	11.27051
5.89025	-16.91867	11.27051
5.89443	-16.89670	11.27051
5.89873	-16.89670	11.27051
5.90293	-16.91867	11.27051
5.90711	-16.89670	11.27051
5.91130	-16.89670	11.27051
5.91548	-16.89670	11.27051
5.91966	-16.89670	11.27051
5.92385	-16.89670	11.27051
5.92810	-16.89670	11.27051
5.93236	-16.87472	11.27051
5.93658	-16.87472	11.27051
5.94076	-16.87472	11.27051
5.94495	-16.87472	11.27051
5.94913	-16.87472	11.27051
5.95331	-16.85275	11.27051
5.95749	-16.85275	11.27051
5.96179	-16.85275	11.27051
5.96609	-16.83078	11.27051
5.97027	-16.83078	11.27051
5.97446	-16.83078	11.27051
5.97864	-16.83078	11.27051
5.98282	-16.83078	11.27051
5.98700	-16.83078	11.27051
5.99139	-16.80881	11.27051
5.99560	-16.80881	11.27051
5.99978	-16.78683	11.27051
6.00396	-16.78683	11.27051
6.00815	-16.78683	11.27051
6.01233	-16.76486	11.27051
6.01653	-16.76486	11.27051
6.02076	-16.76486	11.27051
6.02504	-16.76486	11.27051
6.02924	-16.76486	11.27051
6.03342	-16.74289	11.27051
6.03761	-16.72091	11.27051
6.04179	-16.72091	11.27051
6.04597	-16.72091	11.27051
6.05015	-16.69894	11.27051
6.05453	-16.69894	11.27051
6.05875	-16.69894	11.27051
6.06293	-16.67697	11.27051
6.06722	-16.67697	11.27051
6.07140	-16.67697	11.27051
6.07559	-16.65500	11.27051
6.07977	-16.65500	11.27051
6.08402	-16.65500	11.27051
6.08830	-16.63302	11.27051
6.09252	-16.63302	11.27051
6.09670	-16.61105	11.27051
6.10088	-16.61105	11.27051
6.10507	-16.61105	11.27051
6.10925	-16.58908	11.27051
6.11343	-16.58908	11.27051
6.11773	-16.58908	11.27051
6.12193	-16.56711	11.27051
6.12612	-16.56711	11.27051
6.13030	-16.54513	11.27051
6.13449	-16.54513	11.27051
6.13867	-16.52316	11.27051
6.14285	-16.52316	11.27051
6.14711	-16.52316	11.27051
6.15137	-16.50119	11.27051
6.15557	-16.47922	11.27051
6.15975	-16.47922	11.27051
6.16393	-16.47922	11.27051
6.16822	-16.47922	11.27051
6.17240	-16.45724	11.27051
6.17659	-16.43527	11.27051
6.18088	-16.43527	11.27051
6.18508	-16.43527	11.27051
6.18926	-16.41330	11.27051
6.19344	-16.41330	11.27051
6.19763	-16.41330	11.27051
6.20181	-16.39132	11.27051
6.20599	-16.36935	11.27051
6.21024	-16.36935	11.27051
6.21456	-16.36935	11.27051
6.21876	-16.34738	11.27051
6.22294	-16.34738	11.27051
6.22713	-16.32541	11.27051
6.23131	-16.32541	11.27051
6.23549	-16.30343	11.27051
6.23970	-16.30343	11.27051
6.24401	-16.30343	11.27051
6.24824	-16.28146	11.27051
6.25243	-16.25949	11.27051
6.25662	-16.25949	11.27051
6.26080	-16.25949	11.27051
6.26499	-16.23752	11.27051
6.26927	-16.23752	11.27051
6.27364	-16.21554	11.27051
6.27786	-16.19357	11.27051
6.28204	-16.19357	11.27051
6.28622	-16.17160	11.27051
6.29041	-16.17160	11.27051
6.29460	-16.17160	11.27051
6.29878	-16.14963	11.27051
6.30305	-16.14963	11.27051
6.30733	-16.12765	11.27051
6.31153	-16.10568	11.27051
6.31571	-16.10568	11.27051
6.31989	-16.10568	11.27051
6.32407	-16.08371	11.27051
6.32826	-16.08371	11.27051
6.33244	-16.06173	11.27051
6.33687	-16.03976	11.27051
6.34108	-16.03976	11.27051
6.34527	-16.03976	11.27051
6.34945	-16.01779	11.27051
6.35363	-15.99582	11.27051
6.35781	-15.99582	11.27051
6.36200	-15.97384	11.27051
6.36626	-15.97384	11.27051
6.37065	-15.95187	11.27051
6.37485	-15.95187	11.27051
6.37903	-15.92990	11.27051
6.38322	-15.92990	11.27051
6.38740	-15.90793	11.27051
6.39158	-15.90793	11.27051
6.39576	-15.90793	11.27051
6.40006	-15.88595	11.27051
6.40426	-15.86398	11.27051
6.40844	-15.84201	11.27051
6.41261	-15.84201	11.27051
6.41679	-15.82004	11.27051
6.42097	-15.82004	11.27051
6.42516	-15.79806	11.27051
6.42941	-15.79806	11.27051
6.43367	-15.77609	11.27051
6.43786	-15.75412	11.27051
6.44205	-15.75412	11.27051
6.44624	-15.75412	11.27051
6.45042	-15.75412	11.27051
6.45461	-15.71017	11.27051
6.45879	-15.71017	11.27051
6.46311	-15.68820	11.27051
6.46731	-15.68820	11.27051
6.47160	-15.68820	11.27051
6.47579	-15.66623	11.27051
6.47998	-15.64425	11.27051
6.48416	-15.62228	11.27051
6.48834	-15.62228	11.27051
6.49274	-15.60031	11.27051
6.49695	-15.57834	11.27051
6.50114	-15.57834	11.27051
6.50532	-15.57834	11.27051
6.50951	-15.57834	11.27051
6.51369	-15.55636	11.27051
6.51787	-15.53439	11.27051
6.52213	-15.51242	11.27051
6.52641	-15.51242	11.27051
6.53060	-15.49045	11.27051
6.53478	-15.49045	11.27051
6.53897	-15.46847	11.27051
6.54315	-15.46847	11.27051
6.54734	-15.44650	11.27051
6.55152	-15.44650	11.27051
6.55592	-15.42453	11.27051
6.56013	-15.40256	11.27051
6.56431	-15.40256	11.27051
6.56851	-15.38058	11.27051
6.57280	-15.35861	11.27051
6.57699	-15.35861	11.27051
6.58117	-15.35861	11.27051
6.58542	-15.33664	11.27051
6.58970	-15.31466	11.27051
6.59390	-15.31466	11.27051
6.59808	-15.29269	11.27051
6.60227	-15.27072	11.27051
6.60645	-15.27072	11.27051
6.61063	-15.24875	11.27051
6.61482	-15.24875	11.27051
6.61922	-15.22677	11.27051
6.62343	-15.22677	11.27051
6.62762	-15.20480	11.27051
6.63180	-15.18283	11.27051
6.63598	-15.18283	11.27051
6.64017	-15.16086	11.27051
6.64435	-15.16086	11.27051
6.64861	-15.13888	11.27051
6.65290	-15.11691	11.27051
6.65709	-15.11691	11.27051
6.66128	-15.09494	11.27051
6.66546	-15.09494	11.27051
6.66964	-15.07297	11.27051
6.67393	-15.07297	11.27051
6.67811	-15.05099	11.27051
6.68242	-15.05099	11.27051
6.68662	-15.02902	11.27051
6.69080	-15.02902	11.27051
6.69498	-15.00705	11.27051
6.69917	-14.98507	11.27051
6.70335	-14.98507	11.27051
6.70753	-14.96310	11.27051
6.71178	-14.96310	11.27051
6.71604	-14.94113	11.27051
6.72023	-14.94113	11.27051
6.72442	-14.91916	11.27051
6.72861	-14.91916	11.27051
6.73279	-14.91916	11.27051
6.73697	-14.89718	11.27051
6.74115	-14.87521	11.27051
6.74545	-14.87521	11.27051
6.74964	-14.87521	11.27051
6.75383	-14.85324	11.27051
6.75801	-14.83127	11.27051
6.76219	-14.83127	11.27051
6.76637	-14.83127	11.27051
6.77056	-14.80929	11.27051
6.77491	-14.78732	11.27051
6.77916	-14.78732	11.27051
6.78335	-14.76535	11.27051
6.78753	-14.76535	11.27051
6.79172	-14.76535	11.27051
6.79590	-14.74338	11.27051
6.80008	-14.74338	11.27051
6.80426	-14.72140	11.27051
6.80857	-14.72140	11.27051
6.81277	-14.72140	11.27051
6.81696	-14.72140	11.27051
6.82114	-14.69943	11.27051
6.82532	-14.67746	11.27051
6.82951	-14.67746	11.27051
6.83369	-14.65548	11.27051
6.83794	-14.65548	11.27051
6.84220	-14.65548	11.27051
6.84639	-14.65548	11.27051
6.85057	-14.63351	11.27051
6.85476	-14.63351	11.27051
6.85894	-14.61154	11.27051
6.86312	-14.61154	11.27051
6.86730	-14.61154	11.27051
6.87159	-14.58957	11.27051
6.87590	-14.58957	11.27051
6.88009	-14.58957	11.27051
6.88427	-14.58957	11.27051
6.88845	-14.56759	11.27051
6.89261	-14.56759	11.27051
6.89679	-14.54562	11.27051
6.90117	-14.54562	11.27051
6.90538	-14.54562	11.27051
6.90957	-14.52365	11.27051
6.91375	-14.52365	11.27051
6.91793	-14.52365	11.27051
6.92211	-14.52365	11.27051
6.92630	-14.52365	11.27051
6.93054	-14.50168	11.27051
6.93482	-14.50168	11.27051
6.93901	-14.47970	11.27051
6.94320	-14.47970	11.27051
6.94738	-14.47970	11.27051
6.95156	-14.47970	11.27051
6.95574	-14.47970	11.27051
6.95992	-14.47970	11.27051
6.96432	-14.45773	11.27051
6.96854	-14.45773	11.27051
6.97272	-14.45773	11.27051
6.97701	-14.45773	11.27051
6.98119	-14.43576	11.27051
6.98537	-14.43576	11.27051
6.98956	-14.43576	11.27051
6.99380	-14.43576	11.27051
6.99808	-14.43576	11.27051
7.00227	-14.43576	11.27051
7.00646	-14.41379	11.27051
7.01064	-14.41379	11.27051
7.01482	-14.41379	11.27051
7.01900	-14.41379	11.27051
7.02318	-14.41379	11.27051
7.02758	-14.41379	11.27051
7.03179	-14.41379	11.27051
7.03597	-14.41379	11.27051
7.04016	-14.39181	11.27051
7.04434	-14.39181	11.27051
7.04853	-14.39181	11.27051
7.05272	-14.39181	11.27051
7.05718	-14.39181	11.27051
7.06148	-14.39181	11.27051
7.06568	-14.39181	11.27051
7.06987	-14.36984	11.27051
7.07405	-14.36984	11.27051
7.07834	-14.36984	11.27051
7.08252	-14.36984	11.27051
7.08671	-14.36984	11.27051
7.09100	-14.36984	11.27051
7.09519	-14.36984	11.27051
7.09938	-14.36984	11.27051
7.10356	-14.36984	11.27051
7.10774	-14.36984	11.27051
7.11193	-14.36984	11.27051
7.11612	-14.36984	11.27051
7.12038	-14.36984	11.27051
7.12466	-14.36984	11.27051
7.12885	-14.36984	11.27051
7.13304	-14.36984	11.27051
7.13722	-14.36984	11.27051
7.14141	-14.36984	11.27051
7.14559	-14.36984	11.27051
7.14977	-14.36984	11.27051
7.15407	-14.36984	11.27051
7.15828	-14.36984	11.27051
7.16246	-14.36984	11.27051
7.16664	-14.36984	11.27051
7.17082	-14.36984	11.27051
7.17501	-14.36984	11.27051
7.17929	-14.36984	11.27051
7.18369	-14.36984	11.27051
7.18790	-14.36984	11.27051
7.19208	-14.36984	11.27051
7.19626	-14.36984	11.27051
7.20045	-14.36984	11.27051
7.20461	-14.36984	11.27051
7.20879	-14.36984	11.27051
7.21303	-14.36984	11.27051
7.21731	-14.36984	11.27051
7.22150	-14.36984	11.27051
7.22569	-14.36984	11.27051
7.22987	-14.36984	11.27051
7.23405	-14.36984	11.27051
7.23823	-14.36984	11.27051
7.24244	-14.39181	11.27051
7.24676	-14.36984	11.27051
7.25096	-14.39181	11.27051
7.25515	-14.39181	11.27051
7.25934	-14.39181	11.27051
7.26352	-14.39181	11.27051
7.26771	-14.39181	11.27051
7.27189	-14.39181	11.27051
7.27615	-14.39181	11.27051
7.28053	-14.39181	11.27051
7.28472	-14.39181	11.27051
7.28891	-14.41379	11.27051
7.29309	-14.41379	11.27051
7.29727	-14.41379	11.27051
7.30146	-14.41379	11.27051
7.30564	-14.41379	11.27051
7.30993	-14.41379	11.27051
7.31412	-14.41379	11.27051
7.31830	-14.41379	11.27051
7.32249	-14.41379	11.27051
7.32667	-14.43576	11.27051
7.33085	-14.43576	11.27051
7.33503	-14.43576	11.27051
7.33928	-14.43576	11.27051
7.34355	-14.43576	11.27051
7.34775	-14.43576	11.27051
7.35193	-14.43576	11.27051
7.35612	-14.45773	11.27051
7.36030	-14.43576	11.27051
7.36450	-14.43576	11.27051
7.36868	-14.45773	11.27051
7.37298	-14.45773	11.27051
7.37718	-14.45773	11.27051
7.38146	-14.45773	11.27051
7.38565	-14.47970	11.27051
7.38983	-14.45773	11.27051
7.39401	-14.45773	11.27051
7.39819	-14.47970	11.27051
7.40256	-14.47970	11.27051
7.40677	-14.47970	11.27051
7.41096	-14.47970	11.27051
7.41514	-14.47970	11.27051
7.41932	-14.47970	11.27051
7.42350	-14.50168	11.27051
7.42769	-14.50168	11.27051
7.43194	-14.50168	11.27051
7.43622	-14.50168	11.27051
7.44042	-14.50168	11.27051
7.44468	-14.52365	11.27051
7.44888	-14.52365	11.27051
7.45308	-14.52365	11.27051
7.45728	-14.52365	11.27051
7.46147	-14.54562	11.27051
7.46579	-14.54562	11.27051
7.47000	-14.54562	11.27051
7.47420	-14.54562	11.27051
7.47839	-14.54562	11.27051
7.48269	-14.54562	11.27051
7.48688	-14.56759	11.27051
7.49106	-14.56759	11.27051
7.49544	-14.56759	11.27051
7.49967	-14.56759	11.27051
7.50386	-14.58957	11.27051
7.50804	-14.58957	11.27051
7.51223	-14.61154	11.27051
7.51642	-14.61154	11.27051
7.52061	-14.61154	11.27051
7.52487	-14.61154	11.27051
7.52918	-14.63351	11.27051
7.53339	-14.63351	11.27051
7.53758	-14.63351	11.27051
7.54177	-14.63351	11.27051
7.54596	-14.63351	11.27051
7.55014	-14.65548	11.27051
7.55433	-14.65548	11.27051
7.55862	-14.67746	11.27051
7.56283	-14.67746	11.27051
7.56701	-14.67746	11.27051
7.57120	-14.69943	11.27051
7.57538	-14.69943	11.27051
7.57956	-14.69943	11.27051
7.58385	-14.69943	11.27051
7.58811	-14.72140	11.27051
7.59238	-14.74338	11.27051
7.59659	-14.74338	11.27051
7.60077	-14.74338	11.27051
7.60496	-14.74338	11.27051
7.60916	-14.76535	11.27051
7.61334	-14.76535	11.27051
7.61753	-14.78732	11.27051
7.62184	-14.78732	11.27051
7.62605	-14.78732	11.27051
7.63023	-14.78732	11.27051
7.63442	-14.80929	11.27051
7.63860	-14.80929	11.27051
7.64278	-14.83127	11.27051
7.64697	-14.83127	11.27051
7.65122	-14.85324	11.27051
7.65550	-14.85324	11.27051
7.65970	-14.87521	11.27051
7.66388	-14.87521	11.27051
7.66807	-14.89718	11.27051
7.67226	-14.89718	11.27051
7.67644	-14.91916	11.27051
7.68061	-14.91916	11.27051
7.68501	-14.91916	11.27051
7.68922	-14.94113	11.27051
7.69340	-14.94113	11.27051
7.69759	-14.96310	11.27051
7.70177	-14.98507	11.27051
7.70595	-14.98507	11.27051
7.71014	-14.98507	11.27051
7.71449	-15.00705	11.27051
7.71871	-15.00705	11.27051
7.72290	-15.02902	11.27051
7.72709	-15.02902	11.27051
7.73127	-15.02902	11.27051
7.73546	-15.05099	11.27051
7.73964	-15.07297	11.27051
7.74389	-15.07297	11.27051
7.74817	-15.09494	11.27051
7.75237	-15.11691	11.27051
7.75657	-15.11691	11.27051
7.76075	-15.11691	11.27051
7.76494	-15.13888	11.27051
7.76912	-15.13888	11.27051
7.77330	-15.16086	11.27051
7.77760	-15.18283	11.27051
7.78180	-15.18283	11.27051
7.78609	-15.18283	11.27051
7.79028	-15.20480	11.27051
7.79446	-15.22677	11.27051
7.79864	-15.24875	11.27051
7.80283	-15.24875	11.27051
7.80708	-15.24875	11.27051
7.81135	-15.27072	11.27051
7.81554	-15.27072	11.27051
7.81973	-15.29269	11.27051
7.82391	-15.31466	11.27051
7.82809	-15.33664	11.27051
7.83228	-15.33664	11.27051
7.83646	-15.33664	11.27051
7.84074	-15.35861	11.27051
7.84494	-15.38058	11.27051
7.84913	-15.40256	11.27051
7.85331	-15.40256	11.27051
7.85750	-15.42453	11.27051
7.86168	-15.44650	11.27051
7.86586	-15.44650	11.27051
7.87011	-15.44650	11.27051
7.87438	-15.46847	11.27051
7.87857	-15.49045	11.27051
7.88276	-15.51242	11.27051
7.88705	-15.51242	11.27051
7.89123	-15.53439	11.27051
7.89541	-15.55636	11.27051
7.89960	-15.55636	11.27051
7.90389	-15.57834	11.27051
7.90811	-15.60031	11.27051
7.91229	-15.62228	11.27051
7.91648	-15.62228	11.27051
7.92067	-15.62228	11.27051
7.92486	-15.66623	11.27051
7.92905	-15.68820	11.27051
7.93330	-15.71017	11.27051
7.93757	-15.73214	11.27051
7.94177	-15.73214	11.27051
7.94596	-15.73214	11.27051
7.95014	-15.75412	11.27051
7.95433	-15.77609	11.27051
7.95851	-15.79806	11.27051
7.96270	-15.79806	11.27051
7.96700	-15.79806	11.27051
7.97120	-15.82004	11.27051
7.97539	-15.84201	11.27051
7.97958	-15.86398	11.27051
7.98376	-15.88595	11.27051
7.98805	-15.90793	11.27051
7.99223	-15.90793	11.27051
7.99664	-15.90793	11.27051
8.00087	-15.95187	11.27051
8.00506	-15.95187	11.27051
8.00925	-15.97384	11.27051
8.01343	-15.99582	11.27051
8.01761	-15.99582	11.27051
8.02180	-16.01779	11.27051
8.02605	-16.03976	11.27051
8.03036	-16.03976	11.27051
8.03457	-16.06173	11.27051
8.03879	-16.08371	11.27051
8.04297	-16.10568	11.27051
8.04715	-16.10568	11.27051
8.05132	-16.12765	11.27051
8.05550	-16.14963	11.27051
8.05979	-16.14963	11.27051
8.06398	-16.17160	11.27051
8.06816	-16.17160	11.27051
8.07234	-16.19357	11.27051
8.07652	-16.19357	11.27051
8.08070	-16.23752	11.27051
8.08487	-16.23752	11.27051
8.08923	-16.25949	11.27051
8.09348	-16.28146	11.27051
8.09767	-16.28146	11.27051
8.10185	-16.30343	11.27051
8.10603	-16.32541	11.27051
8.11021	-16.32541	11.27051
8.11438	-16.34738	11.27051
8.11856	-16.34738	11.27051
8.12286	-16.39132	11.27051
8.12705	-16.39132	11.27051
8.13123	-16.39132	11.27051
8.13540	-16.41330	11.27051
8.13958	-16.41330	11.27051
8.14377	-16.43527	11.27051
8.14795	-16.43527	11.27051
8.15221	-16.45724	11.27051
8.15651	-16.45724	11.27051
8.16071	-16.47922	11.27051
8.16490	-16.50119	11.27051
8.16910	-16.50119	11.27051
8.17328	-16.52316	11.27051
8.17747	-16.52316	11.27051
8.18165	-16.54513	11.27051
8.18595	-16.54513	11.27051
8.19028	-16.56711	11.27051
8.19447	-16.56711	11.27051
8.19865	-16.58908	11.27051
8.20283	-16.58908	11.27051
8.20702	-16.61105	11.27051
8.21120	-16.63302	11.27051
8.21562	-16.63302	11.27051
8.21984	-16.65500	11.27051
8.22404	-16.65500	11.27051
8.22822	-16.65500	11.27051
8.23241	-16.67697	11.27051
8.23660	-16.67697	11.27051
8.24079	-16.69894	11.27051
8.24507	-16.69894	11.27051
8.24941	-16.72091	11.27051
8.25362	-16.72091	11.27051
8.25782	-16.72091	11.27051
8.26201	-16.74289	11.27051
8.26619	-16.74289	11.27051
8.27038	-16.76486	11.27051
8.27456	-16.76486	11.27051
8.27886	-16.76486	11.27051
8.28306	-16.78683	11.27051
8.28724	-16.78683	11.27051
8.29155	-16.80881	11.27051
8.29574	-16.80881	11.27051
8.29993	-16.80881	11.27051
8.30411	-16.83078	11.27051
8.30837	-16.83078	11.27051
8.31268	-16.83078	11.27051
8.31687	-16.85275	11.27051
8.32106	-16.85275	11.27051
8.32525	-16.85275	11.27051
8.32944	-16.87472	11.27051
8.33363	-16.87472	11.27051
8.33781	-16.87472	11.27051
8.34211	-16.89670	11.27051
8.34631	-16.89670	11.27051
8.35050	-16.89670	11.27051
8.35468	-16.89670	11.27051
8.35887	-16.89670	11.27051
8.36305	-16.91867	11.27051
8.36724	-16.91867	11.27051
8.37149	-16.91867	11.27051
8.37577	-16.91867	11.27051
8.37996	-16.94064	11.27051
8.38414	-16.94064	11.27051
8.38833	-16.94064	11.27051
8.39263	-16.94064	11.27051
8.39681	-16.94064	11.27051
8.40099	-16.96261	11.27051
8.40529	-16.96261	11.27051
8.40950	-16.96261	11.27051
8.41368	-16.96261	11.27051
8.41786	-16.96261	11.27051
8.42205	-16.96261	11.27051
8.42623	-16.96261	11.27051
8.43041	-16.96261	11.27051
8.43466	-16.96261	11.27051
8.43894	-16.96261	11.27051
8.44313	-16.96261	11.27051
8.44732	-16.98459	11.27051
8.45150	-16.96261	11.27051
8.45569	-16.98459	11.27051
8.45987	-16.98459	11.27051
8.46406	-16.98459	11.27051
8.46836	-16.98459	11.27051
8.47258	-16.98459	11.27051
8.47677	-16.98459	11.27051
8.48095	-16.96261	11.27051
8.48513	-16.98459	11.27051
8.48932	-16.98459	11.27051
8.49361	-16.96261	11.27051
8.49798	-16.98459	11.27051
8.50220	-16.96261	11.27051
8.50639	-16.98459	11.27051
8.51058	-16.96261	11.27051
8.51476	-16.96261	11.27051
8.51894	-16.98459	11.27051
8.52313	-16.96261	11.27051
8.52738	-16.96261	11.27051
8.53169	-16.96261	11.27051
8.53590	-16.94064	11.27051
8.54009	-16.94064	11.27051
8.54428	-16.94064	11.27051
8.54847	-16.94064	11.27051
8.55261	-16.94064	11.27051
8.55679	-16.94064	11.27051
8.56110	-16.94064	11.27051
8.56530	-16.94064	11.27051
8.56948	-16.94064	11.27051
8.57366	-16.91867	11.27051
8.57785	-16.91867	11.27051
8.58203	-16.91867	11.27051
8.58622	-16.91867	11.27051
8.59047	-16.89670	11.27051
8.59491	-16.89670	11.27051
8.59910	-16.89670	11.27051
8.60329	-16.89670	11.27051
8.60748	-16.87472	11.27051
8.61166	-16.87472	11.27051
8.61585	-16.87472	11.27051
8.62003	-16.87472	11.27051
8.62434	-16.85275	11.27051
8.62856	-16.85275	11.27051
8.63275	-16.85275	11.27051
8.63693	-16.83078	11.27051
8.64112	-16.83078	11.27051
8.64530	-16.83078	11.27051
8.64948	-16.83078	11.27051
8.65373	-16.80881	11.27051
8.65800	-16.80881	11.27051
8.66219	-16.78683	11.27051
8.66638	-16.78683	11.27051
8.67056	-16.78683	11.27051
8.67475	-16.76486	11.27051
8.67893	-16.76486	11.27051
8.68311	-16.76486	11.27051
8.68741	-16.74289	11.27051
8.69162	-16.74289	11.27051
8.69591	-16.72091	11.27051
8.70009	-16.72091	11.27051
8.70427	-16.72091	11.27051
8.70846	-16.69894	11.27051
8.71261	-16.69894	11.27051
8.71699	-16.67697	11.27051
8.72121	-16.67697	11.27051
8.72539	-16.67697	11.27051
8.72958	-16.65500	11.27051
8.73378	-16.65500	11.27051
8.73798	-16.63302	11.27051
8.74216	-16.63302	11.27051
8.74642	-16.61105	11.27051
8.75070	-16.61105	11.27051
8.75491	-16.58908	11.27051
8.75910	-16.58908	11.27051
8.76328	-16.58908	11.27051
8.76746	-16.56711	11.27051
8.77165	-16.56711	11.27051
8.77583	-16.56711	11.27051
8.78013	-16.54513	11.27051
8.78433	-16.52316	11.27051
8.78852	-16.52316	11.27051
8.79271	-16.52316	11.27051
8.79699	-16.50119	11.27051
8.80118	-16.47922	11.27051
8.80536	-16.47922	11.27051
8.80961	-16.47922	11.27051
8.81388	-16.45724	11.27051
8.81807	-16.45724	11.27051
8.82225	-16.43527	11.27051
8.82644	-16.43527	11.27051
8.83062	-16.43527	11.27051
8.83481	-16.41330	11.27051
8.83899	-16.41330	11.27051
8.84329	-16.41330	11.27051
8.84748	-16.36935	11.27051
8.85167	-16.36935	11.27051
8.85585	-16.34738	11.27051
8.86004	-16.34738	11.27051
8.86422	-16.34738	11.27051
8.86840	-16.32541	11.27051
8.87266	-16.32541	11.27051
8.87693	-16.30343	11.27051
8.88112	-16.30343	11.27051
8.88530	-16.30343	11.27051
8.88949	-16.28146	11.27051
8.89367	-16.25949	11.27051
8.89796	-16.25949	11.27051
8.90214	-16.23752	11.27051
8.90644	-16.23752	11.27051
8.91064	-16.23752	11.27051
8.91482	-16.21554	11.27051
8.91900	-16.19357	11.27051
8.92319	-16.19357	11.27051
8.92737	-16.17160	11.27051
8.93155	-16.17160	11.27051
8.93580	-16.14963	11.27051
8.94008	-16.14963	11.27051
8.94429	-16.12765	11.27051
8.94849	-16.12765	11.27051
8.95268	-16.12765	11.27051
8.95686	-16.10568	11.27051
8.96104	-16.10568	11.27051
8.96523	-16.08371	11.27051
8.96954	-16.08371	11.27051
8.97375	-16.06173	11.27051
8.97794	-16.03976	11.27051
8.98212	-16.03976	11.27051
8.98630	-16.03976	11.27051
8.99049	-16.03976	11.27051
8.99467	-16.01779	11.27051
8.99903	-15.99582	11.27051
9.00329	-15.99582	11.27051
9.00750	-15.97384	11.27051
9.01168	-15.97384	11.27051
9.01587	-15.97384	11.27051
9.02005	-15.97384	11.27051
9.02424	-15.92990	11.27051
9.02842	-15.92990	11.27051
9.03276	-15.90793	11.27051
9.03696	-15.90793	11.27051
9.04116	-15.90793	11.27051
9.04534	-15.88595	11.27051
9.04953	-15.88595	11.27051
9.05371	-15.88595	11.27051
9.05789	-15.86398	11.27051
9.06215	-15.86398	11.27051
9.06641	-15.86398	11.27051
9.07060	-15.84201	11.27051
9.07479	-15.82004	11.27051
9.07898	-15.82004	11.27051
9.08316	-15.79806	11.27051
9.08734	-15.79806	11.27051
9.09153	-15.79806	11.27051
9.09583	-15.77609	11.27051
9.10013	-15.77609	11.27051
9.10431	-15.75412	11.27051
9.10851	-15.75412	11.27051
9.11270	-15.73214	11.27051
9.11688	-15.73214	11.27051
9.12107	-15.73214	11.27051
9.12545	-15.71017	11.27051
9.12967	-15.71017	11.27051
9.13385	-15.68820	11.27051
9.13805	-15.68820	11.27051
9.14223	-15.68820	11.27051
9.14642	-15.68820	11.27051
9.15060	-15.66623	11.27051
9.15487	-15.66623	11.27051
9.15916	-15.66623	11.27051
9.16336	-15.64425	11.27051
9.16754	-15.62228	11.27051
9.17173	-15.62228	11.27051
9.17591	-15.62228	11.27051
9.18009	-15.62228	11.27051
9.18427	-15.60031	11.27051
9.18859	-15.57834	11.27051
9.19279	-15.60031	11.27051
9.19698	-15.57834	11.27051
9.20126	-15.57834	11.27051
9.20545	-15.57834	11.27051
9.20963	-15.55636	11.27051
9.21381	-15.55636	11.27051
9.21806	-15.53439	11.27051
9.22233	-15.53439	11.27051
9.22653	-15.53439	11.27051
9.23071	-15.53439	11.27051
9.23490	-15.53439	11.27051
9.23908	-15.51242	11.27051
9.24327	-15.51242	11.27051
9.24748	-15.51242	11.27051
9.25180	-15.49045	11.27051
9.25601	-15.49045	11.27051
9.26020	-15.49045	11.27051
9.26439	-15.49045	11.27051
9.26858	-15.49045	11.27051
9.27277	-15.46847	11.27051
9.27695	-15.46847	11.27051
9.28133	-15.46847	11.27051
9.28555	-15.46847	11.27051
9.28974	-15.46847	11.27051
9.29392	-15.44650	11.27051
9.29811	-15.44650	11.27051
9.30239	-15.44650	11.27051
9.30658	-15.44650	11.27051
9.31082	-15.42453	11.27051
9.31511	-15.42453	11.27051
9.31930	-15.42453	11.27051
9.32349	-15.42453	11.27051
9.32767	-15.42453	11.27051
9.33186	-15.42453	11.27051
9.33604	-15.42453	11.27051
9.34022	-15.40256	11.27051
9.34464	-15.40256	11.27051
9.34885	-15.40256	11.27051
9.35304	-15.38058	11.27051
9.35722	-15.38058	11.27051
9.36141	-15.38058	11.27051
9.36559	-15.38058	11.27051
9.36977	-15.38058	11.27051
9.37402	-15.38058	11.27051
9.37830	-15.38058	11.27051
9.38250	-15.38058	11.27051
9.38668	-15.38058	11.27051
9.39087	-15.38058	11.27051
9.39505	-15.38058	11.27051
9.39924	-15.35861	11.27051
9.40352	-15.35861	11.27051
9.40783	-15.35861	11.27051
9.41203	-15.35861	11.27051
9.41621	-15.35861	11.27051
9.42040	-15.38058	11.27051
9.42459	-15.35861	11.27051
9.42877	-15.35861	11.27051
9.43295	-15.35861	11.27051
9.43720	-15.35861	11.27051
9.44148	-15.35861	11.27051
9.44567	-15.35861	11.27051
9.44986	-15.35861	11.27051
9.45404	-15.35861	11.27051
9.45823	-15.35861	11.27051
9.46241	-15.35861	11.27051
9.46659	-15.35861	11.27051
9.47089	-15.35861	11.27051
9.47510	-15.35861	11.27051
9.47928	-15.35861	11.27051
9.48346	-15.35861	11.27051
9.48765	-15.35861	11.27051
9.49184	-15.35861	11.27051
9.49603	-15.35861	11.27051
9.50028	-15.35861	11.27051
9.50468	-15.35861	11.27051
9.50888	-15.35861	11.27051
9.51306	-15.35861	11.27051
9.51725	-15.35861	11.27051
9.52143	-15.35861	11.27051
9.52561	-15.35861	11.27051
9.52980	-15.35861	11.27051
9.53416	-15.35861	11.27051
9.53837	-15.35861	11.27051
9.54256	-15.38058	11.27051
9.54674	-15.35861	11.27051
9.55093	-15.38058	11.27051
9.55512	-15.38058	11.27051
9.55930	-15.38058	11.27051
9.56370	-15.38058	11.27051
9.56791	-15.38058	11.27051
9.57210	-15.38058	11.27051
9.57628	-15.38058	11.27051
9.58047	-15.38058	11.27051
9.58461	-15.38058	11.27051
9.58879	-15.38058	11.27051
9.59304	-15.38058	11.27051
9.59733	-15.38058	11.27051
9.60152	-15.40256	11.27051
9.60581	-15.38058	11.27051
9.61000	-15.40256	11.27051
9.61418	-15.40256	11.27051
9.61836	-15.40256	11.27051
9.62255	-15.40256	11.27051
9.62684	-15.40256	11.27051
9.63105	-15.40256	11.27051
9.63523	-15.42453	11.27051
9.63942	-15.40256	11.27051
9.64362	-15.40256	11.27051
9.64780	-15.42453	11.27051
9.65199	-15.42453	11.27051
9.65624	-15.42453	11.27051
9.66052	-15.44650	11.27051
9.66472	-15.42453	11.27051
9.66890	-15.42453	11.27051
9.67309	-15.44650	11.27051
9.67727	-15.44650	11.27051
9.68146	-15.44650	11.27051
9.68564	-15.44650	11.27051
9.68993	-15.44650	11.27051
9.69413	-15.46847	11.27051
9.69832	-15.46847	11.27051
9.70250	-15.46847	11.27051
9.70679	-15.46847	11.27051
9.71097	-15.46847	11.27051
9.71516	-15.46847	11.27051
9.71960	-15.49045	11.27051
9.72381	-15.49045	11.27051
9.72800	-15.49045	11.27051
9.73219	-15.49045	11.27051
9.73637	-15.49045	11.27051
9.74056	-15.49045	11.27051
9.74475	-15.51242	11.27051
9.74900	-15.51242	11.27051
9.75328	-15.51242	11.27051
9.75748	-15.51242	11.27051
9.76166	-15.51242	11.27051
9.76585	-15.53439	11.27051
9.77003	-15.53439	11.27051
9.77421	-15.53439	11.27051
9.77840	-15.53439	11.27051
9.78269	-15.53439	11.27051
9.78689	-15.53439	11.27051
9.79108	-15.55636	11.27051
9.79527	-15.55636	11.27051
9.79945	-15.55636	11.27051
9.80363	-15.55636	11.27051
9.80792	-15.55636	11.27051
9.81218	-15.55636	11.27051
9.81644	-15.57834	11.27051
9.82061	-15.57834	11.27051
9.82480	-15.57834	11.27051
9.82899	-15.57834	11.27051
9.83317	-15.57834	11.27051
9.83735	-15.57834	11.27051
9.84154	-15.60031	11.27051
9.84584	-15.60031	11.27051
9.85004	-15.60031	11.27051
9.85423	-15.62228	11.27051
9.85842	-15.60031	11.27051
9.86261	-15.62228	11.27051
9.86679	-15.62228	11.27051
9.87098	-15.62228	11.27051
9.87543	-15.64425	11.27051
9.87964	-15.64425	11.27051
9.88383	-15.64425	11.27051
9.88802	-15.64425	11.27051
9.89220	-15.64425	11.27051
9.89639	-15.66623	11.27051
9.90058	-15.66623	11.27051
9.90484	-15.66623	11.27051
9.90923	-15.66623	11.27051
9.91342	-15.66623	11.27051
9.91761	-15.66623	11.27051
9.92179	-15.68820	11.27051
9.92598	-15.68820	11.27051
9.93016	-15.68820	11.27051
9.93434	-15.68820	11.27051
9.93865	-15.71017	11.27051
9.94285	-15.71017	11.27051
9.94705	-15.71017	11.27051
9.95124	-15.71017	11.27051
9.95542	-15.73214	11.27051
9.95961	-15.73214	11.27051
9.96379	-15.73214	11.27051
9.96804	-15.73214	11.27051
9.97232	-15.75412	11.27051
9.97653	-15.75412	11.27051
9.98072	-15.77609	11.27051
9.98490	-15.77609	11.27051
9.98909	-15.75412	11.27051
9.99327	-15.77609	11.27051
9.99746	-15.77609	11.27051
10.00175	-15.77609	11.27051
10.00596	-15.79806	11.27051
10.01026	-15.79806	11.27051
10.01444	-15.79806	11.27051
10.01862	-15.79806	11.27051
10.02281	-15.79806	11.27051
10.02699	-15.79806	11.27051
10.03153	-15.82004	11.27051
10.03576	-15.82004	11.27051
10.03996	-15.82004	11.27051
10.04416	-15.82004	11.27051
10.04836	-15.82004	11.27051
10.05256	-15.84201	11.27051
10.05674	-15.84201	11.27051
10.06100	-15.84201	11.27051
10.06528	-15.86398	11.27051
10.06948	-15.86398	11.27051
10.07366	-15.86398	11.27051
10.07785	-15.88595	11.27051
10.08203	-15.88595	11.27051
10.08622	-15.88595	11.27051
10.09040	-15.88595	11.27051
10.09469	-15.88595	11.27051
10.09889	-15.88595	11.27051
10.10308	-15.90793	11.27051
10.10727	-15.90793	11.27051
10.11156	-15.92990	11.27051
10.11574	-15.92990	11.27051
10.11992	-15.92990	11.27051
10.12434	-15.92990	11.27051
10.12856	-15.95187	11.27051
10.13275	-15.95187	11.27051
10.13694	-15.97384	11.27051
10.14112	-15.95187	11.27051
10.14530	-15.95187	11.27051
10.14949	-15.97384	11.27051
10.15375	-15.97384	11.27051
10.15803	-15.97384	11.27051
10.16223	-15.99582	11.27051
10.16642	-15.99582	11.27051
10.17060	-15.99582	11.27051
10.17478	-15.99582	11.27051
10.17896	-15.99582	11.27051
10.18315	-16.01779	11.27051
10.18756	-16.01779	11.27051
10.19177	-16.01779	11.27051
10.19596	-16.01779	11.27051
10.20014	-16.03976	11.27051
10.20432	-16.03976	11.27051
10.20852	-16.03976	11.27051
10.21281	-16.06173	11.27051
10.21710	-16.06173	11.27051
10.22138	-16.06173	11.27051
10.22557	-16.06173	11.27051
10.22976	-16.08371	11.27051
10.23394	-16.08371	11.27051
10.23817	-16.08371	11.27051
10.24237	-16.08371	11.27051
10.24656	-16.10568	11.27051
10.25087	-16.10568	11.27051
10.25508	-16.10568	11.27051
10.25926	-16.10568	11.27051
10.26345	-16.10568	11.27051
10.26764	-16.12765	11.27051
10.27182	-16.12765	11.27051
10.27600	-16.12765	11.27051
10.28026	-16.12765	11.27051
10.28455	-16.14963	11.27051
10.28874	-16.14963	11.27051
10.29293	-16.14963	11.27051
10.29711	-16.14963	11.27051
10.30129	-16.14963	11.27051
10.30548	-16.17160	11.27051
10.30966	-16.17160	11.27051
10.31407	-16.17160	11.27051
10.31826	-16.19357	11.27051
10.32245	-16.19357	11.27051
10.32663	-16.19357	11.27051
10.33081	-16.19357	11.27051
10.33499	-16.19357	11.27051
10.33918	-16.19357	11.27051
10.34358	-16.21554	11.27051
10.34779	-16.21554	11.27051
10.35199	-16.21554	11.27051
10.35617	-16.21554	11.27051
10.36035	-16.21554	11.27051
10.36455	-16.23752	11.27051
10.36873	-16.23752	11.27051
10.37297	-16.25949	11.27051
10.37726	-16.25949	11.27051
10.38145	-16.25949	11.27051
10.38563	-16.25949	11.27051
10.38982	-16.25949	11.27051
10.39400	-16.25949	11.27051
10.39818	-16.28146	11.27051
10.40236	-16.28146	11.27051
10.40679	-16.28146	11.27051
10.41100	-16.28146	11.27051
10.41529	-16.28146	11.27051
10.41947	-16.30343	11.27051
10.42365	-16.30343	11.27051
10.42783	-16.30343	11.27051
10.43202	-16.30343	11.27051
10.43625	-16.30343	11.27051
10.44056	-16.30343	11.27051
10.44476	-16.30343	11.27051
10.44894	-16.32541	11.27051
10.45312	-16.32541	11.27051
10.45730	-16.32541	11.27051
10.46149	-16.32541	11.27051
10.46567	-16.32541	11.27051
10.47007	-16.34738	11.27051
10.47428	-16.34738	11.27051
10.47847	-16.34738	11.27051
10.48265	-16.34738	11.27051
10.48683	-16.34738	11.27051
10.49101	-16.34738	11.27051
10.49520	-16.36935	11.27051
10.49943	-16.36935	11.27051
10.50372	-16.36935	11.27051
10.50792	-16.36935	11.27051
10.51210	-16.36935	11.27051
10.51639	-16.36935	11.27051
10.52058	-16.39132	11.27051
10.52476	-16.36935	11.27051
10.52895	-16.39132	11.27051
10.53325	-16.39132	11.27051
10.53744	-16.39132	11.27051
10.54163	-16.39132	11.27051
10.54581	-16.41330	11.27051
10.54999	-16.39132	11.27051
10.55418	-16.41330	11.27051
10.55836	-16.41330	11.27051
10.56262	-16.41330	11.27051
10.56688	-16.41330	11.27051
10.57108	-16.41330	11.27051
10.57526	-16.41330	11.27051
10.57944	-16.41330	11.27051
10.58363	-16.41330	11.27051
10.58781	-16.43527	11.27051
10.59199	-16.43527	11.27051
10.59629	-16.41330	11.27051
10.60050	-16.43527	11.27051
10.60468	-16.41330	11.27051
10.60887	-16.41330	11.27051
10.61305	-16.41330	11.27051
10.61734	-16.43527	11.27051
10.62152	-16.43527	11.27051
10.62593	-16.43527	11.27051
10.63014	-16.43527	11.27051
10.63433	-16.43527	11.27051
10.63851	-16.43527	11.27051
10.64269	-16.43527	11.27051
10.64688	-16.43527	11.27051
10.65106	-16.43527	11.27051
10.65530	-16.41330	11.27051
10.65959	-16.43527	11.27051
10.66378	-16.43527	11.27051
10.66796	-16.43527	11.27051
10.67215	-16.43527	11.27051
10.67633	-16.43527	11.27051
10.68052	-16.43527	11.27051
10.68471	-16.43527	11.27051
10.68914	-16.43527	11.27051
10.69335	-16.41330	11.27051
10.69753	-16.41330	11.27051
10.70172	-16.43527	11.27051
10.70590	-16.41330	11.27051
10.71008	-16.43527	11.27051
10.71427	-16.41330	11.27051
10.71862	-16.41330	11.27051
10.72290	-16.41330	11.27051
10.72709	-16.41330	11.27051
10.73127	-16.41330	11.27051
10.73546	-16.41330	11.27051
10.73964	-16.41330	11.27051
10.74382	-16.41330	11.27051
10.74800	-16.41330	11.27051
10.75230	-16.39132	11.27051
10.75653	-16.39132	11.27051
10.76071	-16.39132	11.27051
10.76490	-16.39132	11.27051
10.76908	-16.39132	11.27051
10.77326	-16.39132	11.27051
10.77744	-16.36935	11.27051
10.78169	-16.39132	11.27051
10.78595	-16.36935	11.27051
10.79015	-16.36935	11.27051
10.79433	-16.36935	11.27051
10.79851	-16.36935	11.27051
10.80270	-16.36935	11.27051
10.80688	-16.36935	11.27051
10.81106	-16.34738	11.27051
10.81535	-16.36935	11.27051
10.81965	-16.34738	11.27051
10.82384	-16.34738	11.27051
10.82802	-16.34738	11.27051
10.83220	-16.34738	11.27051
10.83639	-16.32541	11.27051
10.84057	-16.34738	11.27051
10.84498	-16.32541	11.27051
10.84919	-16.32541	11.27051
10.85338	-16.32541	11.27051
10.85756	-16.32541	11.27051
10.86174	-16.30343	11.27051
10.86593	-16.32541	11.27051
10.87011	-16.30343	11.27051
10.87436	-16.30343	11.27051
10.87865	-16.30343	11.27051
10.88285	-16.30343	11.27051
10.88703	-16.30343	11.27051
10.89121	-16.28146	11.27051
10.89540	-16.28146	11.27051
10.89958	-16.28146	11.27051
10.90376	-16.28146	11.27051
10.90819	-16.25949	11.27051
10.91240	-16.28146	11.27051
10.91659	-16.25949	11.27051
10.92089	-16.25949	11.27051
10.92507	-16.25949	11.27051
10.92925	-16.23752	11.27051
10.93343	-16.23752	11.27051
10.93768	-16.25949	11.27051
10.94195	-16.23752	11.27051
10.94614	-16.23752	11.27051
10.95032	-16.23752	11.27051
10.95450	-16.21554	11.27051
10.95869	-16.21554	11.27051
10.96287	-16.21554	11.27051
10.96705	-16.21554	11.27051
10.97134	-16.21554	11.27051
10.97554	-16.19357	11.27051
10.97973	-16.19357	11.27051
10.98391	-16.19357	11.27051
10.98809	-16.19357	11.27051
10.99228	-16.19357	11.27051
10.99646	-16.19357	11.27051
11.00068	-16.17160	11.27051
11.00494	-16.17160	11.27051
11.00913	-16.17160	11.27051
11.01332	-16.17160	11.27051
11.01750	-16.17160	11.27051
11.02179	-16.17160	11.27051
11.02597	-16.14963	11.27051
11.03015	-16.14963	11.27051
11.03445	-16.14963	11.27051
11.03865	-16.14963	11.27051
11.04283	-16.14963	11.27051
11.04702	-16.12765	11.27051
11.05120	-16.12765	11.27051
11.05538	-16.12765	11.27051
11.05959	-16.12765	11.27051
11.06384	-16.12765	11.27051
11.06811	-16.12765	11.27051
11.07231	-16.12765	11.27051
11.07650	-16.10568	11.27051
11.08069	-16.10568	11.27051
11.08487	-16.10568	11.27051
11.08905	-16.10568	11.27051
11.09324	-16.10568	11.27051
11.09754	-16.10568	11.27051
11.10173	-16.08371	11.27051
11.10592	-16.08371	11.27051
11.11010	-16.08371	11.27051
11.11429	-16.08371	11.27051
11.11847	-16.08371	11.27051
11.12275	-16.08371	11.27051
11.12715	-16.08371	11.27051
11.13137	-16.06173	11.27051
11.13555	-16.06173	11.27051
11.13973	-16.06173	11.27051
11.14392	-16.06173	11.27051
11.14810	-16.06173	11.27051
11.15228	-16.06173	11.27051
11.15655	-16.03976	11.27051
11.16085	-16.06173	11.27051
11.16504	-16.06173	11.27051
11.16922	-16.03976	11.27051
11.17346	-16.03976	11.27051
11.17768	-16.03976	11.27051
11.18190	-16.03976	11.27051
11.18610	-16.03976	11.27051
11.19046	-16.01779	11.27051
11.19468	-16.01779	11.27051
11.19887	-16.03976	11.27051
11.20306	-16.01779	11.27051
11.20725	-16.01779	11.27051
11.21144	-16.01779	11.27051
11.21563	-16.01779	11.27051
11.21989	-16.01779	11.27051
11.22428	-16.01779	11.27051
11.22848	-15.99582	11.27051
11.23267	-16.01779	11.27051
11.23686	-16.01779	11.27051
11.24105	-15.99582	11.27051
11.24526	-16.01779	11.27051
11.24968	-16.01779	11.27051
11.25401	-15.99582	11.27051
11.25823	-15.99582	11.27051
11.26242	-15.99582	11.27051
11.26660	-15.99582	11.27051
11.27079	-15.99582	11.27051
11.27497	-15.99582	11.27051
11.27916	-15.99582	11.27051
11.28346	-15.99582	11.27051
11.28767	-15.99582	11.27051
11.29186	-15.99582	11.27051
11.29604	-15.99582	11.27051
11.30023	-15.99582	11.27051
11.30441	-15.99582	11.27051
11.30860	-15.99582	11.27051
11.31286	-15.99582	11.27051
11.31713	-15.99582	11.27051
11.32133	-15.99582	11.27051
11.32562	-15.99582	11.27051
11.32981	-15.99582	11.27051
11.33399	-15.99582	11.27051
11.33818	-15.99582	11.27051
11.34236	-15.99582	11.27051
11.34667	-15.99582	11.27051
11.35087	-15.99582	11.27051
11.35506	-15.99582	11.27051
11.35925	-15.99582	11.27051
11.36344	-16.01779	11.27051
11.36762	-16.01779	11.27051
11.37181	-15.99582	11.27051
11.37606	-16.01779	11.27051
11.38033	-16.01779	11.27051
11.38453	-15.99582	11.27051
11.38872	-16.01779	11.27051
11.39291	-16.01779	11.27051
11.39709	-16.01779	11.27051
11.40127	-16.01779	11.27051
11.40546	-16.01779	11.27051
11.40976	-16.01779	11.27051
11.41397	-16.01779	11.27051
11.41815	-16.01779	11.27051
11.42234	-16.01779	11.27051
11.42663	-16.01779	11.27051
11.43081	-16.01779	11.27051
11.43499	-16.03976	11.27051
11.43943	-16.01779	11.27051
11.44364	-16.01779	11.27051
11.44782	-16.03976	11.27051
11.45201	-16.03976	11.27051
11.45619	-16.03976	11.27051
11.46039	-16.03976	11.27051
11.46458	-16.03976	11.27051
11.46885	-16.03976	11.27051
11.47314	-16.06173	11.27051
11.47733	-16.03976	11.27051
11.48152	-16.06173	11.27051
11.48570	-16.06173	11.27051
11.48988	-16.06173	11.27051
11.49406	-16.06173	11.27051
11.49825	-16.06173	11.27051
11.50254	-16.06173	11.27051
11.50675	-16.08371	11.27051
11.51094	-16.08371	11.27051
11.51512	-16.06173	11.27051
11.51930	-16.08371	11.27051
11.52349	-16.08371	11.27051
11.52778	-16.08371	11.27051
11.53203	-16.10568	11.27051
11.53631	-16.10568	11.27051
11.54052	-16.08371	11.27051
11.54471	-16.10568	11.27051
11.54890	-16.08371	11.27051
11.55309	-16.10568	11.27051
11.55728	-16.10568	11.27051
11.56147	-16.10568	11.27051
11.56577	-16.10568	11.27051
11.56997	-16.10568	11.27051
11.57416	-16.10568	11.27051
11.57834	-16.10568	11.27051
11.58253	-16.10568	11.27051
11.58671	-16.10568	11.27051
11.59090	-16.12765	11.27051
11.59515	-16.12765	11.27051
11.59942	-16.12765	11.27051
11.60362	-16.14963	11.27051
11.60781	-16.12765	11.27051
11.61200	-16.14963	11.27051
11.61619	-16.14963	11.27051
11.62037	-16.14963	11.27051
11.62457	-16.14963	11.27051
11.62898	-16.17160	11.27051
11.63317	-16.14963	11.27051
11.63736	-16.17160	11.27051
11.64154	-16.17160	11.27051
11.64573	-16.17160	11.27051
11.64991	-16.17160	11.27051
11.65409	-16.17160	11.27051
11.65853	-16.17160	11.27051
11.66273	-16.17160	11.27051
11.66692	-16.17160	11.27051
11.67110	-16.17160	11.27051
11.67529	-16.19357	11.27051
11.67947	-16.19357	11.27051
11.68366	-16.19357	11.27051
11.68791	-16.21554	11.27051
11.69219	-16.21554	11.27051
11.69639	-16.19357	11.27051
11.70058	-16.21554	11.27051
11.70477	-16.21554	11.27051
11.70896	-16.21554	11.27051
11.71314	-16.21554	11.27051
11.71732	-16.21554	11.27051
11.72163	-16.21554	11.27051
11.72583	-16.23752	11.27051
11.73012	-16.21554	11.27051
11.73430	-16.23752	11.27051
11.73849	-16.23752	11.27051
11.74267	-16.23752	11.27051
11.74685	-16.25949	11.27051
11.75111	-16.25949	11.27051
11.75538	-16.23752	11.27051
11.75957	-16.25949	11.27051
11.76376	-16.25949	11.27051
11.76795	-16.25949	11.27051
11.77213	-16.25949	11.27051
11.77632	-16.25949	11.27051
11.78051	-16.25949	11.27051
11.78481	-16.28146	11.27051
11.78901	-16.28146	11.27051
11.79320	-16.28146	11.27051
11.79738	-16.28146	11.27051
11.80157	-16.28146	11.27051
11.80575	-16.28146	11.27051
11.80993	-16.28146	11.27051
11.81418	-16.28146	11.27051
11.81844	-16.30343	11.27051
11.82264	-16.30343	11.27051
11.82683	-16.30343	11.27051
11.83111	-16.30343	11.27051
11.83529	-16.30343	11.27051
11.83948	-16.30343	11.27051
11.84366	-16.32541	11.27051
11.84796	-16.32541	11.27051
11.85216	-16.32541	11.27051
11.85635	-16.32541	11.27051
11.86055	-16.32541	11.27051
11.86473	-16.34738	11.27051
11.86892	-16.34738	11.27051
11.87310	-16.34738	11.27051
11.87735	-16.34738	11.27051
11.88162	-16.34738	11.27051
11.88581	-16.34738	11.27051
11.88999	-16.34738	11.27051
11.89418	-16.36935	11.27051
11.89836	-16.36935	11.27051
11.90255	-16.36935	11.27051
11.90673	-16.36935	11.27051
11.91104	-16.36935	11.27051
11.91524	-16.39132	11.27051
11.91943	-16.39132	11.27051
11.92361	-16.39132	11.27051
11.92780	-16.39132	11.27051
11.93209	-16.41330	11.27051
11.93627	-16.41330	11.27051
11.94074	-16.41330	11.27051
11.94495	-16.41330	11.27051
11.94914	-16.43527	11.27051
11.95332	-16.43527	11.27051
11.95750	-16.43527	11.27051
11.96169	-16.43527	11.27051
11.96588	-16.43527	11.27051
11.97017	-16.43527	11.27051
11.97446	-16.45724	11.27051
11.97865	-16.45724	11.27051
11.98284	-16.45724	11.27051
11.98703	-16.45724	11.27051
11.99122	-16.45724	11.27051
11.99541	-16.45724	11.27051
11.99959	-16.47922	11.27051
12.00392	-16.47922	11.27051
12.00812	-16.50119	11.27051
12.01231	-16.50119	11.27051
12.01650	-16.47922	11.27051
12.02069	-16.50119	11.27051
12.02487	-16.50119	11.27051
12.02905	-16.50119	11.27051
12.03345	-16.50119	11.27051
12.03771	-16.50119	11.27051
12.04191	-16.50119	11.27051
12.04610	-16.52316	11.27051
12.05028	-16.52316	11.27051
12.05447	-16.52316	11.27051
12.05865	-16.52316	11.27051
12.06284	-16.54513	11.27051
12.06714	-16.54513	11.27051
12.07135	-16.54513	11.27051
12.07554	-16.54513	11.27051
12.07972	-16.56711	11.27051
12.08390	-16.56711	11.27051
12.08809	-16.56711	11.27051
12.09227	-16.56711	11.27051
12.09654	-16.56711	11.27051
12.10081	-16.56711	11.27051
12.10501	-16.58908	11.27051
12.10919	-16.58908	11.27051
12.11338	-16.58908	11.27051
12.11756	-16.58908	11.27051
12.12175	-16.58908	11.27051
12.12593	-16.58908	11.27051
12.13023	-16.61105	11.27051
12.13453	-16.58908	11.27051
12.13872	-16.58908	11.27051
12.14291	-16.61105	11.27051
12.14709	-16.61105	11.27051
12.15128	-16.61105	11.27051
12.15546	-16.63302	11.27051
12.15991	-16.61105	11.27051
12.16412	-16.61105	11.27051
12.16832	-16.63302	11.27051
12.17251	-16.61105	11.27051
12.17670	-16.63302	11.27051
12.18089	-16.63302	11.27051
12.18507	-16.61105	11.27051
12.18934	-16.63302	11.27051
12.19362	-16.63302	11.27051
12.19781	-16.63302	11.27051
12.20199	-16.65500	11.27051
12.20618	-16.63302	11.27051
12.21036	-16.63302	11.27051
12.21454	-16.65500	11.27051
12.21873	-16.65500	11.27051
12.22303	-16.63302	11.27051
12.22723	-16.65500	11.27051
12.23141	-16.63302	11.27051
12.23570	-16.65500	11.27051
12.23989	-16.65500	11.27051
12.24408	-16.65500	11.27051
12.24830	-16.65500	11.27051
12.25278	-16.65500	11.27051
12.25700	-16.63302	11.27051
12.26119	-16.65500	11.27051
12.26538	-16.65500	11.27051
12.26958	-16.63302	11.27051
12.27376	-16.63302	11.27051
12.27795	-16.65500	11.27051
12.28222	-16.65500	11.27051
12.28650	-16.65500	11.27051
12.29070	-16.65500	11.27051
12.29489	-16.65500	11.27051
12.29907	-16.65500	11.27051
12.30326	-16.65500	11.27051
12.30744	-16.65500	11.27051
12.31163	-16.65500	11.27051
12.31592	-16.63302	11.27051
12.32013	-16.63302	11.27051
12.32432	-16.65500	11.27051
12.32852	-16.63302	11.27051
12.33271	-16.65500	11.27051
12.33700	-16.65500	11.27051
12.34119	-16.63302	11.27051
12.34544	-16.65500	11.27051
12.34971	-16.65500	11.27051
12.35390	-16.63302	11.27051
12.35809	-16.63302	11.27051
12.36227	-16.63302	11.27051
12.36646	-16.63302	11.27051
12.37065	-16.63302	11.27051
12.37483	-16.63302	11.27051
12.37913	-16.63302	11.27051
12.38333	-16.63302	11.27051
12.38752	-16.63302	11.27051
12.39170	-16.63302	11.27051
12.39589	-16.63302	11.27051
12.40007	-16.63302	11.27051
12.40425	-16.61105	11.27051
12.40870	-16.61105	11.27051
12.41291	-16.61105	11.27051
12.41709	-16.61105	11.27051
12.42128	-16.61105	11.27051
12.42547	-16.58908	11.27051
12.42965	-16.58908	11.27051
12.43384	-16.61105	11.27051
12.43825	-16.61105	11.27051
12.44253	-16.61105	11.27051
12.44673	-16.58908	11.27051
12.45091	-16.61105	11.27051
12.45510	-16.61105	11.27051
12.45929	-16.61105	11.27051
12.46347	-16.58908	11.27051
12.46765	-16.58908	11.27051
12.47196	-16.58908	11.27051
12.47617	-16.58908	11.27051
12.48036	-16.58908	11.27051
12.48455	-16.58908	11.27051
12.48874	-16.58908	11.27051
12.49292	-16.58908	11.27051
12.49710	-16.56711	11.27051
12.50136	-16.58908	11.27051
12.50564	-16.56711	11.27051
12.50983	-16.58908	11.27051
12.51401	-16.58908	11.27051
12.51820	-16.56711	11.27051
12.52238	-16.56711	11.27051
12.52656	-16.58908	11.27051
12.53075	-16.56711	11.27051
12.53508	-16.56711	11.27051
12.53941	-16.56711	11.27051
12.54359	-16.56711	11.27051
12.54778	-16.56711	11.27051
12.55196	-16.56711	11.27051
12.55615	-16.56711	11.27051
12.56033	-16.56711	11.27051
12.56479	-16.56711	11.27051
12.56900	-16.54513	11.27051
12.57319	-16.54513	11.27051
12.57738	-16.54513	11.27051
12.58156	-16.54513	11.27051
12.58574	-16.54513	11.27051
12.58993	-16.54513	11.27051
12.59428	-16.54513	11.27051
12.59857	-16.54513	11.27051
12.60277	-16.54513	11.27051
12.60696	-16.54513	11.27051
12.61115	-16.54513	11.27051
12.61533	-16.54513	11.27051
12.61952	-16.54513	11.27051
12.62370	-16.54513	11.27051
12.62801	-16.54513	11.27051
12.63222	-16.54513	11.27051
12.63641	-16.54513	11.27051
12.64070	-16.54513	11.27051
12.64489	-16.54513	11.27051
12.64907	-16.54513	11.27051
12.65326	-16.52316	11.27051
12.65751	-16.54513	11.27051
12.66178	-16.52316	11.27051
12.66598	-16.52316	11.27051
12.67018	-16.54513	11.27051
12.67436	-16.52316	11.27051
12.67855	-16.54513	11.27051
12.68274	-16.54513	11.27051
12.68692	-16.54513	11.27051
12.69122	-16.54513	11.27051
12.69542	-16.54513	11.27051
12.69961	-16.54513	11.27051
12.70380	-16.54513	11.27051
12.70798	-16.54513	11.27051
12.71216	-16.54513	11.27051
12.71634	-16.54513	11.27051
12.72061	-16.52316	11.27051
12.72489	-16.52316	11.27051
12.72908	-16.54513	11.27051
12.73327	-16.54513	11.27051
12.73746	-16.54513	11.27051
12.74175	-16.54513	11.27051
12.74593	-16.54513	11.27051
12.75011	-16.54513	11.27051
12.75441	-16.54513	11.27051
12.75862	-16.54513	11.27051
12.76280	-16.54513	11.27051
12.76699	-16.54513	11.27051
12.77117	-16.52316	11.27051
12.77536	-16.52316	11.27051
12.77954	-16.54513	11.27051
12.78379	-16.54513	11.27051
12.78806	-16.54513	11.27051
12.79226	-16.52316	11.27051
12.79644	-16.54513	11.27051
12.80061	-16.54513	11.27051
12.80480	-16.54513	11.27051
12.80898	-16.52316	11.27051
12.81316	-16.54513	11.27051
12.81746	-16.52316	11.27051
12.82168	-16.52316	11.27051
12.82587	-16.54513	11.27051
12.83006	-16.52316	11.27051
12.83424	-16.52316	11.27051
12.83843	-16.52316	11.27051
12.84272	-16.52316	11.27051
12.84717	-16.52316	11.27051
12.85138	-16.52316	11.27051
12.85557	-16.52316	11.27051
12.85976	-16.54513	11.27051
12.86395	-16.52316	11.27051
12.86813	-16.52316	11.27051
12.87231	-16.52316	11.27051
12.87660	-16.52316	11.27051
12.88089	-16.50119	11.27051
12.88508	-16.52316	11.27051
12.88927	-16.50119	11.27051
12.89346	-16.50119	11.27051
12.89764	-16.50119	11.27051
12.90183	-16.50119	11.27051
12.90601	-16.50119	11.27051
12.91031	-16.50119	11.27051
12.91451	-16.50119	11.27051
12.91870	-16.50119	11.27051
12.92289	-16.47922	11.27051
12.92707	-16.47922	11.27051
12.93126	-16.50119	11.27051
12.93544	-16.47922	11.27051
12.93970	-16.47922	11.27051
12.94407	-16.47922	11.27051
12.94827	-16.47922	11.27051
12.95245	-16.47922	11.27051
12.95661	-16.47922	11.27051
12.96080	-16.45724	11.27051
12.96498	-16.45724	11.27051
12.96916	-16.45724	11.27051
12.97346	-16.45724	11.27051
12.97766	-16.45724	11.27051
12.98185	-16.45724	11.27051
12.98603	-16.45724	11.27051
12.99022	-16.45724	11.27051
12.99440	-16.45724	11.27051
12.99858	-16.43527	11.27051
13.00283	-16.43527	11.27051
13.00710	-16.43527	11.27051
13.01129	-16.43527	11.27051
13.01547	-16.43527	11.27051
13.01966	-16.41330	11.27051
13.02384	-16.41330	11.27051
13.02803	-16.41330	11.27051
13.03221	-16.41330	11.27051
13.03657	-16.41330	11.27051
13.04078	-16.41330	11.27051
13.04508	-16.41330	11.27051
13.04926	-16.41330	11.27051
13.05345	-16.41330	11.27051
13.05764	-16.39132	11.27051
13.06182	-16.39132	11.27051
13.06627	-16.39132	11.27051
13.07049	-16.39132	11.27051
13.07469	-16.39132	11.27051
13.07888	-16.36935	11.27051
13.08306	-16.36935	11.27051
13.08725	-16.36935	11.27051
13.09143	-16.36935	11.27051
13.09569	-16.36935	11.27051
13.09997	-16.36935	11.27051
13.10417	-16.34738	11.27051
13.10837	-16.34738	11.27051
13.11256	-16.34738	11.27051
13.11675	-16.34738	11.27051
13.12093	-16.34738	11.27051
13.12512	-16.32541	11.27051
13.12942	-16.32541	11.27051
13.13362	-16.32541	11.27051
13.13781	-16.32541	11.27051
13.14199	-16.32541	11.27051
13.14628	-16.32541	11.27051
13.15046	-16.30343	11.27051
13.15465	-16.30343	11.27051
13.15890	-16.30343	11.27051
13.16316	-16.30343	11.27051
13.16736	-16.30343	11.27051
13.17155	-16.28146	11.27051
13.17573	-16.28146	11.27051
13.17992	-16.28146	11.27051
13.18410	-16.28146	11.27051
13.18829	-16.28146	11.27051
13.19260	-16.28146	11.27051
13.19680	-16.28146	11.27051
13.20099	-16.25949	11.27051
13.20517	-16.25949	11.27051
13.20936	-16.25949	11.27051
13.21354	-16.25949	11.27051
13.21773	-16.25949	11.27051
13.22198	-16.25949	11.27051
13.22625	-16.25949	11.27051
13.23044	-16.23752	11.27051
13.23463	-16.23752	11.27051
13.23884	-16.23752	11.27051
13.24304	-16.23752	11.27051
13.24734	-16.23752	11.27051
13.25155	-16.23752	11.27051
13.25593	-16.21554	11.27051
13.26014	-16.21554	11.27051
13.26434	-16.21554	11.27051
13.26854	-16.21554	11.27051
13.27275	-16.21554	11.27051
13.27695	-16.21554	11.27051
13.28114	-16.21554	11.27051
13.28570	-16.19357	11.27051
13.28994	-16.21554	11.27051
13.29414	-16.19357	11.27051
13.29834	-16.21554	11.27051
13.30254	-16.21554	11.27051
13.30673	-16.19357	11.27051
13.31092	-16.19357	11.27051
13.31520	-16.19357	11.27051
13.31949	-16.19357	11.27051
13.32370	-16.19357	11.27051
13.32790	-16.19357	11.27051
13.33209	-16.19357	11.27051
13.33629	-16.19357	11.27051
13.34048	-16.17160	11.27051
13.34468	-16.17160	11.27051
13.34913	-16.17160	11.27051
13.35334	-16.17160	11.27051
13.35754	-16.17160	11.27051
13.36174	-16.19357	11.27051
13.36593	-16.17160	11.27051
13.37012	-16.17160	11.27051
13.37431	-16.17160	11.27051
13.37875	-16.17160	11.27051
13.38296	-16.19357	11.27051
13.38716	-16.17160	11.27051
13.39135	-16.17160	11.27051
13.39553	-16.17160	11.27051
13.39972	-16.17160	11.27051
13.40390	-16.17160	11.27051
13.40815	-16.17160	11.27051
13.41242	-16.17160	11.27051
13.41662	-16.17160	11.27051
13.42081	-16.17160	11.27051
13.42499	-16.17160	11.27051
13.42918	-16.17160	11.27051
13.43336	-16.17160	11.27051
13.43754	-16.17160	11.27051
13.44184	-16.19357	11.27051
13.44604	-16.17160	11.27051
13.45037	-16.17160	11.27051
13.45456	-16.17160	11.27051
13.45875	-16.17160	11.27051
13.46293	-16.17160	11.27051
13.46712	-16.19357	11.27051
13.47155	-16.17160	11.27051
13.47577	-16.19357	11.27051
13.47997	-16.17160	11.27051
13.48416	-16.17160	11.27051
13.48835	-16.17160	11.27051
13.49258	-16.19357	11.27051
13.49679	-16.17160	11.27051
13.50111	-16.19357	11.27051
13.50542	-16.19357	11.27051
13.50963	-16.17160	11.27051
13.51382	-16.17160	11.27051
13.51801	-16.19357	11.27051
13.52221	-16.19357	11.27051
13.52640	-16.19357	11.27051
13.53059	-16.19357	11.27051
13.53491	-16.19357	11.27051
13.53913	-16.19357	11.27051
13.54332	-16.19357	11.27051
13.54751	-16.19357	11.27051
13.55183	-16.19357	11.27051
13.55603	-16.19357	11.27051
13.56023	-16.21554	11.27051
13.56469	-16.19357	11.27051
13.56890	-16.19357	11.27051
13.57310	-16.21554	11.27051
13.57729	-16.21554	11.27051
13.58149	-16.19357	11.27051
13.58568	-16.21554	11.27051
13.58987	-16.21554	11.27051
13.59414	-16.21554	11.27051
13.59841	-16.21554	11.27051
13.60261	-16.21554	11.27051
13.60680	-16.21554	11.27051
13.61098	-16.21554	11.27051
13.61517	-16.21554	11.27051
13.61935	-16.21554	11.27051
13.62353	-16.21554	11.27051
13.62783	-16.21554	11.27051
13.63204	-16.23752	11.27051
13.63622	-16.21554	11.27051
13.64041	-16.23752	11.27051
13.64460	-16.23752	11.27051
13.64880	-16.23752	11.27051
13.65309	-16.23752	11.27051
13.65754	-16.23752	11.27051
13.66175	-16.23752	11.27051
13.66595	-16.23752	11.27051
13.67014	-16.23752	11.27051
13.67433	-16.23752	11.27051
13.67852	-16.23752	11.27051
13.68271	-16.23752	11.27051
13.68697	-16.23752	11.27051
13.69126	-16.23752	11.27051
13.69546	-16.23752	11.27051
13.69965	-16.23752	11.27051
13.70384	-16.25949	11.27051
13.70804	-16.25949	11.27051
13.71222	-16.25949	11.27051
13.71642	-16.25949	11.27051
13.72074	-16.25949	11.27051
13.72494	-16.25949	11.27051
13.72914	-16.25949	11.27051
13.73333	-16.25949	11.27051
13.73752	-16.25949	11.27051
13.74171	-16.25949	11.27051
13.74590	-16.25949	11.27051
13.75019	-16.28146	11.27051
13.75459	-16.28146	11.27051
13.75879	-16.28146	11.27051
13.76299	-16.28146	11.27051
13.76718	-16.28146	11.27051
13.77138	-16.28146	11.27051
13.77557	-16.28146	11.27051
13.77983	-16.28146	11.27051
13.78413	-16.28146	11.27051
13.78834	-16.30343	11.27051
13.79254	-16.28146	11.27051
13.79673	-16.30343	11.27051
13.80091	-16.30343	11.27051
13.80510	-16.30343	11.27051
13.80928	-16.30343	11.27051
13.81358	-16.30343	11.27051
13.81778	-16.30343	11.27051
13.82196	-16.30343	11.27051
13.82614	-16.30343	11.27051
13.83033	-16.30343	11.27051
13.83451	-16.30343	11.27051
13.83869	-16.32541	11.27051
13.84295	-16.32541	11.27051
13.84721	-16.32541	11.27051
13.85142	-16.32541	11.27051
13.85572	-16.32541	11.27051
13.85991	-16.34738	11.27051
13.86409	-16.34738	11.27051
13.86828	-16.34738	11.27051
13.87246	-16.34738	11.27051
13.87673	-16.34738	11.27051
13.88093	-16.36935	11.27051
13.88512	-16.36935	11.27051
13.88930	-16.34738	11.27051
13.89349	-16.36935	11.27051
13.89767	-16.36935	11.27051
13.90187	-16.36935	11.27051
13.90613	-16.36935	11.27051
13.91041	-16.36935	11.27051
13.91460	-16.36935	11.27051
13.91879	-16.39132	11.27051
13.92297	-16.39132	11.27051
13.92716	-16.39132	11.27051
13.93134	-16.41330	11.27051
13.93553	-16.41330	11.27051
13.93982	-16.39132	11.27051
13.94404	-16.41330	11.27051
13.94822	-16.39132	11.27051
13.95242	-16.41330	11.27051
13.95672	-16.41330	11.27051
13.96090	-16.41330	11.27051
13.96509	-16.41330	11.27051
13.96953	-16.43527	11.27051
13.97376	-16.41330	11.27051
13.97796	-16.43527	11.27051
13.98216	-16.43527	11.27051
13.98635	-16.43527	11.27051
13.99054	-16.43527	11.27051
13.99473	-16.43527	11.27051
13.99900	-16.45724	11.27051
14.00328	-16.45724	11.27051
14.00749	-16.45724	11.27051
14.01168	-16.47922	11.27051
14.01587	-16.47922	11.27051
14.02006	-16.45724	11.27051
14.02425	-16.47922	11.27051
14.02844	-16.47922	11.27051
14.03274	-16.47922	11.27051
14.03697	-16.47922	11.27051
14.04117	-16.47922	11.27051
14.04536	-16.50119	11.27051
14.04957	-16.47922	11.27051
14.05377	-16.50119	11.27051
14.05807	-16.50119	11.27051
14.06251	-16.50119	11.27051
14.06673	-16.50119	11.27051
14.07093	-16.50119	11.27051
14.07512	-16.52316	11.27051
14.07931	-16.52316	11.27051
14.08350	-16.52316	11.27051
14.08768	-16.52316	11.27051
14.09194	-16.52316	11.27051
14.09621	-16.52316	11.27051
14.10041	-16.54513	11.27051
14.10461	-16.52316	11.27051
14.10882	-16.54513	11.27051
14.11302	-16.54513	11.27051
14.11721	-16.54513	11.27051
14.12140	-16.54513	11.27051
14.12571	-16.54513	11.27051
14.12991	-16.54513	11.27051
14.13409	-16.56711	11.27051
14.13828	-16.56711	11.27051
14.14246	-16.56711	11.27051
14.14665	-16.56711	11.27051
14.15085	-16.56711	11.27051
14.15530	-16.56711	11.27051
14.15964	-16.58908	11.27051
14.16386	-16.56711	11.27051
14.16806	-16.58908	11.27051
14.17225	-16.58908	11.27051
14.17644	-16.58908	11.27051
14.18061	-16.58908	11.27051
14.18488	-16.58908	11.27051
14.18915	-16.58908	11.27051
14.19335	-16.61105	11.27051
14.19754	-16.58908	11.27051
14.20173	-16.58908	11.27051
14.20592	-16.61105	11.27051
14.21011	-16.61105	11.27051
14.21431	-16.61105	11.27051
14.21862	-16.61105	11.27051
14.22284	-16.61105	11.27051
14.22703	-16.63302	11.27051
14.23122	-16.63302	11.27051
14.23541	-16.63302	11.27051
14.23960	-16.63302	11.27051
14.24379	-16.63302	11.27051
14.24857	-16.63302	11.27051
14.25280	-16.63302	11.27051
14.25701	-16.63302	11.27051
14.26132	-16.63302	11.27051
14.26552	-16.65500	11.27051
14.26971	-16.63302	11.27051
14.27391	-16.65500	11.27051
14.27818	-16.65500	11.27051
14.28250	-16.65500	11.27051
14.28671	-16.65500	11.27051
14.29091	-16.65500	11.27051
14.29510	-16.65500	11.27051
14.29929	-16.65500	11.27051
14.30347	-16.67697	11.27051
14.30766	-16.65500	11.27051
14.31196	-16.67697	11.27051
14.31617	-16.67697	11.27051
14.32035	-16.67697	11.27051
14.32455	-16.67697	11.27051
14.32873	-16.67697	11.27051
14.33291	-16.67697	11.27051
14.33710	-16.67697	11.27051
14.34135	-16.67697	11.27051
14.34561	-16.67697	11.27051
14.34983	-16.69894	11.27051
14.35402	-16.67697	11.27051
14.35822	-16.69894	11.27051
14.36251	-16.69894	11.27051
14.36670	-16.69894	11.27051
14.37088	-16.69894	11.27051
14.37519	-16.69894	11.27051
14.37939	-16.69894	11.27051
14.38357	-16.69894	11.27051
14.38776	-16.69894	11.27051
14.39194	-16.69894	11.27051
14.39613	-16.72091	11.27051
14.40031	-16.72091	11.27051
14.40457	-16.72091	11.27051
14.40885	-16.72091	11.27051
14.41305	-16.72091	11.27051
14.41724	-16.72091	11.27051
14.42142	-16.72091	11.27051
14.42561	-16.72091	11.27051
14.42979	-16.72091	11.27051
14.43398	-16.72091	11.27051
14.43827	-16.72091	11.27051
14.44253	-16.72091	11.27051
14.44672	-16.72091	11.27051
14.45092	-16.72091	11.27051
14.45511	-16.72091	11.27051
14.45930	-16.74289	11.27051
14.46359	-16.74289	11.27051
14.46804	-16.74289	11.27051
14.47227	-16.74289	11.27051
14.47646	-16.74289	11.27051
14.48063	-16.74289	11.27051
14.48483	-16.74289	11.27051
14.48902	-16.74289	11.27051
14.49321	-16.74289	11.27051
14.49749	-16.74289	11.27051
14.50179	-16.74289	11.27051
14.50599	-16.76486	11.27051
14.51019	-16.74289	11.27051
14.51438	-16.76486	11.27051
14.51857	-16.76486	11.27051
14.52276	-16.76486	11.27051
14.52695	-16.76486	11.27051
14.53127	-16.76486	11.27051
14.53548	-16.76486	11.27051
14.53968	-16.76486	11.27051
14.54387	-16.76486	11.27051
14.54806	-16.76486	11.27051
14.55227	-16.76486	11.27051
14.55646	-16.76486	11.27051
14.56070	-16.76486	11.27051
14.56510	-16.78683	11.27051
14.56929	-16.76486	11.27051
14.57348	-16.78683	11.27051
14.57767	-16.78683	11.27051
14.58186	-16.78683	11.27051
14.58605	-16.78683	11.27051
14.59025	-16.78683	11.27051
14.59456	-16.78683	11.27051
14.59875	-16.78683	11.27051
14.60294	-16.78683	11.27051
14.60713	-16.78683	11.27051
14.61131	-16.78683	11.27051
14.61550	-16.78683	11.27051
14.61968	-16.78683	11.27051
14.62411	-16.78683	11.27051
14.62832	-16.78683	11.27051
14.63253	-16.78683	11.27051
14.63672	-16.80881	11.27051
14.64091	-16.78683	11.27051
14.64510	-16.80881	11.27051
14.64929	-16.80881	11.27051
14.65358	-16.80881	11.27051
14.65789	-16.80881	11.27051
14.66210	-16.80881	11.27051
14.66641	-16.78683	11.27051
14.67060	-16.80881	11.27051
14.67479	-16.80881	11.27051
14.67898	-16.80881	11.27051
14.68317	-16.80881	11.27051
14.68748	-16.80881	11.27051
14.69168	-16.80881	11.27051
14.69587	-16.80881	11.27051
14.70005	-16.78683	11.27051
14.70424	-16.80881	11.27051
14.70842	-16.80881	11.27051
14.71262	-16.80881	11.27051
14.71706	-16.80881	11.27051
14.72128	-16.80881	11.27051
14.72548	-16.80881	11.27051
14.72967	-16.80881	11.27051
14.73386	-16.80881	11.27051
14.73805	-16.80881	11.27051
14.74224	-16.80881	11.27051
14.74651	-16.80881	11.27051
14.75082	-16.80881	11.27051
14.75503	-16.80881	11.27051
14.75923	-16.80881	11.27051
14.76343	-16.80881	11.27051
14.76774	-16.80881	11.27051
14.77193	-16.80881	11.27051
14.77612	-16.80881	11.27051
14.78043	-16.80881	11.27051
14.78464	-16.80881	11.27051
14.78883	-16.80881	11.27051
14.79303	-16.80881	11.27051
14.79722	-16.78683	11.27051
14.80141	-16.80881	11.27051
14.80560	-16.80881	11.27051
14.81003	-16.80881	11.27051
14.81424	-16.80881	11.27051
14.81843	-16.80881	11.27051
14.82262	-16.78683	11.27051
14.82681	-16.80881	11.27051
14.83100	-16.78683	11.27051
14.83519	-16.78683	11.27051
14.83945	-16.80881	11.27051
14.84374	-16.80881	11.27051
14.84794	-16.78683	11.27051
14.85215	-16.78683	11.27051
14.85635	-16.78683	11.27051
14.86055	-16.78683	11.27051
14.86474	-16.78683	11.27051
14.86903	-16.78683	11.27051
14.87333	-16.78683	11.27051
14.87753	-16.78683	11.27051
14.88172	-16.78683	11.27051
14.88590	-16.78683	11.27051
14.89009	-16.78683	11.27051
14.89427	-16.76486	11.27051
14.89846	-16.78683	11.27051
14.90289	-16.76486	11.27051
14.90711	-16.76486	11.27051
14.91131	-16.76486	11.27051
14.91550	-16.74289	11.27051
14.91969	-16.74289	11.27051
14.92388	-16.76486	11.27051
14.92806	-16.74289	11.27051
14.93233	-16.74289	11.27051
14.93663	-16.74289	11.27051
14.94084	-16.74289	11.27051
14.94503	-16.74289	11.27051
14.94922	-16.74289	11.27051
14.95342	-16.72091	11.27051
14.95762	-16.74289	11.27051
14.96181	-16.72091	11.27051
14.96613	-16.72091	11.27051
14.97045	-16.72091	11.27051
14.97464	-16.72091	11.27051
14.97883	-16.69894	11.27051
14.98302	-16.69894	11.27051
14.98721	-16.69894	11.27051
14.99140	-16.67697	11.27051
14.99587	-16.67697	11.27051
15.00052	-16.67697	0.24654
15.00471	-16.67697	0.24654
15.00890	-16.67697	0.24654
15.01309	-16.67697	0.24654
15.01727	-16.65500	0.24654
15.02146	-16.65500	0.24654
15.02571	-16.65500	0.24654
15.02998	-16.65500	0.24654
15.03417	-16.65500	0.24654
15.03835	-16.63302	0.24654
15.04253	-16.63302	0.24654
15.04672	-16.63302	0.24654
15.05092	-16.63302	0.24654
15.05511	-16.63302	0.24654
15.05941	-16.61105	0.24654
15.06366	-16.58908	0.24654
15.06786	-16.58908	0.24654
15.07206	-16.58908	0.24654
15.07625	-16.58908	0.24654
15.08043	-16.56711	0.24654
15.08461	-16.56711	0.24654
15.08908	-16.54513	0.24654
15.09331	-16.54513	0.24654
15.09751	-16.52316	0.24654
15.10181	-16.50119	0.24654
15.10616	-16.50119	0.24654
15.11037	-16.50119	0.24654
15.11457	-16.47922	0.24654
15.11884	-16.45724	0.24654
15.12311	-16.43527	0.24654
15.12732	-16.41330	0.24654
15.13151	-16.39132	0.24654
15.13570	-16.39132	0.24654
15.13989	-16.39132	0.24654
15.14408	-16.34738	0.24654
15.14827	-16.32541	0.24654
15.15261	-16.30343	0.24654
15.15683	-16.28146	0.24654
15.16103	-16.25949	0.24654
15.16523	-16.25949	0.24654
15.16942	-16.21554	0.24654
15.17361	-16.19357	0.24654
15.17780	-16.14963	0.24654
15.18222	-16.12765	0.24654
15.18643	-16.12765	0.24654
15.19062	-16.08371	0.24654
15.19482	-16.03976	0.24654
15.19901	-16.01779	0.24654
15.20331	-15.97384	0.24654
15.20750	-15.92990	0.24654
15.21177	-15.88595	0.24654
15.21605	-15.88595	0.24654
15.22025	-15.84201	0.24654
15.22444	-15.79806	0.24654
15.22861	-15.75412	0.24654
15.23280	-15.71017	0.24654
15.23699	-15.66623	0.24654
15.24118	-15.62228	0.24654
15.24548	-15.62228	0.24654
15.24975	-15.57834	0.24654
15.25396	-15.51242	0.24654
15.25816	-15.46847	0.24654
15.26235	-15.40256	0.24654
15.26654	-15.35861	0.24654
15.27073	-15.35861	0.24654
15.27518	-15.29269	0.24654
15.27940	-15.22677	0.24654
15.28359	-15.18283	0.24654
15.28779	-15.11691	0.24654
15.29198	-15.05099	0.24654
15.29618	-14.98507	0.24654
15.30037	-14.98507	0.24654
15.30480	-14.91916	0.24654
15.30910	-14.85324	0.24654
15.31330	-14.78732	0.24654
15.31749	-14.69943	0.24654
15.32168	-14.69943	0.24654
15.32587	-14.56759	0.24654
15.33006	-14.56759	0.24654
15.33425	-14.50168	0.24654
15.33856	-14.43576	0.24654
15.34276	-14.34787	0.24654
15.34695	-14.25998	0.24654
15.35117	-14.25998	0.24654
15.35537	-14.19406	0.24654
15.35957	-14.10617	0.24654
15.36376	-14.01828	0.24654
15.36819	-13.93039	0.24654
15.37240	-13.86447	0.24654
15.37660	-13.86447	0.24654
15.38079	-13.75461	0.24654
15.38498	-13.68869	0.24654
15.38917	-13.60080	0.24654
15.39336	-13.49093	0.24654
15.39763	-13.40304	0.24654
15.40192	-13.40304	0.24654
15.40624	-13.31515	0.24654
15.41043	-13.22726	0.24654
15.41461	-13.13937	0.24654
15.41879	-13.05148	0.24654
15.42298	-12.94162	0.24654
15.42716	-12.94162	0.24654
15.43146	-12.85373	0.24654
15.43566	-12.74386	0.24654
15.43985	-12.63400	0.24654
15.44403	-12.54611	0.24654
15.44822	-12.45822	0.24654
15.45242	-12.37033	0.24654
15.45662	-12.37033	0.24654
15.46108	-12.26047	0.24654
15.46530	-12.15060	0.24654
15.46949	-12.04074	0.24654
15.47369	-11.93088	0.24654
15.47788	-11.82101	0.24654
15.48208	-11.82101	0.24654
15.48627	-11.71115	0.24654
15.49057	-11.60129	0.24654
15.49486	-11.49142	0.24654
15.49907	-11.40353	0.24654
15.50326	-11.29367	0.24654
15.50756	-11.18381	0.24654
15.51175	-11.18381	0.24654
15.51594	-11.05197	0.24654
15.52013	-10.94211	0.24654
15.52444	-10.83224	0.24654
15.52864	-10.70041	0.24654
15.53283	-10.59054	0.24654
15.53702	-10.48068	0.24654
15.54121	-10.48068	0.24654
15.54540	-10.37082	0.24654
15.54959	-10.26095	0.24654
15.55388	-10.12912	0.24654
15.55816	-9.99728	0.24654
15.56237	-9.88742	0.24654
15.56656	-9.88742	0.24654
15.57075	-9.75558	0.24654
15.57494	-9.64572	0.24654
15.57913	-9.49191	0.24654
15.58332	-9.40402	0.24654
15.58763	-9.27218	0.24654
15.59183	-9.27218	0.24654
15.59602	-9.14035	0.24654
15.60020	-9.00851	0.24654
15.60439	-8.87668	0.24654
15.60868	-8.76681	0.24654
15.61287	-8.61300	0.24654
15.61730	-8.61300	0.24654
15.62152	-8.48117	0.24654
15.62571	-8.34933	0.24654
15.62990	-8.21750	0.24654
15.63409	-8.08566	0.24654
15.63828	-7.95382	0.24654
15.64247	-7.95382	0.24654
15.64672	-7.82199	0.24654
15.65106	-7.66818	0.24654
15.65530	-7.53634	0.24654
15.65949	-7.40451	0.24654
15.66369	-7.40451	0.24654
15.66788	-7.14084	0.24654
15.67207	-7.14084	0.24654
15.67626	-7.00900	0.24654
15.68060	-6.87716	0.24654
15.68480	-6.74533	0.24654
15.68900	-6.61349	0.24654
15.69319	-6.61349	0.24654
15.69739	-6.45968	0.24654
15.70158	-6.32785	0.24654
15.70577	-6.17404	0.24654
15.71017	-6.06418	0.24654
15.71443	-5.91037	0.24654
15.71862	-5.77853	0.24654
15.72281	-5.77853	0.24654
15.72700	-5.62472	0.24654
15.73119	-5.49289	0.24654
15.73538	-5.33908	0.24654
15.73957	-5.20724	0.24654
15.74387	-5.05343	0.24654
15.74808	-5.05343	0.24654
15.75228	-4.92160	0.24654
15.75649	-4.81173	0.24654
15.76068	-4.65793	0.24654
15.76486	-4.50412	0.24654
15.76905	-4.37228	0.24654
15.77349	-4.21847	0.24654
15.77771	-4.21847	0.24654
15.78190	-4.06466	0.24654
15.78610	-3.93283	0.24654
15.79029	-3.80099	0.24654
15.79448	-3.66916	0.24654
15.79868	-3.51535	0.24654
15.80301	-3.38351	0.24654
15.80731	-3.38351	0.24654
15.81163	-3.22970	0.24654
15.81582	-3.09787	0.24654
15.82001	-2.94406	0.24654
15.82420	-2.79025	0.24654
15.82839	-2.79025	0.24654
15.83259	-2.65841	0.24654
15.83689	-2.50461	0.24654
15.84110	-2.39474	0.24654
15.84529	-2.24093	0.24654
15.84948	-2.10910	0.24654
15.85368	-1.97726	0.24654
15.85789	-1.97726	0.24654
15.86208	-1.80148	0.24654
15.86651	-1.66964	0.24654
15.87073	-1.51584	0.24654
15.87492	-1.38400	0.24654
15.87912	-1.23019	0.24654
15.88331	-1.23019	0.24654
15.88749	-1.09836	0.24654
15.89168	-0.94455	0.24654
15.89594	-0.81271	0.24654
15.90022	-0.68088	0.24654
15.90442	-0.52707	0.24654
15.90861	-0.52707	0.24654
15.91290	-0.39523	0.24654
15.91709	-0.26339	0.24654
15.92127	-0.10959	0.24654
15.92545	0.00028	0.24654
15.92976	0.15409	0.24654
15.93397	0.15409	0.24654
15.93816	0.28592	0.24654
15.94240	0.41776	0.24654
15.94659	0.54959	0.24654
15.95078	0.70340	0.24654
15.95498	0.83524	0.24654
15.95944	0.83524	0.24654
15.96367	0.98905	0.24654
15.96786	1.07694	0.24654
15.97205	1.20877	0.24654
15.97623	1.36258	0.24654
15.98042	1.49442	0.24654
15.98461	1.62625	0.24654
15.98889	1.62625	0.24654
15.99317	1.75809	0.24654
15.99737	1.88993	0.24654
16.00156	2.02176	0.24654
16.00574	2.15360	0.24654
16.00993	2.26346	0.24654
16.01422	2.37332	0.24654
16.01840	2.37332	0.24654
16.02271	2.50516	0.24654
16.02692	2.63700	0.24654
16.03110	2.76883	0.24654
16.03529	2.90067	0.24654
16.03948	2.90067	0.24654
16.04366	3.01053	0.24654
16.04785	3.14237	0.24654
16.05213	3.25223	0.24654
16.05641	3.36209	0.24654
16.06061	3.49393	0.24654
16.06480	3.60379	0.24654
16.06898	3.60379	0.24654
16.07317	3.71366	0.24654
16.07736	3.84549	0.24654
16.08154	3.95536	0.24654
16.08586	4.08719	0.24654
16.09006	4.19705	0.24654
16.09425	4.28494	0.24654
16.09843	4.28494	0.24654
16.10262	4.39481	0.24654
16.10683	4.50467	0.24654
16.11102	4.61453	0.24654
16.11559	4.72440	0.24654
16.11984	4.85623	0.24654
16.12403	4.85623	0.24654
16.12822	4.94412	0.24654
16.13241	5.07596	0.24654
16.13660	5.16385	0.24654
16.14079	5.27371	0.24654
16.14506	5.38358	0.24654
16.14934	5.38358	0.24654
16.15357	5.49344	0.24654
16.15777	5.58133	0.24654
16.16197	5.69119	0.24654
16.16617	5.77909	0.24654
16.17036	5.77909	0.24654
16.17455	5.88895	0.24654
16.17886	5.97684	0.24654
16.18307	6.06473	0.24654
16.18727	6.15262	0.24654
16.19146	6.24051	0.24654
16.19565	6.32840	0.24654
16.19984	6.32840	0.24654
16.20404	6.43827	0.24654
16.20847	6.52616	0.24654
16.21264	6.61405	0.24654
16.21694	6.70194	0.24654
16.22112	6.76786	0.24654
16.22531	6.85575	0.24654
16.22949	6.85575	0.24654
16.23367	6.94364	0.24654
16.23793	7.03153	0.24654
16.24220	7.11942	0.24654
16.24640	7.18534	0.24654
16.25062	7.27323	0.24654
16.25482	7.27323	0.24654
16.25902	7.36112	0.24654
16.26321	7.42703	0.24654
16.26740	7.49295	0.24654
16.27169	7.55887	0.24654
16.27590	7.62479	0.24654
16.28009	7.62479	0.24654
16.28427	7.71268	0.24654
16.28846	7.77860	0.24654
16.29261	7.84452	0.24654
16.29680	7.91043	0.24654
16.30106	7.97635	0.24654
16.30533	8.04227	0.24654
16.30952	8.04227	0.24654
16.31371	8.10819	0.24654
16.31800	8.17411	0.24654
16.32218	8.21805	0.24654
16.32637	8.28397	0.24654
16.33055	8.34989	0.24654
16.33485	8.34989	0.24654
16.33906	8.39383	0.24654
16.34324	8.45975	0.24654
16.34743	8.50369	0.24654
16.35161	8.54764	0.24654
16.35581	8.61356	0.24654
16.36000	8.61356	0.24654
16.36426	8.65750	0.24654
16.36855	8.70145	0.24654
16.37275	8.74539	0.24654
16.37693	8.81131	0.24654
16.38112	8.85526	0.24654
16.38530	8.85526	0.24654
16.38949	8.87723	0.24654
16.39367	8.94315	0.24654
16.39797	8.96512	0.24654
16.40217	9.00907	0.24654
16.40636	9.05301	0.24654
16.41054	9.05301	0.24654
16.41473	9.09696	0.24654
16.41901	9.11893	0.24654
16.42320	9.16287	0.24654
16.42762	9.18485	0.24654
16.43183	9.22879	0.24654
16.43603	9.25077	0.24654
16.44022	9.25077	0.24654
16.44441	9.27274	0.24654
16.44860	9.29471	0.24654
16.45281	9.31668	0.24654
16.45709	9.33866	0.24654
16.46138	9.33866	0.24654
16.46559	9.36063	0.24654
16.46978	9.38260	0.24654
16.47397	9.40457	0.24654
16.47816	9.40457	0.24654
16.48235	9.42655	0.24654
16.48654	9.44852	0.24654
16.49085	9.44852	0.24654
16.49509	9.47049	0.24654
16.49929	9.47049	0.24654
16.50349	9.49246	0.24654
16.50769	9.49246	0.24654
16.51189	9.51444	0.24654
16.51608	9.51444	0.24654
16.52051	9.51444	0.24654
16.52477	9.51444	0.24654
16.52896	9.51444	0.24654
16.53316	9.51444	0.24654
16.53734	9.51444	0.24654
16.54153	9.53641	0.24654
16.54572	9.53641	0.24654
16.54998	9.51444	0.24654
16.55429	9.51444	0.24654
16.55849	9.51444	0.24654
16.56268	9.51444	0.24654
16.56687	9.51444	0.24654
16.57105	9.51444	0.24654
16.57524	9.49246	0.24654
16.57942	9.49246	0.24654
16.58373	9.47049	0.24654
16.58794	9.44852	0.24654
16.59214	9.44852	0.24654
16.59634	9.44852	0.24654
16.60055	9.42655	0.24654
16.60474	9.42655	0.24654
16.60892	9.40457	0.24654
16.61319	9.38260	0.24654
16.61747	9.36063	0.24654
16.62177	9.33866	0.24654
16.62596	9.33866	0.24654
16.63015	9.31668	0.24654
16.63433	9.29471	0.24654
16.63852	9.27274	0.24654
16.64270	9.25077	0.24654
16.64700	9.20682	0.24654
16.65120	9.20682	0.24654
16.65541	9.18485	0.24654
16.65960	9.16287	0.24654
16.66379	9.14090	0.24654
16.66797	9.09696	0.24654
16.67215	9.09696	0.24654
16.67661	9.07498	0.24654
16.68083	9.03104	0.24654
16.68502	9.00907	0.24654
16.68921	8.96512	0.24654
16.69340	8.94315	0.24654
16.69759	8.89920	0.24654
16.70178	8.89920	0.24654
16.70605	8.85526	0.24654
16.71035	8.81131	0.24654
16.71455	8.76737	0.24654
16.71874	8.72342	0.24654
16.72304	8.70145	0.24654
16.72723	8.70145	0.24654
16.73142	8.65750	0.24654
16.73561	8.61356	0.24654
16.73992	8.56961	0.24654
16.74413	8.52567	0.24654
16.74832	8.48172	0.24654
16.75258	8.43778	0.24654
16.75677	8.43778	0.24654
16.76097	8.37186	0.24654
16.76517	8.32791	0.24654
16.76961	8.28397	0.24654
16.77382	8.21805	0.24654
16.77802	8.19608	0.24654
16.78221	8.13016	0.24654
16.78640	8.13016	0.24654
16.79059	8.08621	0.24654
16.79478	8.02030	0.24654
16.79906	7.97635	0.24654
16.80335	7.91043	0.24654
16.80755	7.91043	0.24654
16.81175	7.86649	0.24654
16.81594	7.80057	0.24654
16.82013	7.75662	0.24654
16.82442	7.71268	0.24654
16.82861	7.64676	0.24654
16.83291	7.58084	0.24654
16.83712	7.58084	0.24654
16.84130	7.51493	0.24654
16.84549	7.47098	0.24654
16.84967	7.40506	0.24654
16.85387	7.33914	0.24654
16.85807	7.27323	0.24654
16.86252	7.22928	0.24654
16.86674	7.22928	0.24654
16.87094	7.16336	0.24654
16.87513	7.09744	0.24654
16.87932	7.03153	0.24654
16.88351	6.96561	0.24654
16.88770	6.89969	0.24654
16.89197	6.89969	0.24654
16.89627	6.83377	0.24654
16.90049	6.76786	0.24654
16.90469	6.67996	0.24654
16.90888	6.61405	0.24654
16.91307	6.61405	0.24654
16.91726	6.54813	0.24654
16.92145	6.48221	0.24654
16.92588	6.41629	0.24654
16.93008	6.32840	0.24654
16.93427	6.26248	0.24654
16.93847	6.26248	0.24654
16.94266	6.19657	0.24654
16.94685	6.10868	0.24654
16.95104	6.06473	0.24654
16.95552	5.97684	0.24654
16.95975	5.91092	0.24654
16.96394	5.82303	0.24654
16.96814	5.82303	0.24654
16.97233	5.75711	0.24654
16.97654	5.69119	0.24654
16.98072	5.58133	0.24654
16.98498	5.51541	0.24654
16.98926	5.44950	0.24654
16.99345	5.36161	0.24654
16.99764	5.36161	0.24654
17.00182	5.29569	0.24654
17.00601	5.20780	0.24654
17.01020	5.11991	0.24654
17.01438	5.03202	0.24654
17.01868	4.96610	0.24654
17.02288	4.96610	0.24654
17.02718	4.87821	0.24654
17.03136	4.79032	0.24654
17.03555	4.72440	0.24654
17.03973	4.63651	0.24654
17.04392	4.54862	0.24654
17.04837	4.48270	0.24654
17.05260	4.48270	0.24654
17.05680	4.39481	0.24654
17.06100	4.30692	0.24654
17.06519	4.21903	0.24654
17.06938	4.13114	0.24654
17.07357	4.06522	0.24654
17.07783	4.06522	0.24654
17.08211	3.95536	0.24654
17.08631	3.86746	0.24654
17.09050	3.77957	0.24654
17.09468	3.69168	0.24654
17.09887	3.60379	0.24654
17.10305	3.60379	0.24654
17.10726	3.51590	0.24654
17.11157	3.42801	0.24654
17.11579	3.31815	0.24654
17.11998	3.25223	0.24654
17.12417	3.16434	0.24654
17.12846	3.07645	0.24654
17.13261	3.07645	0.24654
17.13680	2.96659	0.24654
17.14125	2.87869	0.24654
17.14546	2.79080	0.24654
17.14965	2.70291	0.24654
17.15386	2.61502	0.24654
17.15806	2.61502	0.24654
17.16225	2.50516	0.24654
17.16647	2.41727	0.24654
17.17086	2.32938	0.24654
17.17517	2.24149	0.24654
17.17938	2.13162	0.24654
17.18358	2.13162	0.24654
17.18777	2.04373	0.24654
17.19197	1.95584	0.24654
17.19616	1.84598	0.24654
17.20035	1.75809	0.24654
17.20467	1.67020	0.24654
17.20887	1.67020	0.24654
17.21306	1.58231	0.24654
17.21724	1.47244	0.24654
17.22143	1.38455	0.24654
17.22562	1.29666	0.24654
17.22990	1.20877	0.24654
17.23436	1.20877	0.24654
17.23859	1.09891	0.24654
17.24278	1.01102	0.24654
17.24697	0.92313	0.24654
17.25120	0.83524	0.24654
17.25541	0.74735	0.24654
17.25960	0.63748	0.24654
17.26389	0.63748	0.24654
17.26818	0.54959	0.24654
17.27239	0.43973	0.24654
17.27659	0.35184	0.24654
17.28079	0.26395	0.24654
17.28497	0.15409	0.24654
17.28916	0.08817	0.24654
17.29335	0.08817	0.24654
17.29767	0.00028	0.24654
17.30187	-0.10959	0.24654
17.30607	-0.19748	0.24654
17.31026	-0.28537	0.24654
17.31446	-0.28537	0.24654
17.31865	-0.39523	0.24654
17.32284	-0.48312	0.24654
17.32711	-0.57101	0.24654
17.33149	-0.65890	0.24654
17.33568	-0.74679	0.24654
17.33987	-0.83468	0.24654
17.34407	-0.83468	0.24654
17.34826	-0.94455	0.24654
17.35245	-1.03244	0.24654
17.35663	-1.12033	0.24654
17.36096	-1.20822	0.24654
17.36517	-1.29611	0.24654
17.36936	-1.29611	0.24654
17.37354	-1.40597	0.24654
17.37773	-1.47189	0.24654
17.38191	-1.55978	0.24654
17.38610	-1.64767	0.24654
17.39058	-1.73556	0.24654
17.39480	-1.82345	0.24654
17.39900	-1.82345	0.24654
17.40320	-1.93332	0.24654
17.40739	-2.02121	0.24654
17.41158	-2.10910	0.24654
17.41578	-2.19699	0.24654
17.42005	-2.28488	0.24654
17.42435	-2.28488	0.24654
17.42856	-2.37277	0.24654
17.43286	-2.46066	0.24654
17.43705	-2.54855	0.24654
17.44124	-2.63644	0.24654
17.44543	-2.63644	0.24654
17.44962	-2.72433	0.24654
17.45394	-2.81222	0.24654
17.45817	-2.90011	0.24654
17.46236	-2.96603	0.24654
17.46656	-3.03195	0.24654
17.47076	-3.11984	0.24654
17.47495	-3.11984	0.24654
17.47914	-3.20773	0.24654
17.48358	-3.29562	0.24654
17.48780	-3.38351	0.24654
17.49199	-3.44943	0.24654
17.49618	-3.53732	0.24654
17.50037	-3.60324	0.24654
17.50458	-3.60324	0.24654
17.50877	-3.66916	0.24654
17.51304	-3.75705	0.24654
17.51733	-3.84494	0.24654
17.52154	-3.91086	0.24654
17.52573	-3.99875	0.24654
17.52992	-3.99875	0.24654
17.53422	-4.06466	0.24654
17.53840	-4.13058	0.24654
17.54258	-4.21847	0.24654
17.54688	-4.26242	0.24654
17.55109	-4.35031	0.24654
17.55530	-4.41623	0.24654
17.55949	-4.41623	0.24654
17.56369	-4.48214	0.24654
17.56787	-4.57004	0.24654
17.57206	-4.63595	0.24654
17.57653	-4.70187	0.24654
17.58074	-4.70187	0.24654
17.58493	-4.81173	0.24654
17.58913	-4.81173	0.24654
17.59332	-4.87765	0.24654
17.59751	-4.94357	0.24654
17.60170	-5.03146	0.24654
17.60598	-5.09738	0.24654
17.61028	-5.09738	0.24654
17.61448	-5.16330	0.24654
17.61868	-5.20724	0.24654
17.62287	-5.27316	0.24654
17.62707	-5.33908	0.24654
17.63126	-5.38302	0.24654
17.63556	-5.44894	0.24654
17.63986	-5.44894	0.24654
17.64407	-5.49289	0.24654
17.64827	-5.55881	0.24654
17.65246	-5.60275	0.24654
17.65663	-5.66867	0.24654
17.66083	-5.73459	0.24654
17.66502	-5.73459	0.24654
17.66928	-5.77853	0.24654
17.67355	-5.82248	0.24654
17.67775	-5.88839	0.24654
17.68194	-5.93234	0.24654
17.68613	-5.93234	0.24654
17.69033	-5.99826	0.24654
17.69452	-6.04220	0.24654
17.69871	-6.08615	0.24654
17.70300	-6.13009	0.24654
17.70720	-6.17404	0.24654
17.71139	-6.17404	0.24654
17.71557	-6.21798	0.24654
17.71976	-6.26193	0.24654
17.72394	-6.30588	0.24654
17.72813	-6.34982	0.24654
17.73259	-6.39377	0.24654
17.73692	-6.43771	0.24654
17.74112	-6.43771	0.24654
17.74531	-6.45968	0.24654
17.74950	-6.50363	0.24654
17.75374	-6.54757	0.24654
17.75793	-6.56955	0.24654
17.76220	-6.61349	0.24654
17.76648	-6.63547	0.24654
17.77069	-6.63547	0.24654
17.77488	-6.67941	0.24654
17.77907	-6.70138	0.24654
17.78326	-6.72336	0.24654
17.78746	-6.76730	0.24654
17.79166	-6.76730	0.24654
17.79597	-6.81125	0.24654
17.80018	-6.83322	0.24654
17.80438	-6.85519	0.24654
17.80858	-6.87716	0.24654
17.81278	-6.89914	0.24654
17.81697	-6.92111	0.24654
17.82116	-6.92111	0.24654
17.82560	-6.94308	0.24654
17.82981	-6.98703	0.24654
17.83400	-7.00900	0.24654
17.83830	-7.00900	0.24654
17.84249	-7.03097	0.24654
17.84667	-7.05295	0.24654
17.85086	-7.05295	0.24654
17.85514	-7.07492	0.24654
17.85942	-7.07492	0.24654
17.86362	-7.09689	0.24654
17.86781	-7.11886	0.24654
17.87200	-7.11886	0.24654
17.87618	-7.11886	0.24654
17.88037	-7.11886	0.24654
17.88456	-7.14084	0.24654
17.88887	-7.14084	0.24654
17.89307	-7.16281	0.24654
17.89725	-7.16281	0.24654
17.90144	-7.18478	0.24654
17.90562	-7.18478	0.24654
17.90980	-7.18478	0.24654
17.91399	-7.16281	0.24654
17.91825	-7.18478	0.24654
17.92251	-7.18478	0.24654
17.92670	-7.18478	0.24654
17.93089	-7.18478	0.24654
17.93507	-7.18478	0.24654
17.93937	-7.18478	0.24654
17.94355	-7.18478	0.24654
17.94773	-7.16281	0.24654
17.95203	-7.16281	0.24654
17.95627	-7.16281	0.24654
17.96047	-7.16281	0.24654
17.96461	-7.16281	0.24654
17.96880	-7.16281	0.24654
17.97298	-7.14084	0.24654
17.97717	-7.14084	0.24654
17.98142	-7.14084	0.24654
17.98569	-7.11886	0.24654
17.98988	-7.09689	0.24654
17.99407	-7.09689	0.24654
17.99825	-7.07492	0.24654
18.00244	-7.07492	0.24654
18.00662	-7.07492	0.24654
18.01080	-7.05295	0.24654
18.01510	-7.03097	0.24654
18.01931	-7.00900	0.24654
18.02350	-7.00900	0.24654
18.02768	-6.98703	0.24654
18.03187	-6.98703	0.24654
18.03605	-6.96506	0.24654
18.04034	-6.94308	0.24654
18.04481	-6.92111	0.24654
18.04902	-6.89914	0.24654
18.05322	-6.85519	0.24654
18.05742	-6.83322	0.24654
18.06163	-6.83322	0.24654
18.06582	-6.83322	0.24654
18.07001	-6.78927	0.24654
18.07429	-6.76730	0.24654
18.07859	-6.74533	0.24654
18.08280	-6.70138	0.24654
18.08700	-6.70138	0.24654
18.09119	-6.67941	0.24654
18.09538	-6.65744	0.24654
18.09957	-6.61349	0.24654
18.10376	-6.59152	0.24654
18.10811	-6.54757	0.24654
18.11232	-6.52560	0.24654
18.11652	-6.52560	0.24654
18.12071	-6.48166	0.24654
18.12492	-6.43771	0.24654
18.12910	-6.41574	0.24654
18.13329	-6.37179	0.24654
18.13756	-6.37179	0.24654
18.14194	-6.30588	0.24654
18.14614	-6.30588	0.24654
18.15033	-6.26193	0.24654
18.15454	-6.23996	0.24654
18.15874	-6.19601	0.24654
18.16294	-6.15207	0.24654
18.16724	-6.15207	0.24654
18.17154	-6.10812	0.24654
18.17574	-6.06418	0.24654
18.17993	-6.02023	0.24654
18.18412	-5.97629	0.24654
18.18831	-5.93234	0.24654
18.19251	-5.93234	0.24654
18.19670	-5.88839	0.24654
18.20100	-5.84445	0.24654
18.20521	-5.80050	0.24654
18.20939	-5.75656	0.24654
18.21358	-5.75656	0.24654
18.21777	-5.71261	0.24654
18.22195	-5.66867	0.24654
18.22615	-5.62472	0.24654
18.23040	-5.58078	0.24654
18.23467	-5.53683	0.24654
18.23886	-5.47091	0.24654
18.24315	-5.47091	0.24654
18.24734	-5.42697	0.24654
18.25155	-5.38302	0.24654
18.25576	-5.33908	0.24654
18.25994	-5.27316	0.24654
18.26425	-5.22922	0.24654
18.26846	-5.18527	0.24654
18.27261	-5.18527	0.24654
18.27680	-5.14132	0.24654
18.28098	-5.09738	0.24654
18.28517	-5.03146	0.24654
18.28935	-4.98752	0.24654
18.29360	-4.92160	0.24654
18.29787	-4.92160	0.24654
18.30206	-4.87765	0.24654
18.30625	-4.83371	0.24654
18.31043	-4.76779	0.24654
18.31462	-4.72384	0.24654
18.31880	-4.67990	0.24654
18.32299	-4.67990	0.24654
18.32729	-4.61398	0.24654
18.33149	-4.54806	0.24654
18.33568	-4.52609	0.24654
18.33986	-4.46017	0.24654
18.34415	-4.39425	0.24654
18.34833	-4.39425	0.24654
18.35253	-4.35031	0.24654
18.35702	-4.30636	0.24654
18.36123	-4.24045	0.24654
18.36542	-4.17453	0.24654
18.36961	-4.13058	0.24654
18.37380	-4.08664	0.24654
18.37798	-4.08664	0.24654
18.38217	-4.02072	0.24654
18.38643	-3.95480	0.24654
18.39072	-3.88888	0.24654
18.39491	-3.84494	0.24654
18.39910	-3.80099	0.24654
18.40329	-3.73507	0.24654
18.40747	-3.73507	0.24654
18.41166	-3.69113	0.24654
18.41585	-3.62521	0.24654
18.42015	-3.55929	0.24654
18.42436	-3.49338	0.24654
18.42856	-3.49338	0.24654
18.43275	-3.44943	0.24654
18.43694	-3.40548	0.24654
18.44115	-3.31759	0.24654
18.44544	-3.27365	0.24654
18.44989	-3.20773	0.24654
18.45411	-3.20773	0.24654
18.45832	-3.14181	0.24654
18.46251	-3.09787	0.24654
18.46671	-3.03195	0.24654
18.47091	-2.96603	0.24654
18.47510	-2.92209	0.24654
18.47937	-2.92209	0.24654
18.48367	-2.85617	0.24654
18.48787	-2.81222	0.24654
18.49208	-2.74631	0.24654
18.49627	-2.70236	0.24654
18.50048	-2.63644	0.24654
18.50467	-2.57052	0.24654
18.50886	-2.57052	0.24654
18.51318	-2.50461	0.24654
18.51739	-2.46066	0.24654
18.52159	-2.39474	0.24654
18.52578	-2.35080	0.24654
18.52997	-2.28488	0.24654
18.53416	-2.28488	0.24654
18.53835	-2.24093	0.24654
18.54262	-2.17502	0.24654
18.54701	-2.13107	0.24654
18.55121	-2.06515	0.24654
18.55542	-1.99923	0.24654
18.55962	-1.99923	0.24654
18.56382	-1.93332	0.24654
18.56801	-1.88937	0.24654
18.57227	-1.84543	0.24654
18.57657	-1.77951	0.24654
18.58077	-1.73556	0.24654
18.58498	-1.66964	0.24654
18.58918	-1.66964	0.24654
18.59336	-1.62570	0.24654
18.59755	-1.55978	0.24654
18.60174	-1.51584	0.24654
18.60604	-1.44992	0.24654
18.61025	-1.40597	0.24654
18.61443	-1.36203	0.24654
18.61862	-1.36203	0.24654
18.62280	-1.29611	0.24654
18.62699	-1.25216	0.24654
18.63118	-1.20822	0.24654
18.63543	-1.14230	0.24654
18.63970	-1.09836	0.24654
18.64389	-1.09836	0.24654
18.64818	-1.03244	0.24654
18.65237	-0.98849	0.24654
18.65658	-0.94455	0.24654
18.66077	-0.87863	0.24654
18.66496	-0.83468	0.24654
18.66927	-0.83468	0.24654
18.67349	-0.79074	0.24654
18.67767	-0.74679	0.24654
18.68186	-0.68088	0.24654
18.68605	-0.63693	0.24654
18.69023	-0.59298	0.24654
18.69442	-0.59298	0.24654
18.69886	-0.52707	0.24654
18.70309	-0.48312	0.24654
18.70729	-0.43918	0.24654
18.71148	-0.39523	0.24654
18.71567	-0.32931	0.24654
18.71986	-0.32931	0.24654
18.72405	-0.28537	0.24654
18.72831	-0.24142	0.24654
18.73261	-0.19748	0.24654
18.73682	-0.13156	0.24654
18.74101	-0.10959	0.24654
18.74519	-0.04367	0.24654
18.74948	-0.04367	0.24654
18.75366	0.00028	0.24654
18.75786	0.04422	0.24654
18.76218	0.08817	0.24654
18.76640	0.13211	0.24654
18.77059	0.13211	0.24654
18.77478	0.17606	0.24654
18.77896	0.22000	0.24654
18.78315	0.26395	0.24654
18.78733	0.30789	0.24654
18.79177	0.35184	0.24654
18.79600	0.39578	0.24654
18.80019	0.39578	0.24654
18.80439	0.43973	0.24654
18.80859	0.48368	0.24654
18.81278	0.52762	0.24654
18.81697	0.57157	0.24654
18.82124	0.61551	0.24654
18.82553	0.63748	0.24654
18.82973	0.63748	0.24654
18.83393	0.68143	0.24654
18.83812	0.72537	0.24654
18.84231	0.76932	0.24654
18.84650	0.81327	0.24654
18.85080	0.85721	0.24654
18.85515	0.85721	0.24654
18.85937	0.90116	0.24654
18.86357	0.92313	0.24654
18.86776	0.96707	0.24654
18.87196	1.01102	0.24654
18.87615	1.03299	0.24654
18.88034	1.07694	0.24654
18.88480	1.07694	0.24654
18.88901	1.12088	0.24654
18.89320	1.16483	0.24654
18.89739	1.18680	0.24654
18.90158	1.23075	0.24654
18.90576	1.23075	0.24654
18.90994	1.27469	0.24654
18.91423	1.29666	0.24654
18.91851	1.34061	0.24654
18.92271	1.36258	0.24654
18.92689	1.38455	0.24654
18.93108	1.42850	0.24654
18.93526	1.42850	0.24654
18.93944	1.45047	0.24654
18.94363	1.49442	0.24654
18.94793	1.53836	0.24654
18.95224	1.56034	0.24654
18.95645	1.60428	0.24654
18.96062	1.60428	0.24654
18.96481	1.62625	0.24654
18.96900	1.64823	0.24654
18.97318	1.67020	0.24654
18.97762	1.69217	0.24654
18.98184	1.73612	0.24654
18.98603	1.73612	0.24654
18.99022	1.75809	0.24654
18.99442	1.80203	0.24654
18.99861	1.80203	0.24654
19.00279	1.84598	0.24654
19.00706	1.86795	0.24654
19.01135	1.88993	0.24654
19.01555	1.88993	0.24654
19.01975	1.91190	0.24654
19.02394	1.93387	0.24654
19.02813	1.97782	0.24654
19.03232	1.97782	0.24654
19.03652	1.99979	0.24654
19.04084	1.99979	0.24654
19.04506	2.04373	0.24654
19.04926	2.04373	0.24654
19.05357	2.06571	0.24654
19.05778	2.08768	0.24654
19.06198	2.10965	0.24654
19.06620	2.10965	0.24654
19.07067	2.13162	0.24654
19.07488	2.15360	0.24654
19.07907	2.15360	0.24654
19.08326	2.17557	0.24654
19.08745	2.19754	0.24654
19.09165	2.21952	0.24654
19.09584	2.21952	0.24654
19.10011	2.24149	0.24654
19.10438	2.26346	0.24654
19.10863	2.26346	0.24654
19.11282	2.28543	0.24654
19.11701	2.28543	0.24654
19.12120	2.30741	0.24654
19.12538	2.30741	0.24654
19.12964	2.32938	0.24654
19.13393	2.32938	0.24654
19.13813	2.35135	0.24654
19.14231	2.35135	0.24654
19.14650	2.35135	0.24654
19.15068	2.37332	0.24654
19.15497	2.37332	0.24654
19.15916	2.37332	0.24654
19.16347	2.39530	0.24654
19.16769	2.39530	0.24654
19.17188	2.41727	0.24654
19.17607	2.41727	0.24654
19.18025	2.41727	0.24654
19.18444	2.43924	0.24654
19.18861	2.43924	0.24654
19.19287	2.43924	0.24654
19.19714	2.43924	0.24654
19.20134	2.43924	0.24654
19.20553	2.46121	0.24654
19.20972	2.46121	0.24654
19.21391	2.46121	0.24654
19.21809	2.46121	0.24654
19.22228	2.46121	0.24654
19.22657	2.48319	0.24654
19.23078	2.48319	0.24654
19.23497	2.48319	0.24654
19.23915	2.48319	0.24654
19.24334	2.48319	0.24654
19.24752	2.48319	0.24654
19.25174	2.48319	0.24654
19.25635	2.48319	0.24654
19.26058	2.48319	0.24654
19.26477	2.48319	0.24654
19.26897	2.48319	0.24654
19.27316	2.48319	0.24654
19.27735	2.48319	0.24654
19.28154	2.48319	0.24654
19.28581	2.48319	0.24654
19.29008	2.48319	0.24654
19.29428	2.48319	0.24654
19.29847	2.48319	0.24654
19.30267	2.48319	0.24654
19.30686	2.48319	0.24654
19.31105	2.48319	0.24654
19.31524	2.46121	0.24654
19.31954	2.46121	0.24654
19.32375	2.46121	0.24654
19.32794	2.46121	0.24654
19.33213	2.46121	0.24654
19.33633	2.46121	0.24654
19.34053	2.46121	0.24654
19.34472	2.43924	0.24654
19.34914	2.43924	0.24654
19.35336	2.43924	0.24654
19.35770	2.41727	0.24654
19.36189	2.41727	0.24654
19.36608	2.43924	0.24654
19.37027	2.41727	0.24654
19.37446	2.41727	0.24654
19.37873	2.39530	0.24654
19.38301	2.39530	0.24654
19.38721	2.39530	0.24654
19.39140	2.39530	0.24654
19.39558	2.37332	0.24654
19.39977	2.37332	0.24654
19.40395	2.37332	0.24654
19.40814	2.35135	0.24654
19.41243	2.35135	0.24654
19.41663	2.35135	0.24654
19.42081	2.32938	0.24654
19.42500	2.32938	0.24654
19.42918	2.32938	0.24654
19.43337	2.30741	0.24654
19.43756	2.30741	0.24654
19.44181	2.30741	0.24654
19.44608	2.28543	0.24654
19.45027	2.28543	0.24654
19.45446	2.26346	0.24654
19.45878	2.26346	0.24654
19.46297	2.26346	0.24654
19.46717	2.24149	0.24654
19.47135	2.24149	0.24654
19.47565	2.21952	0.24654
19.47986	2.21952	0.24654
19.48404	2.19754	0.24654
19.48823	2.19754	0.24654
19.49241	2.17557	0.24654
19.49661	2.17557	0.24654
19.50079	2.17557	0.24654
19.50504	2.15360	0.24654
19.50932	2.13162	0.24654
19.51351	2.13162	0.24654
19.51770	2.13162	0.24654
19.52188	2.10965	0.24654
19.52607	2.10965	0.24654
19.53025	2.08768	0.24654
19.53443	2.08768	0.24654
19.53874	2.06571	0.24654
19.54294	2.06571	0.24654
19.54713	2.04373	0.24654
19.55131	2.04373	0.24654
19.55550	2.02176	0.24654
19.55980	1.99979	0.24654
19.56399	1.99979	0.24654
19.56842	1.97782	0.24654
19.57264	1.97782	0.24654
19.57683	1.95584	0.24654
19.58102	1.95584	0.24654
19.58520	1.93387	0.24654
19.58939	1.91190	0.24654
19.59357	1.91190	0.24654
19.59783	1.91190	0.24654
19.60212	1.88993	0.24654
19.60631	1.86795	0.24654
19.61050	1.86795	0.24654
19.61468	1.84598	0.24654
19.61887	1.82401	0.24654
19.62305	1.82401	0.24654
19.62723	1.80203	0.24654
19.63154	1.80203	0.24654
19.63575	1.78006	0.24654
19.63994	1.75809	0.24654
19.64412	1.75809	0.24654
19.64831	1.75809	0.24654
19.65250	1.71414	0.24654
19.65670	1.71414	0.24654
19.66107	1.69217	0.24654
19.66533	1.67020	0.24654
19.66952	1.67020	0.24654
19.67371	1.67020	0.24654
19.67789	1.64823	0.24654
19.68207	1.62625	0.24654
19.68626	1.60428	0.24654
19.69045	1.60428	0.24654
19.69475	1.56034	0.24654
19.69895	1.56034	0.24654
19.70314	1.56034	0.24654
19.70733	1.53836	0.24654
19.71151	1.51639	0.24654
19.71569	1.49442	0.24654
19.71988	1.49442	0.24654
19.72413	1.47244	0.24654
19.72841	1.47244	0.24654
19.73262	1.45047	0.24654
19.73681	1.45047	0.24654
19.74100	1.42850	0.24654
19.74519	1.40653	0.24654
19.74937	1.40653	0.24654
19.75355	1.38455	0.24654
19.75787	1.38455	0.24654
19.76219	1.36258	0.24654
19.76637	1.34061	0.24654
19.77056	1.31864	0.24654
19.77475	1.29666	0.24654
19.77893	1.29666	0.24654
19.78312	1.29666	0.24654
19.78755	1.27469	0.24654
19.79177	1.25272	0.24654
19.79596	1.25272	0.24654
19.80015	1.20877	0.24654
19.80434	1.20877	0.24654
19.80854	1.20877	0.24654
19.81274	1.20877	0.24654
19.81700	1.18680	0.24654
19.82128	1.16483	0.24654
19.82549	1.14286	0.24654
19.82968	1.12088	0.24654
19.83387	1.12088	0.24654
19.83806	1.09891	0.24654
19.84226	1.09891	0.24654
19.84645	1.07694	0.24654
19.85076	1.05496	0.24654
19.85497	1.03299	0.24654
19.85919	1.03299	0.24654
19.86350	1.03299	0.24654
19.86769	1.01102	0.24654
19.87188	0.98905	0.24654
19.87607	0.96707	0.24654
19.88053	0.96707	0.24654
19.88474	0.96707	0.24654
19.88893	0.94510	0.24654
19.89311	0.92313	0.24654
19.89729	0.90116	0.24654
19.90148	0.87918	0.24654
19.90566	0.87918	0.24654
19.90991	0.85721	0.24654
19.91419	0.85721	0.24654
19.91838	0.83524	0.24654
19.92257	0.81327	0.24654
19.92676	0.81327	0.24654
19.93094	0.79129	0.24654
19.93513	0.76932	0.24654
19.93931	0.74735	0.24654
19.94361	0.74735	0.24654
19.94782	0.74735	0.24654
19.95200	0.72537	0.24654
19.95619	0.70340	0.24654
19.96039	0.68143	0.24654
19.96470	0.68143	0.24654
19.96888	0.65946	0.24654
19.97333	0.65946	0.24654
19.97754	0.63748	0.24654
19.98173	0.61551	0.24654
19.98592	0.59354	0.24654
19.99011	0.59354	0.24654
19.99431	0.57157	0.24654
19.99849	0.57157	0.24654
20.00277	0.54959	0.24654
20.00706	0.52762	0.24654
20.01126	0.50565	0.24654
20.01545	0.50565	0.24654
20.01964	0.50565	0.24654
20.02383	0.48368	0.24654
20.02803	0.46170	0.24654
20.03222	0.43973	0.24654
20.03656	0.41776	0.24654
20.04077	0.41776	0.24654
20.04497	0.41776	0.24654
20.04916	0.39578	0.24654
20.05335	0.37381	0.24654
20.05756	0.37381	0.24654
20.06177	0.35184	0.24654
20.06619	0.32987	0.24654
20.07046	0.30789	0.24654
20.07466	0.30789	0.24654
20.07885	0.28592	0.24654
20.08304	0.26395	0.24654
20.08723	0.26395	0.24654
20.09142	0.24198	0.24654
20.09568	0.24198	0.24654
20.09998	0.22000	0.24654
20.10418	0.19803	0.24654
20.10840	0.19803	0.24654
20.11260	0.17606	0.24654
20.11679	0.15409	0.24654
20.12098	0.15409	0.24654
20.12516	0.15409	0.24654
20.12946	0.11014	0.24654
20.13366	0.11014	0.24654
20.13785	0.08817	0.24654
20.14205	0.06619	0.24654
20.14625	0.04422	0.24654
20.15043	0.04422	0.24654
20.15462	0.04422	0.24654
20.15907	0.02225	0.24654
20.16330	0.00028	0.24654
20.16761	-0.02170	0.24654
20.17181	-0.04367	0.24654
20.17600	-0.04367	0.24654
20.18019	-0.04367	0.24654
20.18438	-0.06564	0.24654
20.18866	-0.08761	0.24654
20.19293	-0.10959	0.24654
20.19713	-0.13156	0.24654
20.20133	-0.13156	0.24654
20.20552	-0.15353	0.24654
20.20971	-0.15353	0.24654
20.21390	-0.17550	0.24654
20.21809	-0.19748	0.24654
20.22238	-0.21945	0.24654
20.22660	-0.24142	0.24654
20.23079	-0.24142	0.24654
20.23498	-0.24142	0.24654
20.23917	-0.26339	0.24654
20.24337	-0.28537	0.24654
20.24760	-0.30734	0.24654
20.25220	-0.32931	0.24654
20.25645	-0.32931	0.24654
20.26064	-0.32931	0.24654
20.26484	-0.35129	0.24654
20.26916	-0.35129	0.24654
20.27334	-0.39523	0.24654
20.27753	-0.39523	0.24654
20.28180	-0.41720	0.24654
20.28607	-0.41720	0.24654
20.29027	-0.43918	0.24654
20.29446	-0.43918	0.24654
20.29864	-0.46115	0.24654
20.30283	-0.48312	0.24654
20.30701	-0.48312	0.24654
20.31120	-0.48312	0.24654
20.31549	-0.50509	0.24654
20.31971	-0.52707	0.24654
20.32390	-0.54904	0.24654
20.32808	-0.54904	0.24654
20.33227	-0.57101	0.24654
20.33645	-0.57101	0.24654
20.34061	-0.57101	0.24654
20.34487	-0.61496	0.24654
20.34913	-0.61496	0.24654
20.35333	-0.63693	0.24654
20.35754	-0.63693	0.24654
20.36173	-0.65890	0.24654
20.36593	-0.65890	0.24654
20.37023	-0.65890	0.24654
20.37442	-0.70285	0.24654
20.37871	-0.70285	0.24654
20.38292	-0.70285	0.24654
20.38711	-0.72482	0.24654
20.39130	-0.72482	0.24654
20.39548	-0.74679	0.24654
20.39966	-0.74679	0.24654
20.40385	-0.76877	0.24654
20.40810	-0.76877	0.24654
20.41237	-0.79074	0.24654
20.41658	-0.81271	0.24654
20.42077	-0.81271	0.24654
20.42496	-0.81271	0.24654
20.42914	-0.83468	0.24654
20.43333	-0.83468	0.24654
20.43751	-0.85666	0.24654
20.44180	-0.85666	0.24654
20.44601	-0.87863	0.24654
20.45020	-0.87863	0.24654
20.45438	-0.87863	0.24654
20.45859	-0.90060	0.24654
20.46278	-0.90060	0.24654
20.46697	-0.92257	0.24654
20.47152	-0.92257	0.24654
20.47573	-0.92257	0.24654
20.47994	-0.94455	0.24654
20.48414	-0.94455	0.24654
20.48833	-0.96652	0.24654
20.49253	-0.96652	0.24654
20.49672	-0.96652	0.24654
20.50100	-0.98849	0.24654
20.50528	-0.98849	0.24654
20.50948	-1.01047	0.24654
20.51368	-1.01047	0.24654
20.51787	-1.01047	0.24654
20.52206	-1.01047	0.24654
20.52625	-1.03244	0.24654
20.53044	-1.03244	0.24654
20.53473	-1.05441	0.24654
20.53895	-1.05441	0.24654
20.54314	-1.07638	0.24654
20.54733	-1.07638	0.24654
20.55152	-1.07638	0.24654
20.55572	-1.09836	0.24654
20.55992	-1.09836	0.24654
20.56422	-1.09836	0.24654
20.56849	-1.12033	0.24654
20.57281	-1.12033	0.24654
20.57700	-1.12033	0.24654
20.58119	-1.12033	0.24654
20.58538	-1.14230	0.24654
20.58956	-1.14230	0.24654
20.59389	-1.14230	0.24654
20.59817	-1.16427	0.24654
20.60238	-1.16427	0.24654
20.60657	-1.16427	0.24654
20.61075	-1.16427	0.24654
20.61494	-1.18625	0.24654
20.61912	-1.18625	0.24654
20.62330	-1.18625	0.24654
20.62760	-1.20822	0.24654
20.63181	-1.20822	0.24654
20.63600	-1.20822	0.24654
20.64019	-1.20822	0.24654
20.64437	-1.23019	0.24654
20.64856	-1.23019	0.24654
20.65275	-1.23019	0.24654
20.65701	-1.23019	0.24654
20.66128	-1.23019	0.24654
20.66548	-1.25216	0.24654
20.66967	-1.25216	0.24654
20.67396	-1.25216	0.24654
20.67815	-1.25216	0.24654
20.68233	-1.25216	0.24654
20.68652	-1.27414	0.24654
20.69081	-1.27414	0.24654
20.69502	-1.27414	0.24654
20.69920	-1.27414	0.24654
20.70339	-1.29611	0.24654
20.70757	-1.29611	0.24654
20.71175	-1.29611	0.24654
20.71594	-1.29611	0.24654
20.72019	-1.31808	0.24654
20.72444	-1.31808	0.24654
20.72862	-1.31808	0.24654
20.73281	-1.31808	0.24654
20.73699	-1.31808	0.24654
20.74118	-1.31808	0.24654
20.74536	-1.31808	0.24654
20.74955	-1.31808	0.24654
20.75385	-1.34006	0.24654
20.75807	-1.34006	0.24654
20.76227	-1.34006	0.24654
20.76646	-1.34006	0.24654
20.77065	-1.34006	0.24654
20.77494	-1.34006	0.24654
20.77914	-1.34006	0.24654
20.78358	-1.34006	0.24654
20.78780	-1.36203	0.24654
20.79200	-1.36203	0.24654
20.79619	-1.36203	0.24654
20.80038	-1.36203	0.24654
20.80457	-1.36203	0.24654
20.80876	-1.36203	0.24654
20.81303	-1.36203	0.24654
20.81731	-1.36203	0.24654
20.82152	-1.36203	0.24654
20.82571	-1.36203	0.24654
20.82990	-1.38400	0.24654
20.83409	-1.36203	0.24654
20.83827	-1.36203	0.24654
20.84246	-1.38400	0.24654
20.84676	-1.38400	0.24654
20.85098	-1.38400	0.24654
20.85519	-1.38400	0.24654
20.85941	-1.38400	0.24654
20.86361	-1.38400	0.24654
20.86781	-1.38400	0.24654
20.87200	-1.38400	0.24654
20.87642	-1.38400	0.24654
20.88069	-1.38400	0.24654
20.88489	-1.38400	0.24654
20.88909	-1.38400	0.24654
20.89328	-1.38400	0.24654
20.89747	-1.38400	0.24654
20.90165	-1.38400	0.24654
20.90592	-1.38400	0.24654
20.91019	-1.38400	0.24654
20.91439	-1.38400	0.24654
20.91857	-1.38400	0.24654
20.92276	-1.38400	0.24654
20.92694	-1.38400	0.24654
20.93113	-1.38400	0.24654
20.93531	-1.38400	0.24654
20.93960	-1.38400	0.24654
20.94381	-1.38400	0.24654
20.94800	-1.38400	0.24654
20.95218	-1.38400	0.24654
20.95638	-1.38400	0.24654
20.96059	-1.38400	0.24654
20.96478	-1.38400	0.24654
20.96904	-1.38400	0.24654
20.97329	-1.38400	0.24654
20.97760	-1.38400	0.24654
20.98178	-1.36203	0.24654
20.98596	-1.36203	0.24654
20.99015	-1.36203	0.24654
20.99433	-1.36203	0.24654
20.99852	-1.36203	0.24654
21.00281	-1.36203	0.24654
21.00702	-1.36203	0.24654
21.01121	-1.36203	0.24654
21.01539	-1.34006	0.24654
21.01958	-1.34006	0.24654
21.02376	-1.34006	0.24654
21.02794	-1.34006	0.24654
21.03220	-1.31808	0.24654
21.03645	-1.34006	0.24654
21.04062	-1.31808	0.24654
21.04481	-1.31808	0.24654
21.04899	-1.31808	0.24654
21.05318	-1.29611	0.24654
21.05737	-1.29611	0.24654
21.06156	-1.29611	0.24654
21.06587	-1.29611	0.24654
21.07008	-1.27414	0.24654
21.07427	-1.27414	0.24654
21.07856	-1.27414	0.24654
21.08275	-1.27414	0.24654
21.08694	-1.25216	0.24654
21.09113	-1.25216	0.24654
21.09555	-1.23019	0.24654
21.09978	-1.23019	0.24654
21.10397	-1.23019	0.24654
21.10820	-1.23019	0.24654
21.11240	-1.20822	0.24654
21.11660	-1.20822	0.24654
21.12079	-1.18625	0.24654
21.12507	-1.18625	0.24654
21.12935	-1.18625	0.24654
21.13356	-1.18625	0.24654
21.13775	-1.16427	0.24654
21.14194	-1.16427	0.24654
21.14613	-1.16427	0.24654
21.15032	-1.14230	0.24654
21.15451	-1.14230	0.24654
21.15883	-1.14230	0.24654
21.16305	-1.12033	0.24654
21.16725	-1.12033	0.24654
21.17145	-1.12033	0.24654
21.17564	-1.09836	0.24654
21.17995	-1.09836	0.24654
21.18414	-1.09836	0.24654
21.18856	-1.07638	0.24654
21.19277	-1.07638	0.24654
21.19696	-1.05441	0.24654
21.20114	-1.05441	0.24654
21.20533	-1.03244	0.24654
21.20951	-1.03244	0.24654
21.21370	-1.03244	0.24654
21.21795	-1.03244	0.24654
21.22221	-1.01047	0.24654
21.22641	-1.01047	0.24654
21.23060	-0.98849	0.24654
21.23478	-0.98849	0.24654
21.23897	-0.98849	0.24654
21.24315	-0.96652	0.24654
21.24734	-0.96652	0.24654
21.25167	-0.94455	0.24654
21.25590	-0.94455	0.24654
21.26011	-0.94455	0.24654
21.26430	-0.92257	0.24654
21.26851	-0.92257	0.24654
21.27270	-0.90060	0.24654
21.27688	-0.90060	0.24654
21.28144	-0.87863	0.24654
21.28568	-0.87863	0.24654
21.28988	-0.85666	0.24654
21.29408	-0.85666	0.24654
21.29827	-0.85666	0.24654
21.30246	-0.83468	0.24654
21.30665	-0.83468	0.24654
21.31092	-0.81271	0.24654
21.31518	-0.81271	0.24654
21.31938	-0.81271	0.24654
21.32358	-0.79074	0.24654
21.32777	-0.79074	0.24654
21.33196	-0.76877	0.24654
21.33615	-0.76877	0.24654
21.34034	-0.76877	0.24654
21.34465	-0.76877	0.24654
21.34887	-0.74679	0.24654
21.35306	-0.72482	0.24654
21.35725	-0.72482	0.24654
21.36146	-0.72482	0.24654
21.36566	-0.72482	0.24654
21.36985	-0.70285	0.24654
21.37427	-0.68088	0.24654
21.37849	-0.68088	0.24654
21.38279	-0.65890	0.24654
21.38698	-0.65890	0.24654
21.39117	-0.63693	0.24654
21.39536	-0.63693	0.24654
21.39955	-0.63693	0.24654
21.40383	-0.61496	0.24654
21.40809	-0.61496	0.24654
21.41229	-0.59298	0.24654
21.41650	-0.57101	0.24654
21.42069	-0.57101	0.24654
21.42488	-0.57101	0.24654
21.42907	-0.54904	0.24654
21.43326	-0.54904	0.24654
21.43755	-0.52707	0.24654
21.44175	-0.52707	0.24654
21.44594	-0.50509	0.24654
21.45013	-0.50509	0.24654
21.45431	-0.50509	0.24654
21.45851	-0.48312	0.24654
21.46272	-0.48312	0.24654
21.46716	-0.46115	0.24654
21.47139	-0.43918	0.24654
21.47559	-0.41720	0.24654
21.47978	-0.41720	0.24654
21.48409	-0.41720	0.24654
21.48828	-0.39523	0.24654
21.49248	-0.39523	0.24654
21.49675	-0.37326	0.24654
21.50102	-0.35129	0.24654
21.50523	-0.35129	0.24654
21.50942	-0.35129	0.24654
21.51361	-0.32931	0.24654
21.51781	-0.30734	0.24654
21.52200	-0.30734	0.24654
21.52619	-0.30734	0.24654
21.53048	-0.28537	0.24654
21.53470	-0.26339	0.24654
21.53890	-0.26339	0.24654
21.54309	-0.24142	0.24654
21.54728	-0.24142	0.24654
21.55147	-0.24142	0.24654
21.55566	-0.21945	0.24654
21.55997	-0.21945	0.24654
21.56423	-0.19748	0.24654
21.56846	-0.17550	0.24654
21.57262	-0.15353	0.24654
21.57681	-0.15353	0.24654
21.58100	-0.15353	0.24654
21.58528	-0.13156	0.24654
21.58956	-0.13156	0.24654
21.59384	-0.10959	0.24654
21.59804	-0.08761	0.24654
21.60223	-0.08761	0.24654
21.60642	-0.06564	0.24654
21.61060	-0.06564	0.24654
21.61479	-0.04367	0.24654
21.61897	-0.04367	0.24654
21.62327	-0.02170	0.24654
21.62748	-0.02170	0.24654
21.63166	-0.02170	0.24654
21.63585	0.00028	0.24654
21.64004	0.00028	0.24654
21.64422	0.02225	0.24654
21.64841	0.02225	0.24654
21.65268	0.04422	0.24654
21.65695	0.04422	0.24654
21.66117	0.04422	0.24654
21.66536	0.06619	0.24654
21.66955	0.08817	0.24654
21.67373	0.08817	0.24654
21.67792	0.08817	0.24654
21.68210	0.11014	0.24654
21.68650	0.13211	0.24654
21.69070	0.13211	0.24654
21.69489	0.13211	0.24654
21.69907	0.15409	0.24654
21.70326	0.15409	0.24654
21.70744	0.15409	0.24654
21.71162	0.15409	0.24654
21.71604	0.17606	0.24654
21.72026	0.17606	0.24654
21.72446	0.19803	0.24654
21.72862	0.19803	0.24654
21.73281	0.19803	0.24654
21.73699	0.22000	0.24654
21.74119	0.22000	0.24654
21.74546	0.22000	0.24654
21.74973	0.22000	0.24654
21.75394	0.24198	0.24654
21.75813	0.24198	0.24654
21.76234	0.24198	0.24654
21.76653	0.24198	0.24654
21.77073	0.26395	0.24654
21.77492	0.26395	0.24654
21.77921	0.26395	0.24654
21.78342	0.28592	0.24654
21.78773	0.28592	0.24654
21.79192	0.28592	0.24654
21.79611	0.28592	0.24654
21.80030	0.30789	0.24654
21.80449	0.28592	0.24654
21.80891	0.30789	0.24654
21.81312	0.30789	0.24654
21.81732	0.30789	0.24654
21.82151	0.30789	0.24654
21.82570	0.30789	0.24654
21.82989	0.32987	0.24654
21.83407	0.32987	0.24654
21.83833	0.32987	0.24654
21.84260	0.32987	0.24654
21.84680	0.32987	0.24654
21.85099	0.32987	0.24654
21.85518	0.32987	0.24654
21.85938	0.35184	0.24654
21.86357	0.32987	0.24654
21.86776	0.35184	0.24654
21.87206	0.35184	0.24654
21.87627	0.35184	0.24654
21.88046	0.35184	0.24654
21.88461	0.35184	0.24654
21.88890	0.35184	0.24654
21.89309	0.35184	0.24654
21.89727	0.37381	0.24654
21.90167	0.37381	0.24654
21.90590	0.37381	0.24654
21.91009	0.35184	0.24654
21.91428	0.37381	0.24654
21.91846	0.37381	0.24654
21.92265	0.37381	0.24654
21.92684	0.37381	0.24654
21.93110	0.37381	0.24654
21.93538	0.37381	0.24654
21.93958	0.37381	0.24654
21.94377	0.37381	0.24654
21.94796	0.37381	0.24654
21.95214	0.37381	0.24654
21.95632	0.37381	0.24654
21.96053	0.37381	0.24654
21.96484	0.37381	0.24654
21.96905	0.37381	0.24654
21.97324	0.37381	0.24654
21.97743	0.37381	0.24654
21.98161	0.37381	0.24654
21.98580	0.37381	0.24654
21.99008	0.37381	0.24654
21.99434	0.35184	0.24654
21.99859	0.37381	0.24654
22.00280	0.35184	0.24654
22.00699	0.35184	0.24654
22.01118	0.35184	0.24654
22.01536	0.37381	0.24654
22.01954	0.35184	0.24654
22.02373	0.35184	0.24654
22.02802	0.35184	0.24654
22.03223	0.35184	0.24654
22.03642	0.35184	0.24654
22.04061	0.35184	0.24654
22.04479	0.35184	0.24654
22.04898	0.35184	0.24654
22.05316	0.35184	0.24654
22.05741	0.32987	0.24654
22.06168	0.35184	0.24654
22.06589	0.35184	0.24654
22.07009	0.32987	0.24654
22.07427	0.32987	0.24654
22.07846	0.32987	0.24654
22.08265	0.32987	0.24654
22.08684	0.32987	0.24654
22.09125	0.32987	0.24654
22.09546	0.32987	0.24654
22.09964	0.32987	0.24654
22.10383	0.32987	0.24654
22.10805	0.30789	0.24654
22.11224	0.30789	0.24654
22.11643	0.30789	0.24654
22.12088	0.30789	0.24654
22.12511	0.30789	0.24654
22.12930	0.30789	0.24654
22.13350	0.30789	0.24654
22.13769	0.28592	0.24654
22.14188	0.28592	0.24654
22.14607	0.28592	0.24654
22.15034	0.28592	0.24654
22.15462	0.28592	0.24654
22.15883	0.28592	0.24654
22.16304	0.28592	0.24654
22.16724	0.26395	0.24654
22.17143	0.26395	0.24654
22.17562	0.26395	0.24654
22.17981	0.26395	0.24654
22.18412	0.26395	0.24654
22.18833	0.26395	0.24654
22.19265	0.26395	0.24654
22.19684	0.24198	0.24654
22.20103	0.24198	0.24654
22.20522	0.24198	0.24654
22.20941	0.24198	0.24654
22.21369	0.24198	0.24654
22.21796	0.24198	0.24654
22.22217	0.24198	0.24654
22.22636	0.22000	0.24654
22.23055	0.22000	0.24654
22.23474	0.22000	0.24654
22.23893	0.22000	0.24654
22.24312	0.22000	0.24654
22.24741	0.22000	0.24654
22.25168	0.19803	0.24654
22.25589	0.19803	0.24654
22.26010	0.19803	0.24654
22.26430	0.19803	0.24654
22.26850	0.19803	0.24654
22.27269	0.19803	0.24654
22.27709	0.17606	0.24654
22.28132	0.17606	0.24654
22.28552	0.17606	0.24654
22.28971	0.15409	0.24654
22.29400	0.15409	0.24654
22.29818	0.15409	0.24654
22.30236	0.15409	0.24654
22.30662	0.15409	0.24654
22.31087	0.15409	0.24654
22.31507	0.13211	0.24654
22.31926	0.13211	0.24654
22.32344	0.13211	0.24654
22.32763	0.13211	0.24654
22.33181	0.13211	0.24654
22.33599	0.13211	0.24654
22.34028	0.11014	0.24654
22.34451	0.11014	0.24654
22.34869	0.11014	0.24654
22.35288	0.11014	0.24654
22.35707	0.11014	0.24654
22.36127	0.11014	0.24654
22.36547	0.08817	0.24654
22.36973	0.08817	0.24654
22.37400	0.08817	0.24654
22.37819	0.08817	0.24654
22.38238	0.08817	0.24654
22.38657	0.08817	0.24654
22.39076	0.06619	0.24654
22.39505	0.06619	0.24654
22.39924	0.06619	0.24654
22.40354	0.06619	0.24654
22.40775	0.06619	0.24654
22.41194	0.06619	0.24654
22.41612	0.06619	0.24654
22.42031	0.06619	0.24654
22.42451	0.06619	0.24654
22.42869	0.06619	0.24654
22.43294	0.06619	0.24654
22.43720	0.06619	0.24654
22.44146	0.04422	0.24654
22.44565	0.04422	0.24654
22.44984	0.04422	0.24654
22.45403	0.04422	0.24654
22.45821	0.04422	0.24654
22.46242	0.04422	0.24654
22.46672	0.04422	0.24654
22.47094	0.04422	0.24654
22.47514	0.04422	0.24654
22.47933	0.04422	0.24654
22.48351	0.04422	0.24654
22.48770	0.04422	0.24654
22.49188	0.04422	0.24654
22.49644	0.04422	0.24654
22.50064	0.04422	0.24654
22.50482	0.04422	0.24654
22.50901	0.04422	0.24654
22.51319	0.04422	0.24654
22.51738	0.02225	0.24654
22.52156	0.02225	0.24654
22.52581	0.02225	0.24654
22.53008	0.02225	0.24654
22.53428	0.02225	0.24654
22.53847	0.02225	0.24654
22.54266	0.02225	0.24654
22.54684	0.02225	0.24654
22.55103	0.02225	0.24654
22.55521	0.02225	0.24654
22.55950	0.02225	0.24654
22.56373	0.02225	0.24654
22.56792	0.02225	0.24654
22.57212	0.02225	0.24654
22.57630	0.04422	0.24654
22.58050	0.02225	0.24654
22.58468	0.02225	0.24654
22.58893	0.04422	0.24654
22.59319	0.02225	0.24654
22.59751	0.02225	0.24654
22.60169	0.04422	0.24654
22.60588	0.04422	0.24654
22.61006	0.04422	0.24654
22.61425	0.04422	0.24654
22.61843	0.02225	0.24654
22.62271	0.04422	0.24654
22.62692	0.04422	0.24654
22.63111	0.02225	0.24654
22.63530	0.02225	0.24654
22.63948	0.04422	0.24654
22.64367	0.02225	0.24654
22.64785	0.02225	0.24654
22.65210	0.04422	0.24654
22.65636	0.04422	0.24654
22.66059	0.04422	0.24654
22.66479	0.04422	0.24654
22.66898	0.04422	0.24654
22.67317	0.04422	0.24654
22.67735	0.04422	0.24654
22.68154	0.04422	0.24654
22.68583	0.04422	0.24654
22.69004	0.04422	0.24654
22.69423	0.04422	0.24654
22.69852	0.04422	0.24654
22.70270	0.04422	0.24654
22.70689	0.04422	0.24654
22.71107	0.04422	0.24654
22.71549	0.04422	0.24654
22.71972	0.04422	0.24654
22.72391	0.04422	0.24654
22.72810	0.04422	0.24654
22.73229	0.04422	0.24654
22.73649	0.04422	0.24654
22.74068	0.04422	0.24654
22.74494	0.04422	0.24654
22.74921	0.04422	0.24654
22.75342	0.04422	0.24654
22.75761	0.04422	0.24654
22.76182	0.04422	0.24654
22.76602	0.04422	0.24654
22.77021	0.04422	0.24654
22.77441	0.04422	0.24654
22.77871	0.04422	0.24654
22.78293	0.04422	0.24654
22.78712	0.04422	0.24654
22.79131	0.04422	0.24654
22.79550	0.04422	0.24654
22.79980	0.06619	0.24654
22.80399	0.04422	0.24654
22.80825	0.04422	0.24654
22.81253	0.06619	0.24654
22.81674	0.06619	0.24654
22.82093	0.04422	0.24654
22.82512	0.06619	0.24654
22.82931	0.04422	0.24654
22.83350	0.04422	0.24654
22.83769	0.06619	0.24654
22.84199	0.04422	0.24654
22.84619	0.04422	0.24654
22.85038	0.04422	0.24654
22.85456	0.04422	0.24654
22.85875	0.04422	0.24654
22.86295	0.04422	0.24654
22.86715	0.04422	0.24654
22.87159	0.04422	0.24654
22.87582	0.06619	0.24654
22.88001	0.04422	0.24654
22.88421	0.04422	0.24654
22.88840	0.04422	0.24654
22.89260	0.04422	0.24654
22.89679	0.04422	0.24654
22.90119	0.04422	0.24654
22.90546	0.04422	0.24654
22.90967	0.04422	0.24654
22.91386	0.04422	0.24654
22.91805	0.04422	0.24654
22.92224	0.04422	0.24654
22.92642	0.04422	0.24654
22.93061	0.04422	0.24654
22.93491	0.04422	0.24654
22.93912	0.02225	0.24654
22.94332	0.02225	0.24654
22.94751	0.04422	0.24654
22.95169	0.04422	0.24654
22.95588	0.04422	0.24654
22.96007	0.02225	0.24654
22.96436	0.02225	0.24654
22.96864	0.04422	0.24654
22.97284	0.02225	0.24654
22.97704	0.02225	0.24654
22.98123	0.02225	0.24654
22.98542	0.02225	0.24654
22.98961	0.02225	0.24654
22.99380	0.02225	0.24654
22.99809	0.02225	0.24654
23.00243	0.00028	0.24654
23.00663	0.02225	0.24654
23.01082	0.02225	0.24654
23.01501	0.00028	0.24654
23.01920	0.00028	0.24654
23.02339	0.00028	0.24654
23.02779	0.00028	0.24654
23.03201	0.00028	0.24654
23.03621	0.00028	0.24654
23.04039	-0.02170	0.24654
23.04459	0.00028	0.24654
23.04877	0.00028	0.24654
23.05296	-0.02170	0.24654
23.05721	-0.02170	0.24654
23.06149	-0.02170	0.24654
23.06570	-0.02170	0.24654
23.06993	-0.02170	0.24654
23.07413	-0.02170	0.24654
23.07831	-0.04367	0.24654
23.08250	-0.04367	0.24654
23.08668	-0.04367	0.24654
23.09098	-0.04367	0.24654
23.09520	-0.04367	0.24654
23.09939	-0.04367	0.24654
23.10368	-0.04367	0.24654
23.10790	-0.04367	0.24654
23.11209	-0.04367	0.24654
23.11628	-0.04367	0.24654
23.12074	-0.06564	0.24654
23.12496	-0.06564	0.24654
23.12915	-0.06564	0.24654
23.13333	-0.06564	0.24654
23.13752	-0.08761	0.24654
23.14171	-0.08761	0.24654
23.14589	-0.08761	0.24654
23.15015	-0.08761	0.24654
23.15443	-0.08761	0.24654
23.15863	-0.08761	0.24654
23.16284	-0.08761	0.24654
23.16705	-0.08761	0.24654
23.17126	-0.10959	0.24654
23.17547	-0.10959	0.24654
23.17967	-0.10959	0.24654
23.18397	-0.10959	0.24654
23.18819	-0.10959	0.24654
23.19239	-0.10959	0.24654
23.19658	-0.13156	0.24654
23.20077	-0.13156	0.24654
23.20506	-0.13156	0.24654
23.20925	-0.13156	0.24654
23.21350	-0.15353	0.24654
23.21779	-0.15353	0.24654
23.22199	-0.15353	0.24654
23.22617	-0.15353	0.24654
23.23036	-0.17550	0.24654
23.23454	-0.17550	0.24654
23.23873	-0.17550	0.24654
23.24291	-0.17550	0.24654
23.24720	-0.17550	0.24654
23.25147	-0.17550	0.24654
23.25567	-0.19748	0.24654
23.25986	-0.19748	0.24654
23.26406	-0.19748	0.24654
23.26826	-0.19748	0.24654
23.27245	-0.19748	0.24654
23.27669	-0.21945	0.24654
23.28096	-0.21945	0.24654
23.28518	-0.21945	0.24654
23.28937	-0.21945	0.24654
23.29356	-0.24142	0.24654
23.29774	-0.24142	0.24654
23.30193	-0.24142	0.24654
23.30622	-0.24142	0.24654
23.31051	-0.26339	0.24654
23.31473	-0.26339	0.24654
23.31893	-0.26339	0.24654
23.32312	-0.26339	0.24654
23.32731	-0.26339	0.24654
23.33149	-0.28537	0.24654
23.33567	-0.28537	0.24654
23.34012	-0.28537	0.24654
23.34434	-0.28537	0.24654
23.34854	-0.30734	0.24654
23.35273	-0.30734	0.24654
23.35692	-0.30734	0.24654
23.36112	-0.30734	0.24654
23.36533	-0.30734	0.24654
23.36960	-0.32931	0.24654
23.37388	-0.32931	0.24654
23.37810	-0.32931	0.24654
23.38229	-0.32931	0.24654
23.38649	-0.35129	0.24654
23.39068	-0.35129	0.24654
23.39487	-0.35129	0.24654
23.39905	-0.37326	0.24654
23.40336	-0.37326	0.24654
23.40768	-0.37326	0.24654
23.41188	-0.37326	0.24654
23.41607	-0.37326	0.24654
23.42025	-0.37326	0.24654
23.42444	-0.39523	0.24654
23.42861	-0.39523	0.24654
23.43288	-0.39523	0.24654
23.43714	-0.39523	0.24654
23.44134	-0.39523	0.24654
23.44554	-0.41720	0.24654
23.44973	-0.41720	0.24654
23.45392	-0.41720	0.24654
23.45811	-0.41720	0.24654
23.46232	-0.43918	0.24654
23.46664	-0.43918	0.24654
23.47086	-0.43918	0.24654
23.47506	-0.43918	0.24654
23.47925	-0.43918	0.24654
23.48344	-0.46115	0.24654
23.48763	-0.46115	0.24654
23.49182	-0.46115	0.24654
23.49622	-0.46115	0.24654
23.50045	-0.46115	0.24654
23.50462	-0.46115	0.24654
23.50892	-0.46115	0.24654
23.51311	-0.46115	0.24654
23.51730	-0.48312	0.24654
23.52149	-0.48312	0.24654
23.52575	-0.48312	0.24654
23.53002	-0.50509	0.24654
23.53423	-0.48312	0.24654
23.53842	-0.48312	0.24654
23.54261	-0.50509	0.24654
23.54680	-0.50509	0.24654
23.55099	-0.50509	0.24654
23.55518	-0.50509	0.24654
23.55948	-0.50509	0.24654
23.56371	-0.50509	0.24654
23.56791	-0.50509	0.24654
23.57211	-0.50509	0.24654
23.57629	-0.50509	0.24654
23.58049	-0.50509	0.24654
23.58467	-0.50509	0.24654
23.58909	-0.52707	0.24654
23.59332	-0.52707	0.24654
23.59751	-0.50509	0.24654
23.60170	-0.50509	0.24654
23.60589	-0.52707	0.24654
23.61019	-0.50509	0.24654
23.61438	-0.50509	0.24654
23.61889	-0.52707	0.24654
23.62323	-0.52707	0.24654
23.62746	-0.52707	0.24654
23.63166	-0.52707	0.24654
23.63586	-0.52707	0.24654
23.64005	-0.52707	0.24654
23.64425	-0.52707	0.24654
23.64844	-0.52707	0.24654
23.65273	-0.50509	0.24654
23.65695	-0.52707	0.24654
23.66114	-0.50509	0.24654
23.66535	-0.50509	0.24654
23.66955	-0.50509	0.24654
23.67374	-0.50509	0.24654
23.67793	-0.50509	0.24654
23.68236	-0.50509	0.24654
23.68659	-0.50509	0.24654
23.69078	-0.50509	0.24654
23.69497	-0.50509	0.24654
23.69916	-0.50509	0.24654
23.70335	-0.50509	0.24654
23.70754	-0.50509	0.24654
23.71197	-0.50509	0.24654
23.71624	-0.50509	0.24654
23.72046	-0.48312	0.24654
23.72461	-0.48312	0.24654
23.72880	-0.48312	0.24654
23.73298	-0.48312	0.24654
23.73716	-0.48312	0.24654
23.74135	-0.48312	0.24654
23.74563	-0.46115	0.24654
23.74984	-0.46115	0.24654
23.75403	-0.46115	0.24654
23.75821	-0.46115	0.24654
23.76242	-0.46115	0.24654
23.76661	-0.43918	0.24654
23.77080	-0.43918	0.24654
23.77505	-0.43918	0.24654
23.77932	-0.43918	0.24654
23.78353	-0.43918	0.24654
23.78772	-0.43918	0.24654
23.79191	-0.41720	0.24654
23.79609	-0.41720	0.24654
23.80028	-0.41720	0.24654
23.80448	-0.41720	0.24654
23.80878	-0.39523	0.24654
23.81309	-0.39523	0.24654
23.81728	-0.37326	0.24654
23.82147	-0.37326	0.24654
23.82565	-0.37326	0.24654
23.82983	-0.37326	0.24654
23.83402	-0.37326	0.24654
23.83845	-0.35129	0.24654
23.84269	-0.35129	0.24654
23.84688	-0.32931	0.24654
23.85107	-0.32931	0.24654
23.85527	-0.32931	0.24654
23.85946	-0.30734	0.24654
23.86369	-0.30734	0.24654
23.86800	-0.30734	0.24654
23.87229	-0.28537	0.24654
23.87651	-0.28537	0.24654
23.88071	-0.28537	0.24654
23.88490	-0.26339	0.24654
23.88910	-0.26339	0.24654
23.89330	-0.24142	0.24654
23.89749	-0.24142	0.24654
23.90179	-0.21945	0.24654
23.90601	-0.21945	0.24654
23.91020	-0.21945	0.24654
23.91450	-0.21945	0.24654
23.91870	-0.19748	0.24654
23.92289	-0.17550	0.24654
23.92708	-0.17550	0.24654
23.93134	-0.15353	0.24654
23.93561	-0.15353	0.24654
23.93981	-0.15353	0.24654
23.94401	-0.13156	0.24654
23.94820	-0.13156	0.24654
23.95239	-0.10959	0.24654
23.95660	-0.10959	0.24654
23.96079	-0.08761	0.24654
23.96511	-0.08761	0.24654
23.96934	-0.08761	0.24654
23.97353	-0.06564	0.24654
23.97772	-0.06564	0.24654
23.98191	-0.04367	0.24654
23.98610	-0.02170	0.24654
23.99029	-0.02170	0.24654
23.99472	-0.02170	0.24654
23.99894	-0.02170	0.24654
24.00313	0.00028	0.24654
24.00732	0.02225	0.24654
24.01150	0.02225	0.24654
24.01579	0.02225	0.24654
24.01997	0.04422	0.24654
24.02423	0.06619	0.24654
24.02849	0.06619	0.24654
24.03269	0.08817	0.24654
24.03688	0.08817	0.24654
24.04106	0.11014	0.24654
24.04525	0.11014	0.24654
24.04943	0.13211	0.24654
24.05361	0.13211	0.24654
24.05790	0.15409	0.24654
24.06212	0.17606	0.24654
24.06633	0.17606	0.24654
24.07052	0.17606	0.24654
24.07471	0.19803	0.24654
24.07890	0.19803	0.24654
24.08308	0.22000	0.24654
24.08733	0.22000	0.24654
24.09159	0.22000	0.24654
24.09579	0.24198	0.24654
24.09998	0.26395	0.24654
24.10416	0.26395	0.24654
24.10837	0.28592	0.24654
24.11258	0.30789	0.24654
24.11687	0.30789	0.24654
24.12116	0.30789	0.24654
24.12537	0.30789	0.24654
24.12956	0.32987	0.24654
24.13375	0.35184	0.24654
24.13794	0.35184	0.24654
24.14212	0.37381	0.24654
24.14631	0.37381	0.24654
24.15074	0.37381	0.24654
24.15496	0.39578	0.24654
24.15915	0.41776	0.24654
24.16336	0.41776	0.24654
24.16755	0.43973	0.24654
24.17174	0.43973	0.24654
24.17593	0.43973	0.24654
24.18019	0.46170	0.24654
24.18448	0.46170	0.24654
24.18869	0.48368	0.24654
24.19288	0.48368	0.24654
24.19706	0.48368	0.24654
24.20125	0.50565	0.24654
24.20543	0.52762	0.24654
24.20961	0.52762	0.24654
24.21391	0.54959	0.24654
24.21823	0.57157	0.24654
24.22242	0.57157	0.24654
24.22660	0.57157	0.24654
24.23078	0.59354	0.24654
24.23497	0.59354	0.24654
24.23915	0.61551	0.24654
24.24340	0.61551	0.24654
24.24765	0.63748	0.24654
24.25190	0.63748	0.24654
24.25610	0.63748	0.24654
24.26029	0.65946	0.24654
24.26450	0.65946	0.24654
24.26870	0.68143	0.24654
24.27288	0.68143	0.24654
24.27718	0.70340	0.24654
24.28140	0.70340	0.24654
24.28560	0.72537	0.24654
24.28978	0.72537	0.24654
24.29397	0.72537	0.24654
24.29816	0.74735	0.24654
24.30234	0.76932	0.24654
24.30659	0.76932	0.24654
24.31086	0.76932	0.24654
24.31505	0.79129	0.24654
24.31935	0.79129	0.24654
24.32353	0.81327	0.24654
24.32771	0.81327	0.24654
24.33190	0.81327	0.24654
24.33609	0.83524	0.24654
24.34040	0.83524	0.24654
24.34462	0.85721	0.24654
24.34881	0.87918	0.24654
24.35305	0.87918	0.24654
24.35727	0.87918	0.24654
24.36147	0.90116	0.24654
24.36567	0.90116	0.24654
24.36994	0.92313	0.24654
24.37423	0.92313	0.24654
24.37845	0.94510	0.24654
24.38264	0.94510	0.24654
24.38683	0.94510	0.24654
24.39101	0.96707	0.24654
24.39520	0.96707	0.24654
24.39938	0.98905	0.24654
24.40367	1.01102	0.24654
24.40788	1.01102	0.24654
24.41206	1.01102	0.24654
24.41624	1.01102	0.24654
24.42054	1.03299	0.24654
24.42472	1.03299	0.24654
24.42889	1.05496	0.24654
24.43333	1.07694	0.24654
24.43752	1.07694	0.24654
24.44170	1.07694	0.24654
24.44587	1.09891	0.24654
24.45005	1.09891	0.24654
24.45422	1.12088	0.24654
24.45840	1.12088	0.24654
24.46267	1.12088	0.24654
24.46694	1.12088	0.24654
24.47114	1.14286	0.24654
24.47533	1.14286	0.24654
24.47951	1.16483	0.24654
24.48370	1.16483	0.24654
24.48788	1.16483	0.24654
24.49206	1.18680	0.24654
24.49637	1.18680	0.24654
24.50060	1.20877	0.24654
24.50478	1.20877	0.24654
24.50897	1.23075	0.24654
24.51315	1.23075	0.24654
24.51733	1.23075	0.24654
24.52162	1.23075	0.24654
24.52588	1.25272	0.24654
24.53015	1.25272	0.24654
24.53435	1.27469	0.24654
24.53854	1.27469	0.24654
24.54272	1.27469	0.24654
24.54691	1.27469	0.24654
24.55109	1.29666	0.24654
24.55528	1.29666	0.24654
24.55958	1.29666	0.24654
24.56378	1.31864	0.24654
24.56796	1.31864	0.24654
24.57215	1.31864	0.24654
24.57633	1.31864	0.24654
24.58053	1.34061	0.24654
24.58471	1.34061	0.24654
24.58896	1.34061	0.24654
24.59324	1.34061	0.24654
24.59743	1.34061	0.24654
24.60162	1.36258	0.24654
24.60580	1.36258	0.24654
24.60999	1.36258	0.24654
24.61417	1.36258	0.24654
24.61835	1.36258	0.24654
24.62276	1.38455	0.24654
24.62696	1.38455	0.24654
24.63114	1.38455	0.24654
24.63533	1.38455	0.24654
24.63951	1.38455	0.24654
24.64369	1.38455	0.24654
24.64788	1.38455	0.24654
24.65226	1.40653	0.24654
24.65649	1.40653	0.24654
24.66068	1.40653	0.24654
24.66486	1.40653	0.24654
24.66905	1.40653	0.24654
24.67323	1.40653	0.24654
24.67741	1.40653	0.24654
24.68166	1.40653	0.24654
24.68594	1.40653	0.24654
24.69014	1.40653	0.24654
24.69432	1.40653	0.24654
24.69854	1.40653	0.24654
24.70274	1.40653	0.24654
24.70692	1.40653	0.24654
24.71111	1.40653	0.24654
24.71541	1.40653	0.24654
24.71963	1.40653	0.24654
24.72392	1.40653	0.24654
24.72811	1.40653	0.24654
24.73229	1.40653	0.24654
24.73648	1.40653	0.24654
24.74067	1.40653	0.24654
24.74492	1.38455	0.24654
24.74918	1.38455	0.24654
24.75338	1.38455	0.24654
24.75757	1.38455	0.24654
24.76175	1.38455	0.24654
24.76593	1.36258	0.24654
24.77012	1.36258	0.24654
24.77430	1.36258	0.24654
24.77861	1.36258	0.24654
24.78281	1.34061	0.24654
24.78702	1.36258	0.24654
24.79122	1.34061	0.24654
24.79544	1.34061	0.24654
24.79964	1.34061	0.24654
24.80385	1.31864	0.24654
24.80840	1.29666	0.24654
24.81264	1.29666	0.24654
24.81684	1.29666	0.24654
24.82104	1.29666	0.24654
24.82534	1.27469	0.24654
24.82953	1.27469	0.24654
24.83372	1.27469	0.24654
24.83799	1.27469	0.24654
24.84229	1.25272	0.24654
24.84650	1.23075	0.24654
24.85069	1.23075	0.24654
24.85487	1.23075	0.24654
24.85906	1.23075	0.24654
24.86324	1.20877	0.24654
24.86744	1.18680	0.24654
24.87175	1.18680	0.24654
24.87596	1.16483	0.24654
24.88015	1.16483	0.24654
24.88433	1.16483	0.24654
24.88853	1.14286	0.24654
24.89271	1.12088	0.24654
24.89690	1.12088	0.24654
24.90115	1.09891	0.24654
24.90543	1.09891	0.24654
24.90962	1.09891	0.24654
24.91380	1.07694	0.24654
24.91799	1.05496	0.24654
24.92218	1.05496	0.24654
24.92646	1.03299	0.24654
24.93065	1.01102	0.24654
24.93495	1.01102	0.24654
24.93916	1.01102	0.24654
24.94334	0.98905	0.24654
24.94753	0.96707	0.24654
24.95171	0.96707	0.24654
24.95590	0.94510	0.24654
24.96008	0.94510	0.24654
24.96439	0.92313	0.24654
24.96868	0.90116	0.24654
24.97288	0.90116	0.24654
24.97706	0.87918	0.24654
24.98125	0.85721	0.24654
24.98543	0.83524	0.24654
24.98962	0.83524	0.24654
24.99382	0.83524	0.24654
24.99813	0.81327	0.24654
25.00234	0.79129	0.24654
25.00653	0.76932	0.24654
25.01072	0.74735	0.24654
25.01490	0.74735	0.24654
25.01909	0.74735	0.24654
25.02327	0.72537	0.24654
25.02763	0.70340	0.24654
25.03189	0.68143	0.24654
25.03609	0.65946	0.24654
25.04027	0.63748	0.24654
25.04446	0.63748	0.24654
25.04861	0.63748	0.24654
25.05279	0.61551	0.24654
25.05698	0.59354	0.24654
25.06127	0.57157	0.24654
25.06550	0.57157	0.24654
25.06969	0.57157	0.24654
25.07387	0.54959	0.24654
25.07806	0.52762	0.24654
25.08224	0.50565	0.24654
25.08643	0.48368	0.24654
25.09068	0.46170	0.24654
25.09494	0.46170	0.24654
25.09914	0.43973	0.24654
25.10332	0.41776	0.24654
25.10754	0.39578	0.24654
25.11173	0.39578	0.24654
25.11592	0.37381	0.24654
25.12010	0.37381	0.24654
25.12441	0.35184	0.24654
25.12873	0.32987	0.24654
25.13292	0.30789	0.24654
25.13710	0.28592	0.24654
25.14129	0.26395	0.24654
25.14547	0.26395	0.24654
25.14965	0.24198	0.24654
25.15409	0.24198	0.24654
25.15832	0.22000	0.24654
25.16252	0.19803	0.24654
25.16673	0.17606	0.24654
25.17093	0.17606	0.24654
25.17513	0.15409	0.24654
25.17932	0.13211	0.24654
25.18361	0.13211	0.24654
25.18790	0.08817	0.24654
25.19210	0.08817	0.24654
25.19630	0.06619	0.24654
25.20050	0.06619	0.24654
25.20469	0.04422	0.24654
25.20888	0.02225	0.24654
25.21307	0.00028	0.24654
25.21739	-0.02170	0.24654
25.22159	-0.04367	0.24654
25.22578	-0.06564	0.24654
25.23008	-0.06564	0.24654
25.23427	-0.06564	0.24654
25.23846	-0.08761	0.24654
25.24265	-0.10959	0.24654
25.24691	-0.13156	0.24654
25.25123	-0.15353	0.24654
25.25544	-0.15353	0.24654
25.25963	-0.15353	0.24654
25.26383	-0.19748	0.24654
25.26803	-0.19748	0.24654
25.27222	-0.21945	0.24654
25.27641	-0.24142	0.24654
25.28073	-0.24142	0.24654
25.28495	-0.24142	0.24654
25.28914	-0.28537	0.24654
25.29333	-0.28537	0.24654
25.29752	-0.30734	0.24654
25.30172	-0.32931	0.24654
25.30592	-0.32931	0.24654
25.31033	-0.35129	0.24654
25.31454	-0.35129	0.24654
25.31874	-0.37326	0.24654
25.32293	-0.39523	0.24654
25.32712	-0.41720	0.24654
25.33142	-0.41720	0.24654
25.33561	-0.41720	0.24654
25.33986	-0.43918	0.24654
25.34414	-0.46115	0.24654
25.34835	-0.48312	0.24654
25.35255	-0.48312	0.24654
25.35674	-0.50509	0.24654
25.36093	-0.50509	0.24654
25.36514	-0.52707	0.24654
25.36934	-0.52707	0.24654
25.37367	-0.54904	0.24654
25.37788	-0.57101	0.24654
25.38207	-0.59298	0.24654
25.38626	-0.59298	0.24654
25.39044	-0.59298	0.24654
25.39463	-0.61496	0.24654
25.39881	-0.63693	0.24654
25.40326	-0.63693	0.24654
25.40748	-0.65890	0.24654
25.41168	-0.65890	0.24654
25.41587	-0.68088	0.24654
25.42006	-0.68088	0.24654
25.42425	-0.70285	0.24654
25.42844	-0.72482	0.24654
25.43284	-0.72482	0.24654
25.43713	-0.74679	0.24654
25.44133	-0.74679	0.24654
25.44552	-0.74679	0.24654
25.44971	-0.76877	0.24654
25.45390	-0.76877	0.24654
25.45809	-0.79074	0.24654
25.46228	-0.81271	0.24654
25.46661	-0.81271	0.24654
25.47083	-0.81271	0.24654
25.47503	-0.83468	0.24654
25.47922	-0.83468	0.24654
25.48341	-0.83468	0.24654
25.48760	-0.85666	0.24654
25.49179	-0.87863	0.24654
25.49624	-0.87863	0.24654
25.50046	-0.87863	0.24654
25.50462	-0.90060	0.24654
25.50881	-0.90060	0.24654
25.51300	-0.90060	0.24654
25.51719	-0.90060	0.24654
25.52138	-0.94455	0.24654
25.52564	-0.94455	0.24654
25.52993	-0.94455	0.24654
25.53425	-0.94455	0.24654
25.53844	-0.96652	0.24654
25.54263	-0.96652	0.24654
25.54682	-0.96652	0.24654
25.55101	-0.98849	0.24654
25.55520	-0.98849	0.24654
25.55951	-0.98849	0.24654
25.56372	-1.01047	0.24654
25.56793	-1.01047	0.24654
25.57212	-1.01047	0.24654
25.57632	-1.01047	0.24654
25.58052	-1.03244	0.24654
25.58471	-1.03244	0.24654
25.58896	-1.03244	0.24654
25.59323	-1.03244	0.24654
25.59742	-1.05441	0.24654
25.60161	-1.05441	0.24654
25.60580	-1.05441	0.24654
25.60998	-1.05441	0.24654
25.61417	-1.05441	0.24654
25.61835	-1.05441	0.24654
25.62265	-1.07638	0.24654
25.62686	-1.07638	0.24654
25.63104	-1.07638	0.24654
25.63533	-1.07638	0.24654
25.63952	-1.07638	0.24654
25.64370	-1.07638	0.24654
25.64788	-1.07638	0.24654
25.65233	-1.07638	0.24654
25.65656	-1.07638	0.24654
25.66074	-1.09836	0.24654
25.66493	-1.09836	0.24654
25.66913	-1.07638	0.24654
25.67333	-1.09836	0.24654
25.67752	-1.09836	0.24654
25.68179	-1.09836	0.24654
25.68610	-1.09836	0.24654
25.69031	-1.07638	0.24654
25.69450	-1.07638	0.24654
25.69869	-1.07638	0.24654
25.70287	-1.07638	0.24654
25.70705	-1.07638	0.24654
25.71124	-1.07638	0.24654
25.71554	-1.07638	0.24654
25.71974	-1.07638	0.24654
25.72393	-1.07638	0.24654
25.72812	-1.07638	0.24654
25.73230	-1.07638	0.24654
25.73660	-1.07638	0.24654
25.74079	-1.07638	0.24654
25.74524	-1.07638	0.24654
25.74946	-1.05441	0.24654
25.75365	-1.05441	0.24654
25.75784	-1.05441	0.24654
25.76203	-1.05441	0.24654
25.76624	-1.05441	0.24654
25.77044	-1.03244	0.24654
25.77473	-1.03244	0.24654
25.77903	-1.03244	0.24654
25.78324	-1.03244	0.24654
25.78744	-1.03244	0.24654
25.79163	-1.01047	0.24654
25.79582	-1.01047	0.24654
25.80001	-1.01047	0.24654
25.80420	-1.01047	0.24654
25.80852	-0.98849	0.24654
25.81273	-0.98849	0.24654
25.81692	-0.98849	0.24654
25.82112	-0.98849	0.24654
25.82531	-0.96652	0.24654
25.82950	-0.96652	0.24654
25.83369	-0.94455	0.24654
25.83807	-0.94455	0.24654
25.84234	-0.94455	0.24654
25.84654	-0.92257	0.24654
25.85073	-0.92257	0.24654
25.85492	-0.92257	0.24654
25.85911	-0.90060	0.24654
25.86330	-0.90060	0.24654
25.86751	-0.90060	0.24654
25.87183	-0.87863	0.24654
25.87604	-0.87863	0.24654
25.88025	-0.85666	0.24654
25.88445	-0.85666	0.24654
25.88862	-0.85666	0.24654
25.89281	-0.83468	0.24654
25.89699	-0.83468	0.24654
25.90143	-0.81271	0.24654
25.90564	-0.81271	0.24654
25.90983	-0.81271	0.24654
25.91401	-0.79074	0.24654
25.91819	-0.79074	0.24654
25.92238	-0.76877	0.24654
25.92656	-0.76877	0.24654
25.93082	-0.74679	0.24654
25.93510	-0.74679	0.24654
25.93940	-0.72482	0.24654
25.94359	-0.72482	0.24654
25.94777	-0.72482	0.24654
25.95196	-0.70285	0.24654
25.95614	-0.70285	0.24654
25.96033	-0.68088	0.24654
25.96464	-0.65890	0.24654
25.96886	-0.65890	0.24654
25.97305	-0.65890	0.24654
25.97724	-0.63693	0.24654
25.98143	-0.63693	0.24654
25.98561	-0.61496	0.24654
25.98980	-0.59298	0.24654
25.99405	-0.59298	0.24654
25.99833	-0.59298	0.24654
26.00254	-0.57101	0.24654
26.00672	-0.54904	0.24654
26.01091	-0.54904	0.24654
26.01509	-0.52707	0.24654
26.01928	-0.52707	0.24654
26.02346	-0.52707	0.24654
26.02776	-0.50509	0.24654
26.03197	-0.48312	0.24654
26.03615	-0.48312	0.24654
26.04044	-0.46115	0.24654
26.04461	-0.46115	0.24654
26.04879	-0.43918	0.24654
26.05298	-0.43918	0.24654
26.05740	-0.41720	0.24654
26.06162	-0.39523	0.24654
26.06582	-0.39523	0.24654
26.07002	-0.37326	0.24654
26.07421	-0.37326	0.24654
26.07840	-0.35129	0.24654
26.08259	-0.35129	0.24654
26.08684	-0.32931	0.24654
26.09112	-0.30734	0.24654
26.09531	-0.30734	0.24654
26.09950	-0.28537	0.24654
26.10368	-0.28537	0.24654
26.10789	-0.26339	0.24654
26.11208	-0.24142	0.24654
26.11627	-0.24142	0.24654
26.12059	-0.21945	0.24654
26.12479	-0.19748	0.24654
26.12898	-0.19748	0.24654
26.13316	-0.17550	0.24654
26.13735	-0.15353	0.24654
26.14164	-0.15353	0.24654
26.14582	-0.13156	0.24654
26.15007	-0.10959	0.24654
26.15435	-0.10959	0.24654
26.15855	-0.10959	0.24654
26.16273	-0.08761	0.24654
26.16694	-0.06564	0.24654
26.17113	-0.04367	0.24654
26.17532	-0.04367	0.24654
26.17952	-0.04367	0.24654
26.18383	-0.02170	0.24654
26.18803	0.00028	0.24654
26.19222	0.02225	0.24654
26.19640	0.04422	0.24654
26.20059	0.06619	0.24654
26.20478	0.06619	0.24654
26.20896	0.06619	0.24654
26.21323	0.08817	0.24654
26.21752	0.11014	0.24654
26.22172	0.13211	0.24654
26.22591	0.15409	0.24654
26.23010	0.15409	0.24654
26.23429	0.15409	0.24654
26.23847	0.17606	0.24654
26.24277	0.19803	0.24654
26.24707	0.22000	0.24654
26.25133	0.24198	0.24654
26.25552	0.24198	0.24654
26.25971	0.26395	0.24654
26.26390	0.26395	0.24654
26.26810	0.30789	0.24654
26.27229	0.30789	0.24654
26.27674	0.32987	0.24654
26.28096	0.35184	0.24654
26.28516	0.35184	0.24654
26.28935	0.37381	0.24654
26.29353	0.37381	0.24654
26.29772	0.41776	0.24654
26.30191	0.41776	0.24654
26.30618	0.43973	0.24654
26.31047	0.46170	0.24654
26.31466	0.46170	0.24654
26.31885	0.48368	0.24654
26.32304	0.50565	0.24654
26.32722	0.52762	0.24654
26.33141	0.54959	0.24654
26.33559	0.54959	0.24654
26.33989	0.57157	0.24654
26.34420	0.57157	0.24654
26.34838	0.59354	0.24654
26.35258	0.61551	0.24654
26.35677	0.63748	0.24654
26.36095	0.63748	0.24654
26.36514	0.65946	0.24654
26.36942	0.65946	0.24654
26.37371	0.68143	0.24654
26.37792	0.70340	0.24654
26.38211	0.72537	0.24654
26.38630	0.72537	0.24654
26.39048	0.72537	0.24654
26.39467	0.74735	0.24654
26.39885	0.76932	0.24654
26.40315	0.79129	0.24654
26.40735	0.81327	0.24654
26.41154	0.83524	0.24654
26.41573	0.83524	0.24654
26.41991	0.83524	0.24654
26.42411	0.85721	0.24654
26.42830	0.87918	0.24654
26.43257	0.90116	0.24654
26.43684	0.90116	0.24654
26.44104	0.92313	0.24654
26.44535	0.92313	0.24654
26.44954	0.94510	0.24654
26.45373	0.96707	0.24654
26.45792	0.96707	0.24654
26.46217	0.98905	0.24654
26.46647	1.01102	0.24654
26.47067	1.03299	0.24654
26.47486	1.03299	0.24654
26.47905	1.03299	0.24654
26.48324	1.05496	0.24654
26.48744	1.07694	0.24654
26.49163	1.07694	0.24654
26.49593	1.07694	0.24654
26.50014	1.09891	0.24654
26.50433	1.12088	0.24654
26.50853	1.12088	0.24654
26.51271	1.14286	0.24654
26.51690	1.16483	0.24654
26.52108	1.16483	0.24654
26.52534	1.16483	0.24654
26.52961	1.18680	0.24654
26.53382	1.20877	0.24654
26.53801	1.23075	0.24654
26.54220	1.23075	0.24654
26.54648	1.23075	0.24654
26.55067	1.27469	0.24654
26.55485	1.27469	0.24654
26.55915	1.27469	0.24654
26.56335	1.27469	0.24654
26.56756	1.29666	0.24654
26.57176	1.31864	0.24654
26.57595	1.31864	0.24654
26.58013	1.31864	0.24654
26.58431	1.34061	0.24654
26.58859	1.36258	0.24654
26.59286	1.36258	0.24654
26.59706	1.38455	0.24654
26.60125	1.38455	0.24654
26.60543	1.38455	0.24654
26.60962	1.40653	0.24654
26.61380	1.40653	0.24654
26.61799	1.42850	0.24654
26.62228	1.42850	0.24654
26.62650	1.45047	0.24654
26.63069	1.45047	0.24654
26.63487	1.47244	0.24654
26.63906	1.47244	0.24654
26.64324	1.49442	0.24654
26.64753	1.49442	0.24654
26.65197	1.51639	0.24654
26.65618	1.51639	0.24654
26.66037	1.53836	0.24654
26.66457	1.53836	0.24654
26.66877	1.56034	0.24654
26.67297	1.56034	0.24654
26.67716	1.58231	0.24654
26.68142	1.58231	0.24654
26.68571	1.58231	0.24654
26.68992	1.60428	0.24654
26.69411	1.60428	0.24654
26.69830	1.62625	0.24654
26.70248	1.62625	0.24654
26.70666	1.62625	0.24654
26.71085	1.62625	0.24654
26.71515	1.64823	0.24654
26.71936	1.67020	0.24654
26.72354	1.67020	0.24654
26.72773	1.67020	0.24654
26.73191	1.69217	0.24654
26.73610	1.69217	0.24654
26.74028	1.69217	0.24654
26.74454	1.71414	0.24654
26.74891	1.71414	0.24654
26.75311	1.73612	0.24654
26.75729	1.73612	0.24654
26.76147	1.73612	0.24654
26.76566	1.73612	0.24654
26.76986	1.75809	0.24654
26.77405	1.75809	0.24654
26.77835	1.78006	0.24654
26.78257	1.78006	0.24654
26.78675	1.78006	0.24654
26.79095	1.80203	0.24654
26.79513	1.80203	0.24654
26.79932	1.82401	0.24654
26.80350	1.82401	0.24654
26.80775	1.82401	0.24654
26.81200	1.84598	0.24654
26.81620	1.84598	0.24654
26.82039	1.84598	0.24654
26.82459	1.84598	0.24654
26.82877	1.84598	0.24654
26.83295	1.86795	0.24654
26.83714	1.86795	0.24654
26.84142	1.86795	0.24654
26.84563	1.86795	0.24654
26.84992	1.88993	0.24654
26.85411	1.88993	0.24654
26.85829	1.88993	0.24654
26.86248	1.91190	0.24654
26.86671	1.91190	0.24654
26.87116	1.91190	0.24654
26.87538	1.91190	0.24654
26.87957	1.93387	0.24654
26.88375	1.93387	0.24654
26.88794	1.93387	0.24654
26.89214	1.93387	0.24654
26.89632	1.93387	0.24654
26.90058	1.93387	0.24654
26.90485	1.95584	0.24654
26.90905	1.95584	0.24654
26.91324	1.95584	0.24654
26.91742	1.95584	0.24654
26.92161	1.95584	0.24654
26.92579	1.95584	0.24654
26.92998	1.95584	0.24654
26.93427	1.95584	0.24654
26.93849	1.95584	0.24654
26.94268	1.95584	0.24654
26.94686	1.97782	0.24654
26.95115	1.97782	0.24654
26.95534	1.97782	0.24654
26.95952	1.97782	0.24654
26.96377	1.99979	0.24654
26.96804	1.99979	0.24654
26.97225	1.99979	0.24654
26.97644	1.99979	0.24654
26.98062	1.99979	0.24654
26.98480	1.99979	0.24654
26.98899	1.99979	0.24654
26.99318	1.97782	0.24654
26.99746	1.97782	0.24654
27.00168	1.99979	0.24654
27.00586	1.99979	0.24654
27.01005	1.99979	0.24654
27.01423	1.99979	0.24654
27.01842	1.99979	0.24654
27.02260	1.99979	0.24654
27.02685	1.99979	0.24654
27.03111	1.99979	0.24654
27.03532	1.99979	0.24654
27.03950	1.99979	0.24654
27.04369	1.99979	0.24654
27.04787	1.99979	0.24654
27.05216	1.99979	0.24654
27.05634	1.99979	0.24654
27.06065	1.99979	0.24654
27.06486	1.99979	0.24654
27.06907	1.99979	0.24654
27.07327	1.99979	0.24654
27.07746	1.99979	0.24654
27.08164	1.99979	0.24654
27.08583	1.99979	0.24654
27.09008	1.99979	0.24654
27.09433	1.99979	0.24654
27.09853	1.99979	0.24654
27.10272	1.99979	0.24654
27.10691	1.99979	0.24654
27.11112	1.99979	0.24654
27.11531	1.97782	0.24654
27.11950	1.97782	0.24654
27.12381	1.97782	0.24654
27.12803	1.97782	0.24654
27.13222	1.97782	0.24654
27.13642	1.97782	0.24654
27.14061	1.97782	0.24654
27.14480	1.97782	0.24654
27.14899	1.95584	0.24654
27.15352	1.95584	0.24654
27.15773	1.95584	0.24654
27.16192	1.95584	0.24654
27.16612	1.93387	0.24654
27.17032	1.93387	0.24654
27.17452	1.93387	0.24654
27.17871	1.93387	0.24654
27.18298	1.93387	0.24654
27.18725	1.91190	0.24654
27.19148	1.93387	0.24654
27.19568	1.91190	0.24654
27.19987	1.91190	0.24654
27.20406	1.88993	0.24654
27.20824	1.88993	0.24654
27.21243	1.88993	0.24654
27.21673	1.88993	0.24654
27.22094	1.86795	0.24654
27.22513	1.86795	0.24654
27.22931	1.86795	0.24654
27.23350	1.86795	0.24654
27.23768	1.86795	0.24654
27.24187	1.84598	0.24654
27.24612	1.84598	0.24654
27.25057	1.84598	0.24654
27.25487	1.82401	0.24654
27.25906	1.82401	0.24654
27.26324	1.82401	0.24654
27.26744	1.80203	0.24654
27.27164	1.80203	0.24654
27.27589	1.80203	0.24654
27.28016	1.78006	0.24654
27.28438	1.78006	0.24654
27.28859	1.78006	0.24654
27.29277	1.78006	0.24654
27.29696	1.75809	0.24654
27.30114	1.75809	0.24654
27.30533	1.73612	0.24654
27.30962	1.73612	0.24654
27.31384	1.71414	0.24654
27.31804	1.71414	0.24654
27.32223	1.71414	0.24654
27.32641	1.69217	0.24654
27.33060	1.69217	0.24654
27.33478	1.67020	0.24654
27.33903	1.67020	0.24654
27.34328	1.67020	0.24654
27.34748	1.64823	0.24654
27.35167	1.64823	0.24654
27.35596	1.62625	0.24654
27.36014	1.62625	0.24654
27.36432	1.62625	0.24654
27.36853	1.62625	0.24654
27.37283	1.60428	0.24654
27.37705	1.58231	0.24654
27.38124	1.58231	0.24654
27.38543	1.56034	0.24654
27.38961	1.56034	0.24654
27.39380	1.56034	0.24654
27.39799	1.53836	0.24654
27.40224	1.53836	0.24654
27.40650	1.51639	0.24654
27.41070	1.51639	0.24654
27.41489	1.49442	0.24654
27.41907	1.49442	0.24654
27.42326	1.49442	0.24654
27.42744	1.47244	0.24654
27.43162	1.45047	0.24654
27.43592	1.45047	0.24654
27.44012	1.45047	0.24654
27.44431	1.42850	0.24654
27.44851	1.42850	0.24654
27.45269	1.40653	0.24654
27.45698	1.38455	0.24654
27.46116	1.38455	0.24654
27.46559	1.36258	0.24654
27.46982	1.36258	0.24654
27.47401	1.36258	0.24654
27.47820	1.34061	0.24654
27.48238	1.31864	0.24654
27.48657	1.31864	0.24654
27.49075	1.31864	0.24654
27.49499	1.29666	0.24654
27.49928	1.29666	0.24654
27.50348	1.27469	0.24654
27.50766	1.27469	0.24654
27.51185	1.25272	0.24654
27.51603	1.23075	0.24654
27.52022	1.23075	0.24654
27.52440	1.23075	0.24654
27.52893	1.20877	0.24654
27.53320	1.20877	0.24654
27.53742	1.18680	0.24654
27.54163	1.18680	0.24654
27.54582	1.16483	0.24654
27.55001	1.16483	0.24654
27.55421	1.16483	0.24654
27.55858	1.14286	0.24654
27.56284	1.12088	0.24654
27.56708	1.12088	0.24654
27.57129	1.09891	0.24654
27.57548	1.07694	0.24654
27.57966	1.07694	0.24654
27.58385	1.07694	0.24654
27.58804	1.07694	0.24654
27.59235	1.03299	0.24654
27.59657	1.03299	0.24654
27.60077	1.03299	0.24654
27.60496	1.03299	0.24654
27.60914	1.01102	0.24654
27.61333	0.98905	0.24654
27.61751	1.01102	0.24654
27.62176	0.98905	0.24654
27.62602	0.96707	0.24654
27.63022	0.96707	0.24654
27.63441	0.96707	0.24654
27.63860	0.94510	0.24654
27.64278	0.94510	0.24654
27.64696	0.92313	0.24654
27.65115	0.92313	0.24654
27.65543	0.90116	0.24654
27.65975	0.90116	0.24654
27.66393	0.90116	0.24654
27.66812	0.87918	0.24654
27.67231	0.87918	0.24654
27.67650	0.85721	0.24654
27.68069	0.85721	0.24654
27.68510	0.85721	0.24654
27.68931	0.83524	0.24654
27.69349	0.83524	0.24654
27.69768	0.81327	0.24654
27.70186	0.81327	0.24654
27.70605	0.81327	0.24654
27.71023	0.81327	0.24654
27.71448	0.79129	0.24654
27.71875	0.79129	0.24654
27.72295	0.76932	0.24654
27.72714	0.76932	0.24654
27.73132	0.74735	0.24654
27.73551	0.74735	0.24654
27.73969	0.74735	0.24654
27.74388	0.72537	0.24654
27.74816	0.72537	0.24654
27.75238	0.70340	0.24654
27.75658	0.70340	0.24654
27.76087	0.70340	0.24654
27.76505	0.70340	0.24654
27.76924	0.68143	0.24654
27.77342	0.68143	0.24654
27.77767	0.65946	0.24654
27.78192	0.65946	0.24654
27.78612	0.65946	0.24654
27.79030	0.65946	0.24654
27.79449	0.63748	0.24654
27.79867	0.63748	0.24654
27.80285	0.63748	0.24654
27.80704	0.61551	0.24654
27.81132	0.61551	0.24654
27.81553	0.61551	0.24654
27.81972	0.59354	0.24654
27.82390	0.59354	0.24654
27.82809	0.57157	0.24654
27.83227	0.59354	0.24654
27.83645	0.57157	0.24654
27.84069	0.57157	0.24654
27.84493	0.54959	0.24654
27.84914	0.54959	0.24654
27.85332	0.54959	0.24654
27.85751	0.54959	0.24654
27.86179	0.52762	0.24654
27.86598	0.52762	0.24654
27.87016	0.52762	0.24654
27.87445	0.52762	0.24654
27.87865	0.50565	0.24654
27.88285	0.50565	0.24654
27.88704	0.48368	0.24654
27.89122	0.46170	0.24654
27.89540	0.46170	0.24654
27.89960	0.48368	0.24654
27.90385	0.46170	0.24654
27.90809	0.46170	0.24654
27.91229	0.43973	0.24654
27.91648	0.43973	0.24654
27.92067	0.43973	0.24654
27.92486	0.43973	0.24654
27.92904	0.41776	0.24654
27.93322	0.41776	0.24654
27.93751	0.41776	0.24654
27.94171	0.41776	0.24654
27.94590	0.39578	0.24654
27.95009	0.39578	0.24654
27.95427	0.37381	0.24654
27.95846	0.37381	0.24654
27.96274	0.37381	0.24654
27.96713	0.35184	0.24654
27.97134	0.35184	0.24654
27.97553	0.35184	0.24654
27.97971	0.35184	0.24654
27.98390	0.32987	0.24654
27.98808	0.32987	0.24654
27.99226	0.32987	0.24654
27.99653	0.30789	0.24654
28.00080	0.30789	0.24654
28.00500	0.30789	0.24654
28.00919	0.28592	0.24654
28.01337	0.28592	0.24654
28.01756	0.28592	0.24654
28.02174	0.28592	0.24654
28.02592	0.26395	0.24654
28.03021	0.26395	0.24654
28.03443	0.24198	0.24654
28.03862	0.24198	0.24654
28.04280	0.24198	0.24654
28.04698	0.24198	0.24654
28.05117	0.24198	0.24654
28.05535	0.22000	0.24654
28.05960	0.22000	0.24654
28.06396	0.19803	0.24654
28.06816	0.19803	0.24654
28.07234	0.19803	0.24654
28.07654	0.19803	0.24654
28.08072	0.19803	0.24654
28.08491	0.17606	0.24654
28.08909	0.17606	0.24654
28.09337	0.17606	0.24654
28.09758	0.15409	0.24654
28.10178	0.15409	0.24654
28.10596	0.15409	0.24654
28.11016	0.15409	0.24654
28.11435	0.13211	0.24654
28.11853	0.13211	0.24654
28.12279	0.13211	0.24654
28.12705	0.13211	0.24654
28.13124	0.13211	0.24654
28.13543	0.11014	0.24654
28.13962	0.11014	0.24654
28.14380	0.11014	0.24654
28.14799	0.08817	0.24654
28.15217	0.08817	0.24654
28.15646	0.08817	0.24654
28.16063	0.08817	0.24654
28.16493	0.08817	0.24654
28.16914	0.06619	0.24654
28.17333	0.06619	0.24654
28.17752	0.06619	0.24654
28.18171	0.06619	0.24654
28.18635	0.04422	0.24654
28.19057	0.04422	0.24654
28.19477	0.04422	0.24654
28.19896	0.04422	0.24654
28.20316	0.04422	0.24654
28.20736	0.02225	0.24654
28.21154	0.02225	0.24654
28.21581	0.02225	0.24654
28.22010	0.02225	0.24654
28.22430	0.00028	0.24654
28.22850	0.02225	0.24654
28.23270	0.02225	0.24654
28.23690	0.00028	0.24654
28.24109	0.00028	0.24654
28.24528	0.00028	0.24654
28.24960	0.00028	0.24654
28.25385	-0.02170	0.24654
28.25805	-0.02170	0.24654
28.26224	-0.02170	0.24654
28.26656	-0.02170	0.24654
28.27077	-0.02170	0.24654
28.27497	-0.02170	0.24654
28.27945	-0.04367	0.24654
28.28369	-0.04367	0.24654
28.28789	-0.04367	0.24654
28.29208	-0.04367	0.24654
28.29627	-0.04367	0.24654
28.30046	-0.06564	0.24654
28.30461	-0.04367	0.24654
28.30893	-0.04367	0.24654
28.31322	-0.06564	0.24654
28.31742	-0.06564	0.24654
28.32161	-0.06564	0.24654
28.32579	-0.06564	0.24654
28.32998	-0.06564	0.24654
28.33416	-0.08761	0.24654
28.33835	-0.06564	0.24654
28.34265	-0.08761	0.24654
28.34685	-0.08761	0.24654
28.35104	-0.08761	0.24654
28.35523	-0.08761	0.24654
28.35941	-0.08761	0.24654
28.36359	-0.10959	0.24654
28.36789	-0.10959	0.24654
28.37238	-0.10959	0.24654
28.37661	-0.10959	0.24654
28.38080	-0.10959	0.24654
28.38501	-0.10959	0.24654
28.38920	-0.10959	0.24654
28.39339	-0.10959	0.24654
28.39757	-0.10959	0.24654
28.40183	-0.10959	0.24654
28.40615	-0.10959	0.24654
28.41036	-0.10959	0.24654
28.41455	-0.10959	0.24654
28.41876	-0.10959	0.24654
28.42295	-0.10959	0.24654
28.42714	-0.13156	0.24654
28.43133	-0.13156	0.24654
28.43568	-0.13156	0.24654
28.43989	-0.13156	0.24654
28.44409	-0.13156	0.24654
28.44828	-0.13156	0.24654
28.45247	-0.13156	0.24654
28.45666	-0.13156	0.24654
28.46084	-0.13156	0.24654
28.46523	-0.13156	0.24654
28.46960	-0.13156	0.24654
28.47379	-0.13156	0.24654
28.47797	-0.13156	0.24654
28.48217	-0.13156	0.24654
28.48635	-0.15353	0.24654
28.49054	-0.15353	0.24654
28.49480	-0.15353	0.24654
28.49907	-0.15353	0.24654
28.50326	-0.15353	0.24654
28.50745	-0.15353	0.24654
28.51163	-0.15353	0.24654
28.51583	-0.17550	0.24654
28.52001	-0.15353	0.24654
28.52420	-0.15353	0.24654
28.52852	-0.15353	0.24654
28.53272	-0.17550	0.24654
28.53690	-0.15353	0.24654
28.54109	-0.17550	0.24654
28.54527	-0.15353	0.24654
28.54945	-0.17550	0.24654
28.55363	-0.17550	0.24654
28.55788	-0.17550	0.24654
28.56216	-0.17550	0.24654
28.56637	-0.17550	0.24654
28.57069	-0.17550	0.24654
28.57488	-0.17550	0.24654
28.57908	-0.17550	0.24654
28.58326	-0.17550	0.24654
28.58744	-0.17550	0.24654
28.59175	-0.19748	0.24654
28.59596	-0.17550	0.24654
28.60015	-0.19748	0.24654
28.60434	-0.17550	0.24654
28.60853	-0.17550	0.24654
28.61271	-0.19748	0.24654
28.61689	-0.19748	0.24654
28.62116	-0.19748	0.24654
28.62545	-0.19748	0.24654
28.62964	-0.19748	0.24654
28.63383	-0.19748	0.24654
28.63801	-0.19748	0.24654
28.64220	-0.19748	0.24654
28.64638	-0.19748	0.24654
28.65056	-0.19748	0.24654
28.65486	-0.21945	0.24654
28.65906	-0.21945	0.24654
28.66325	-0.21945	0.24654
28.66743	-0.21945	0.24654
28.67176	-0.21945	0.24654
28.67595	-0.21945	0.24654
28.68014	-0.21945	0.24654
28.68456	-0.21945	0.24654
28.68879	-0.21945	0.24654
28.69298	-0.21945	0.24654
28.69716	-0.21945	0.24654
28.70135	-0.24142	0.24654
28.70553	-0.21945	0.24654
28.70972	-0.21945	0.24654
28.71399	-0.24142	0.24654
28.71829	-0.24142	0.24654
28.72248	-0.24142	0.24654
28.72667	-0.24142	0.24654
28.73085	-0.24142	0.24654
28.73504	-0.24142	0.24654
28.73922	-0.24142	0.24654
28.74340	-0.26339	0.24654
28.74770	-0.26339	0.24654
28.75191	-0.26339	0.24654
28.75609	-0.26339	0.24654
28.76028	-0.26339	0.24654
28.76446	-0.26339	0.24654
28.76861	-0.26339	0.24654
28.77292	-0.28537	0.24654
28.77717	-0.28537	0.24654
28.78145	-0.26339	0.24654
28.78566	-0.28537	0.24654
28.78984	-0.28537	0.24654
28.79402	-0.28537	0.24654
28.79822	-0.28537	0.24654
28.80240	-0.28537	0.24654
28.80660	-0.30734	0.24654
28.81089	-0.28537	0.24654
28.81510	-0.30734	0.24654
28.81928	-0.30734	0.24654
28.82347	-0.30734	0.24654
28.82765	-0.30734	0.24654
28.83184	-0.30734	0.24654
28.83602	-0.30734	0.24654
28.84027	-0.30734	0.24654
28.84455	-0.30734	0.24654
28.84875	-0.30734	0.24654
28.85293	-0.30734	0.24654
28.85712	-0.32931	0.24654
28.86130	-0.32931	0.24654
28.86548	-0.32931	0.24654
28.86969	-0.32931	0.24654
28.87410	-0.32931	0.24654
28.87830	-0.35129	0.24654
28.88250	-0.35129	0.24654
28.88668	-0.35129	0.24654
28.89087	-0.35129	0.24654
28.89505	-0.37326	0.24654
28.89923	-0.37326	0.24654
28.90363	-0.37326	0.24654
28.90786	-0.37326	0.24654
28.91205	-0.37326	0.24654
28.91625	-0.37326	0.24654
28.92044	-0.39523	0.24654
28.92461	-0.39523	0.24654
28.92880	-0.39523	0.24654
28.93304	-0.39523	0.24654
28.93732	-0.39523	0.24654
28.94152	-0.39523	0.24654
28.94570	-0.39523	0.24654
28.94989	-0.39523	0.24654
28.95407	-0.41720	0.24654
28.95825	-0.41720	0.24654
28.96244	-0.41720	0.24654
28.96680	-0.41720	0.24654
28.97104	-0.41720	0.24654
28.97534	-0.41720	0.24654
28.97954	-0.43918	0.24654
28.98372	-0.43918	0.24654
28.98790	-0.43918	0.24654
28.99209	-0.43918	0.24654
28.99632	-0.46115	0.24654
29.00063	-0.46115	0.24654
29.00483	-0.46115	0.24654
29.00902	-0.46115	0.24654
29.01320	-0.46115	0.24654
29.01739	-0.48312	0.24654
29.02157	-0.48312	0.24654
29.02575	-0.48312	0.24654
29.03005	-0.48312	0.24654
29.03426	-0.50509	0.24654
29.03844	-0.50509	0.24654
29.04262	-0.50509	0.24654
29.04681	-0.50509	0.24654
29.05099	-0.50509	0.24654
29.05518	-0.50509	0.24654
29.05942	-0.52707	0.24654
29.06370	-0.52707	0.24654
29.06789	-0.52707	0.24654
29.07210	-0.52707	0.24654
29.07640	-0.54904	0.24654
29.08059	-0.54904	0.24654
29.08478	-0.54904	0.24654
29.08896	-0.54904	0.24654
29.09327	-0.54904	0.24654
29.09747	-0.54904	0.24654
29.10166	-0.57101	0.24654
29.10585	-0.57101	0.24654
29.11007	-0.57101	0.24654
29.11426	-0.57101	0.24654
29.11845	-0.59298	0.24654
29.12271	-0.59298	0.24654
29.12699	-0.59298	0.24654
29.13119	-0.59298	0.24654
29.13538	-0.59298	0.24654
29.13957	-0.61496	0.24654
29.14375	-0.59298	0.24654
29.14794	-0.61496	0.24654
29.15213	-0.61496	0.24654
29.15644	-0.63693	0.24654
29.16063	-0.63693	0.24654
29.16482	-0.63693	0.24654
29.16903	-0.63693	0.24654
29.17325	-0.63693	0.24654
29.17755	-0.63693	0.24654
29.18174	-0.63693	0.24654
29.18609	-0.63693	0.24654
29.19031	-0.65890	0.24654
29.19450	-0.65890	0.24654
29.19869	-0.65890	0.24654
29.20287	-0.65890	0.24654
29.20705	-0.65890	0.24654
29.21125	-0.65890	0.24654
29.21548	-0.68088	0.24654
29.21975	-0.68088	0.24654
29.22395	-0.68088	0.24654
29.22813	-0.68088	0.24654
29.23232	-0.68088	0.24654
29.23651	-0.70285	0.24654
29.24069	-0.68088	0.24654
29.24488	-0.70285	0.24654
29.24922	-0.70285	0.24654
29.25350	-0.70285	0.24654
29.25769	-0.70285	0.24654
29.26188	-0.70285	0.24654
29.26607	-0.72482	0.24654
29.27027	-0.72482	0.24654
29.27446	-0.72482	0.24654
29.27888	-0.72482	0.24654
29.28317	-0.74679	0.24654
29.28736	-0.74679	0.24654
29.29155	-0.74679	0.24654
29.29573	-0.74679	0.24654
29.29993	-0.74679	0.24654
29.30411	-0.74679	0.24654
29.30830	-0.76877	0.24654
29.31262	-0.76877	0.24654
29.31682	-0.76877	0.24654
29.32101	-0.76877	0.24654
29.32519	-0.76877	0.24654
29.32938	-0.76877	0.24654
29.33356	-0.79074	0.24654
29.33775	-0.76877	0.24654
29.34200	-0.76877	0.24654
29.34627	-0.76877	0.24654
29.35046	-0.79074	0.24654
29.35464	-0.79074	0.24654
29.35883	-0.79074	0.24654
29.36301	-0.79074	0.24654
29.36719	-0.79074	0.24654
29.37140	-0.79074	0.24654
29.37571	-0.79074	0.24654
29.38003	-0.79074	0.24654
29.38421	-0.79074	0.24654
29.38840	-0.81271	0.24654
29.39260	-0.79074	0.24654
29.39678	-0.79074	0.24654
29.40096	-0.81271	0.24654
29.40540	-0.81271	0.24654
29.40961	-0.81271	0.24654
29.41381	-0.81271	0.24654
29.41800	-0.81271	0.24654
29.42219	-0.81271	0.24654
29.42638	-0.81271	0.24654
29.43057	-0.81271	0.24654
29.43483	-0.81271	0.24654
29.43912	-0.81271	0.24654
29.44332	-0.79074	0.24654
29.44751	-0.79074	0.24654
29.45170	-0.81271	0.24654
29.45589	-0.81271	0.24654
29.46008	-0.79074	0.24654
29.46427	-0.79074	0.24654
29.46861	-0.79074	0.24654
29.47284	-0.79074	0.24654
29.47704	-0.79074	0.24654
29.48134	-0.79074	0.24654
29.48553	-0.79074	0.24654
29.48972	-0.79074	0.24654
29.49391	-0.79074	0.24654
29.49833	-0.79074	0.24654
29.50254	-0.79074	0.24654
29.50674	-0.79074	0.24654
29.51093	-0.76877	0.24654
29.51512	-0.76877	0.24654
29.51931	-0.76877	0.24654
29.52350	-0.76877	0.24654
29.52775	-0.76877	0.24654
29.53206	-0.76877	0.24654
29.53626	-0.76877	0.24654
29.54046	-0.76877	0.24654
29.54461	-0.74679	0.24654
29.54879	-0.76877	0.24654
29.55298	-0.76877	0.24654
29.55716	-0.76877	0.24654
29.56146	-0.74679	0.24654
29.56567	-0.74679	0.24654
29.56985	-0.74679	0.24654
29.57405	-0.74679	0.24654
29.57825	-0.72482	0.24654
29.58254	-0.72482	0.24654
29.58672	-0.72482	0.24654
29.59097	-0.72482	0.24654
29.59525	-0.72482	0.24654
29.59945	-0.72482	0.24654
29.60364	-0.70285	0.24654
29.60783	-0.70285	0.24654
29.61201	-0.70285	0.24654
29.61619	-0.70285	0.24654
29.62038	-0.70285	0.24654
29.62469	-0.70285	0.24654
29.62890	-0.70285	0.24654
29.63308	-0.68088	0.24654
29.63727	-0.68088	0.24654
29.64145	-0.68088	0.24654
29.64563	-0.68088	0.24654
29.64982	-0.68088	0.24654
29.65407	-0.68088	0.24654
29.65833	-0.68088	0.24654
29.66252	-0.68088	0.24654
29.66671	-0.65890	0.24654
29.67091	-0.65890	0.24654
29.67510	-0.65890	0.24654
29.67929	-0.65890	0.24654
29.68359	-0.65890	0.24654
29.68790	-0.65890	0.24654
29.69212	-0.65890	0.24654
29.69630	-0.63693	0.24654
29.70049	-0.63693	0.24654
29.70468	-0.63693	0.24654
29.70886	-0.63693	0.24654
29.71305	-0.63693	0.24654
29.71749	-0.63693	0.24654
29.72172	-0.63693	0.24654
29.72591	-0.63693	0.24654
29.73010	-0.63693	0.24654
29.73430	-0.61496	0.24654
29.73849	-0.61496	0.24654
29.74268	-0.61496	0.24654
29.74695	-0.61496	0.24654
29.75124	-0.61496	0.24654
29.75545	-0.61496	0.24654
29.75964	-0.61496	0.24654
29.76383	-0.61496	0.24654
29.76801	-0.59298	0.24654
29.77222	-0.61496	0.24654
29.77642	-0.59298	0.24654
29.78073	-0.59298	0.24654
29.78505	-0.59298	0.24654
29.78924	-0.59298	0.24654
29.79342	-0.59298	0.24654
29.79760	-0.59298	0.24654
29.80179	-0.59298	0.24654
29.80597	-0.59298	0.24654
29.81041	-0.59298	0.24654
29.81464	-0.59298	0.24654
29.81883	-0.59298	0.24654
29.82302	-0.59298	0.24654
29.82721	-0.57101	0.24654
29.83140	-0.57101	0.24654
29.83559	-0.59298	0.24654
29.83985	-0.57101	0.24654
29.84415	-0.57101	0.24654
29.84836	-0.57101	0.24654
29.85257	-0.57101	0.24654
29.85676	-0.57101	0.24654
29.86095	-0.57101	0.24654
29.86514	-0.57101	0.24654
29.86933	-0.57101	0.24654
29.87366	-0.57101	0.24654
29.87788	-0.57101	0.24654
29.88207	-0.57101	0.24654
29.88639	-0.57101	0.24654
29.89058	-0.57101	0.24654
29.89477	-0.57101	0.24654
29.89896	-0.57101	0.24654
29.90338	-0.57101	0.24654
29.90760	-0.57101	0.24654
29.91179	-0.57101	0.24654
29.91598	-0.57101	0.24654
29.92017	-0.54904	0.24654
29.92436	-0.57101	0.24654
29.92856	-0.57101	0.24654
29.93282	-0.57101	0.24654
29.93709	-0.57101	0.24654
29.94128	-0.57101	0.24654
29.94547	-0.57101	0.24654
29.94965	-0.57101	0.24654
29.95383	-0.57101	0.24654
29.95802	-0.57101	0.24654
29.96220	-0.57101	0.24654
29.96650	-0.57101	0.24654
29.97076	-0.57101	0.24654
29.97495	-0.57101	0.24654
29.97914	-0.57101	0.24654
29.98334	-0.57101	0.24654
29.98763	-0.57101	0.24654
29.99181	-0.57101	0.24654
29.99625	-0.57101	0.24654
