Time (s)   roll (deg)   Delta
0.00039	-7.90988	11.27051
0.00460	-7.93185	11.27051
0.00880	-7.90988	11.27051
0.01297	-7.93185	11.27051
0.01715	-7.93185	11.27051
0.02132	-7.93185	11.27051
0.02550	-7.93185	11.27051
0.02983	-7.93185	11.27051
0.03413	-7.93185	11.27051
0.03833	-7.95382	11.27051
0.04253	-7.95382	11.27051
0.04672	-7.95382	11.27051
0.05092	-7.97580	11.27051
0.05513	-7.97580	11.27051
0.06091	-7.97580	11.27051
0.06520	-7.97580	11.27051
0.06941	-7.97580	11.27051
0.07360	-7.99777	11.27051
0.07780	-7.99777	11.27051
0.08200	-7.99777	11.27051
0.08623	-7.99777	11.27051
0.09201	-8.01974	11.27051
0.09630	-8.04172	11.27051
0.10064	-8.04172	11.27051
0.10486	-8.04172	11.27051
0.10905	-8.04172	11.27051
0.11325	-8.06369	11.27051
0.11745	-8.06369	11.27051
0.12202	-8.08566	11.27051
0.12635	-8.08566	11.27051
0.13057	-8.08566	11.27051
0.13477	-8.10763	11.27051
0.13896	-8.12961	11.27051
0.14316	-8.15158	11.27051
0.14735	-8.15158	11.27051
0.15183	-8.15158	11.27051
0.15618	-8.15158	11.27051
0.16041	-8.17355	11.27051
0.16461	-8.19552	11.27051
0.16881	-8.21750	11.27051
0.17300	-8.23947	11.27051
0.17719	-8.23947	11.27051
0.18139	-8.23947	11.27051
0.18593	-8.26144	11.27051
0.19011	-8.28341	11.27051
0.19430	-8.30539	11.27051
0.19856	-8.30539	11.27051
0.20288	-8.32736	11.27051
0.20708	-8.32736	11.27051
0.21127	-8.34933	11.27051
0.21553	-8.39328	11.27051
0.21979	-8.41525	11.27051
0.22399	-8.41525	11.27051
0.22817	-8.45920	11.27051
0.23235	-8.48117	11.27051
0.23652	-8.48117	11.27051
0.24070	-8.50314	11.27051
0.24494	-8.54709	11.27051
0.24921	-8.54709	11.27051
0.25341	-8.59103	11.27051
0.25759	-8.59103	11.27051
0.26176	-8.61300	11.27051
0.26595	-8.63498	11.27051
0.27012	-8.65695	11.27051
0.27430	-8.70089	11.27051
0.27859	-8.72287	11.27051
0.28278	-8.74484	11.27051
0.28697	-8.74484	11.27051
0.29119	-8.78879	11.27051
0.29538	-8.81076	11.27051
0.29956	-8.83273	11.27051
0.30385	-8.89865	11.27051
0.30829	-8.89865	11.27051
0.31250	-8.92062	11.27051
0.31668	-8.92062	11.27051
0.32087	-8.98654	11.27051
0.32506	-9.03048	11.27051
0.32924	-9.05246	11.27051
0.33343	-9.09640	11.27051
0.33771	-9.11838	11.27051
0.34202	-9.11838	11.27051
0.34624	-9.16232	11.27051
0.35044	-9.20627	11.27051
0.35465	-9.22824	11.27051
0.35885	-9.27218	11.27051
0.36306	-9.31613	11.27051
0.36893	-9.36007	11.27051
0.37322	-9.40402	11.27051
0.37743	-9.40402	11.27051
0.38164	-9.44797	11.27051
0.38585	-9.49191	11.27051
0.39006	-9.53586	11.27051
0.39426	-9.57980	11.27051
0.40062	-9.62375	11.27051
0.40487	-9.66769	11.27051
0.40916	-9.71164	11.27051
0.41335	-9.75558	11.27051
0.41754	-9.75558	11.27051
0.42172	-9.79953	11.27051
0.42591	-9.86545	11.27051
0.43017	-9.90939	11.27051
0.43444	-9.95334	11.27051
0.43866	-9.99728	11.27051
0.44284	-9.99728	11.27051
0.44703	-10.04123	11.27051
0.45121	-10.10714	11.27051
0.45539	-10.15109	11.27051
0.45965	-10.19504	11.27051
0.46393	-10.23898	11.27051
0.46813	-10.23898	11.27051
0.47232	-10.30490	11.27051
0.47650	-10.34884	11.27051
0.48069	-10.39279	11.27051
0.48487	-10.45871	11.27051
0.48907	-10.50265	11.27051
0.49338	-10.56857	11.27051
0.49759	-10.56857	11.27051
0.50177	-10.61252	11.27051
0.50597	-10.67843	11.27051
0.51026	-10.72238	11.27051
0.51445	-10.78830	11.27051
0.51863	-10.78830	11.27051
0.52305	-10.87619	11.27051
0.52725	-10.87619	11.27051
0.53144	-10.94211	11.27051
0.53562	-11.00802	11.27051
0.53981	-11.05197	11.27051
0.54399	-11.11789	11.27051
0.54817	-11.11789	11.27051
0.55244	-11.18381	11.27051
0.55670	-11.22775	11.27051
0.56089	-11.29367	11.27051
0.56507	-11.35959	11.27051
0.56926	-11.40353	11.27051
0.57344	-11.46945	11.27051
0.57762	-11.46945	11.27051
0.58186	-11.51339	11.27051
0.58615	-11.57931	11.27051
0.59037	-11.64523	11.27051
0.59456	-11.68918	11.27051
0.59875	-11.75509	11.27051
0.60293	-11.75509	11.27051
0.60712	-11.82101	11.27051
0.61141	-11.86496	11.27051
0.61570	-11.93088	11.27051
0.61990	-11.99679	11.27051
0.62409	-12.06271	11.27051
0.62827	-12.06271	11.27051
0.63246	-12.10666	11.27051
0.63664	-12.17257	11.27051
0.64083	-12.23849	11.27051
0.64527	-12.30441	11.27051
0.64948	-12.34836	11.27051
0.65367	-12.34836	11.27051
0.65786	-12.41427	11.27051
0.66205	-12.48019	11.27051
0.66624	-12.54611	11.27051
0.67042	-12.61203	11.27051
0.67469	-12.67795	11.27051
0.67896	-12.67795	11.27051
0.68315	-12.72189	11.27051
0.68736	-12.78781	11.27051
0.69156	-12.85373	11.27051
0.69575	-12.89767	11.27051
0.69994	-12.96359	11.27051
0.70419	-13.02951	11.27051
0.70848	-13.02951	11.27051
0.71278	-13.09543	11.27051
0.71696	-13.13937	11.27051
0.72115	-13.20529	11.27051
0.72533	-13.27121	11.27051
0.72952	-13.27121	11.27051
0.73370	-13.31515	11.27051
0.73801	-13.38107	11.27051
0.74223	-13.44699	11.27051
0.74641	-13.49093	11.27051
0.75060	-13.55685	11.27051
0.75478	-13.62277	11.27051
0.75897	-13.62277	11.27051
0.76315	-13.68869	11.27051
0.76757	-13.75461	11.27051
0.77178	-13.79855	11.27051
0.77597	-13.86447	11.27051
0.78015	-13.90841	11.27051
0.78434	-13.97433	11.27051
0.78854	-13.97433	11.27051
0.79273	-14.04025	11.27051
0.79700	-14.08420	11.27051
0.80127	-14.15011	11.27051
0.80547	-14.21603	11.27051
0.80965	-14.25998	11.27051
0.81395	-14.25998	11.27051
0.81814	-14.32589	11.27051
0.82232	-14.36984	11.27051
0.82656	-14.41379	11.27051
0.83084	-14.47970	11.27051
0.83504	-14.52365	11.27051
0.83923	-14.52365	11.27051
0.84341	-14.58957	11.27051
0.84760	-14.65548	11.27051
0.85178	-14.72140	11.27051
0.85596	-14.76535	11.27051
0.86025	-14.80929	11.27051
0.86445	-14.87521	11.27051
0.86863	-14.87521	11.27051
0.87282	-14.91916	11.27051
0.87700	-14.98507	11.27051
0.88119	-15.02902	11.27051
0.88537	-15.09494	11.27051
0.88981	-15.13888	11.27051
0.89403	-15.13888	11.27051
0.89822	-15.20480	11.27051
0.90241	-15.24875	11.27051
0.90661	-15.29269	11.27051
0.91079	-15.35861	11.27051
0.91508	-15.35861	11.27051
0.91934	-15.40256	11.27051
0.92362	-15.46847	11.27051
0.92781	-15.51242	11.27051
0.93200	-15.55636	11.27051
0.93618	-15.62228	11.27051
0.94037	-15.62228	11.27051
0.94455	-15.66623	11.27051
0.94878	-15.71017	11.27051
0.95306	-15.75412	11.27051
0.95727	-15.79806	11.27051
0.96145	-15.84201	11.27051
0.96564	-15.88595	11.27051
0.96982	-15.88595	11.27051
0.97401	-15.92990	11.27051
0.97820	-15.99582	11.27051
0.98249	-16.03976	11.27051
0.98669	-16.08371	11.27051
0.99089	-16.12765	11.27051
0.99507	-16.17160	11.27051
0.99927	-16.17160	11.27051
1.00345	-16.21554	11.27051
1.00763	-16.25949	11.27051
1.01205	-16.30343	11.27051
1.01636	-16.34738	11.27051
1.02054	-16.34738	11.27051
1.02473	-16.39132	11.27051
1.02892	-16.43527	11.27051
1.03310	-16.47922	11.27051
1.03728	-16.50119	11.27051
1.04154	-16.54513	11.27051
1.04581	-16.58908	11.27051
1.05001	-16.58908	11.27051
1.05419	-16.61105	11.27051
1.05838	-16.65500	11.27051
1.06257	-16.69894	11.27051
1.06675	-16.74289	11.27051
1.07098	-16.76486	11.27051
1.07526	-16.80881	11.27051
1.07951	-16.80881	11.27051
1.08370	-16.85275	11.27051
1.08790	-16.87472	11.27051
1.09210	-16.91867	11.27051
1.09630	-16.94064	11.27051
1.10049	-16.98459	11.27051
1.10480	-16.98459	11.27051
1.10903	-17.02853	11.27051
1.11324	-17.05050	11.27051
1.11760	-17.09445	11.27051
1.12179	-17.11642	11.27051
1.12601	-17.13839	11.27051
1.13022	-17.16037	11.27051
1.13478	-17.16037	11.27051
1.13900	-17.20431	11.27051
1.14319	-17.22629	11.27051
1.14738	-17.27023	11.27051
1.15156	-17.29220	11.27051
1.15575	-17.31418	11.27051
1.15993	-17.31418	11.27051
1.16420	-17.33615	11.27051
1.16846	-17.35812	11.27051
1.17266	-17.40207	11.27051
1.17684	-17.42404	11.27051
1.18103	-17.42404	11.27051
1.18521	-17.44601	11.27051
1.18941	-17.46798	11.27051
1.19367	-17.48996	11.27051
1.19797	-17.51193	11.27051
1.20217	-17.55588	11.27051
1.20639	-17.55588	11.27051
1.21058	-17.55588	11.27051
1.21476	-17.57785	11.27051
1.21905	-17.59982	11.27051
1.22324	-17.62179	11.27051
1.22755	-17.64377	11.27051
1.23175	-17.66574	11.27051
1.23593	-17.66574	11.27051
1.24012	-17.66574	11.27051
1.24430	-17.68771	11.27051
1.24849	-17.70968	11.27051
1.25267	-17.73166	11.27051
1.25710	-17.73166	11.27051
1.26130	-17.75363	11.27051
1.26548	-17.75363	11.27051
1.26966	-17.77560	11.27051
1.27385	-17.77560	11.27051
1.27804	-17.79757	11.27051
1.28223	-17.81955	11.27051
1.28649	-17.81955	11.27051
1.29077	-17.81955	11.27051
1.29498	-17.84152	11.27051
1.29917	-17.84152	11.27051
1.30336	-17.86349	11.27051
1.30755	-17.88547	11.27051
1.31174	-17.86349	11.27051
1.31599	-17.86349	11.27051
1.32037	-17.88547	11.27051
1.32459	-17.88547	11.27051
1.32878	-17.90744	11.27051
1.33297	-17.90744	11.27051
1.33716	-17.90744	11.27051
1.34134	-17.92941	11.27051
1.34553	-17.92941	11.27051
1.34983	-17.92941	11.27051
1.35404	-17.92941	11.27051
1.35823	-17.92941	11.27051
1.36242	-17.95138	11.27051
1.36660	-17.95138	11.27051
1.37079	-17.95138	11.27051
1.37497	-17.92941	11.27051
1.37941	-17.95138	11.27051
1.38361	-17.95138	11.27051
1.38781	-17.95138	11.27051
1.39201	-17.95138	11.27051
1.39619	-17.95138	11.27051
1.40038	-17.95138	11.27051
1.40457	-17.95138	11.27051
1.40885	-17.95138	11.27051
1.41312	-17.95138	11.27051
1.41731	-17.95138	11.27051
1.42162	-17.95138	11.27051
1.42581	-17.95138	11.27051
1.43001	-17.95138	11.27051
1.43420	-17.95138	11.27051
1.43849	-17.95138	11.27051
1.44278	-17.95138	11.27051
1.44697	-17.95138	11.27051
1.45116	-17.95138	11.27051
1.45535	-17.92941	11.27051
1.45953	-17.92941	11.27051
1.46371	-17.92941	11.27051
1.46790	-17.92941	11.27051
1.47221	-17.90744	11.27051
1.47641	-17.90744	11.27051
1.48060	-17.90744	11.27051
1.48478	-17.90744	11.27051
1.48899	-17.88547	11.27051
1.49317	-17.88547	11.27051
1.49736	-17.88547	11.27051
1.50180	-17.86349	11.27051
1.50603	-17.86349	11.27051
1.51022	-17.86349	11.27051
1.51441	-17.86349	11.27051
1.51859	-17.84152	11.27051
1.52288	-17.81955	11.27051
1.52707	-17.81955	11.27051
1.53132	-17.81955	11.27051
1.53559	-17.81955	11.27051
1.53979	-17.79757	11.27051
1.54398	-17.79757	11.27051
1.54816	-17.77560	11.27051
1.55235	-17.75363	11.27051
1.55653	-17.75363	11.27051
1.56078	-17.75363	11.27051
1.56506	-17.73166	11.27051
1.56926	-17.73166	11.27051
1.57345	-17.70968	11.27051
1.57763	-17.70968	11.27051
1.58182	-17.68771	11.27051
1.58601	-17.66574	11.27051
1.59022	-17.66574	11.27051
1.59453	-17.64377	11.27051
1.59874	-17.62179	11.27051
1.60292	-17.62179	11.27051
1.60711	-17.62179	11.27051
1.61130	-17.59982	11.27051
1.61548	-17.59982	11.27051
1.61966	-17.55588	11.27051
1.62422	-17.53390	11.27051
1.62842	-17.53390	11.27051
1.63260	-17.51193	11.27051
1.63679	-17.51193	11.27051
1.64097	-17.48996	11.27051
1.64516	-17.46798	11.27051
1.64934	-17.44601	11.27051
1.65360	-17.42404	11.27051
1.65787	-17.40207	11.27051
1.66207	-17.40207	11.27051
1.66626	-17.38009	11.27051
1.67044	-17.35812	11.27051
1.67463	-17.33615	11.27051
1.67881	-17.31418	11.27051
1.68305	-17.31418	11.27051
1.68733	-17.29220	11.27051
1.69155	-17.24826	11.27051
1.69574	-17.24826	11.27051
1.69993	-17.22629	11.27051
1.70412	-17.20431	11.27051
1.70831	-17.20431	11.27051
1.71250	-17.16037	11.27051
1.71686	-17.13839	11.27051
1.72107	-17.11642	11.27051
1.72538	-17.09445	11.27051
1.72957	-17.07248	11.27051
1.73376	-17.05050	11.27051
1.73797	-17.05050	11.27051
1.74216	-17.02853	11.27051
1.74661	-16.98459	11.27051
1.75082	-16.96261	11.27051
1.75501	-16.94064	11.27051
1.75920	-16.91867	11.27051
1.76338	-16.89670	11.27051
1.76756	-16.89670	11.27051
1.77175	-16.87472	11.27051
1.77601	-16.83078	11.27051
1.78028	-16.80881	11.27051
1.78447	-16.78683	11.27051
1.78867	-16.74289	11.27051
1.79287	-16.74289	11.27051
1.79705	-16.72091	11.27051
1.80124	-16.69894	11.27051
1.80551	-16.67697	11.27051
1.80979	-16.63302	11.27051
1.81400	-16.61105	11.27051
1.81819	-16.61105	11.27051
1.82239	-16.58908	11.27051
1.82667	-16.54513	11.27051
1.83086	-16.52316	11.27051
1.83504	-16.50119	11.27051
1.83934	-16.45724	11.27051
1.84354	-16.43527	11.27051
1.84772	-16.43527	11.27051
1.85190	-16.41330	11.27051
1.85609	-16.36935	11.27051
1.86027	-16.34738	11.27051
1.86446	-16.30343	11.27051
1.86888	-16.28146	11.27051
1.87310	-16.28146	11.27051
1.87729	-16.25949	11.27051
1.88147	-16.21554	11.27051
1.88566	-16.19357	11.27051
1.88986	-16.17160	11.27051
1.89406	-16.14963	11.27051
1.89832	-16.10568	11.27051
1.90260	-16.10568	11.27051
1.90681	-16.08371	11.27051
1.91100	-16.03976	11.27051
1.91518	-16.01779	11.27051
1.91936	-15.97384	11.27051
1.92355	-15.97384	11.27051
1.92791	-15.95187	11.27051
1.93218	-15.90793	11.27051
1.93638	-15.88595	11.27051
1.94057	-15.86398	11.27051
1.94476	-15.82004	11.27051
1.94894	-15.82004	11.27051
1.95313	-15.77609	11.27051
1.95731	-15.75412	11.27051
1.96161	-15.73214	11.27051
1.96582	-15.68820	11.27051
1.97001	-15.66623	11.27051
1.97420	-15.62228	11.27051
1.97839	-15.62228	11.27051
1.98257	-15.60031	11.27051
1.98676	-15.57834	11.27051
1.99121	-15.53439	11.27051
1.99543	-15.51242	11.27051
1.99962	-15.46847	11.27051
2.00381	-15.46847	11.27051
2.00801	-15.44650	11.27051
2.01219	-15.40256	11.27051
2.01638	-15.38058	11.27051
2.02065	-15.35861	11.27051
2.02492	-15.31466	11.27051
2.02922	-15.31466	11.27051
2.03341	-15.29269	11.27051
2.03760	-15.27072	11.27051
2.04179	-15.22677	11.27051
2.04598	-15.18283	11.27051
2.05025	-15.16086	11.27051
2.05454	-15.16086	11.27051
2.05874	-15.11691	11.27051
2.06293	-15.09494	11.27051
2.06711	-15.07297	11.27051
2.07130	-15.02902	11.27051
2.07548	-15.00705	11.27051
2.07967	-14.98507	11.27051
2.08397	-14.98507	11.27051
2.08818	-14.94113	11.27051
2.09238	-14.91916	11.27051
2.09657	-14.87521	11.27051
2.10076	-14.85324	11.27051
2.10494	-14.83127	11.27051
2.10913	-14.83127	11.27051
2.11355	-14.78732	11.27051
2.11775	-14.76535	11.27051
2.12195	-14.74338	11.27051
2.12614	-14.72140	11.27051
2.13043	-14.67746	11.27051
2.13461	-14.67746	11.27051
2.13879	-14.65548	11.27051
2.14307	-14.63351	11.27051
2.14734	-14.58957	11.27051
2.15154	-14.56759	11.27051
2.15572	-14.54562	11.27051
2.15991	-14.52365	11.27051
2.16410	-14.52365	11.27051
2.16828	-14.47970	11.27051
2.17253	-14.45773	11.27051
2.17681	-14.43576	11.27051
2.18101	-14.39181	11.27051
2.18519	-14.36984	11.27051
2.18940	-14.36984	11.27051
2.19359	-14.34787	11.27051
2.19778	-14.32589	11.27051
2.20198	-14.30392	11.27051
2.20631	-14.25998	11.27051
2.21051	-14.25998	11.27051
2.21470	-14.23800	11.27051
2.21888	-14.21603	11.27051
2.22308	-14.19406	11.27051
2.22727	-14.15011	11.27051
2.23156	-14.15011	11.27051
2.23599	-14.10617	11.27051
2.24021	-14.10617	11.27051
2.24440	-14.08420	11.27051
2.24858	-14.06222	11.27051
2.25277	-14.04025	11.27051
2.25695	-14.01828	11.27051
2.26114	-13.99631	11.27051
2.26541	-13.99631	11.27051
2.26967	-13.95236	11.27051
2.27387	-13.95236	11.27051
2.27806	-13.90841	11.27051
2.28224	-13.88644	11.27051
2.28643	-13.86447	11.27051
2.29063	-13.84250	11.27051
2.29490	-13.84250	11.27051
2.29918	-13.82052	11.27051
2.30337	-13.79855	11.27051
2.30757	-13.77658	11.27051
2.31177	-13.75461	11.27051
2.31595	-13.73263	11.27051
2.32014	-13.71066	11.27051
2.32433	-13.71066	11.27051
2.32862	-13.68869	11.27051
2.33294	-13.66672	11.27051
2.33715	-13.64474	11.27051
2.34135	-13.62277	11.27051
2.34555	-13.62277	11.27051
2.34973	-13.60080	11.27051
2.35392	-13.57882	11.27051
2.35834	-13.55685	11.27051
2.36255	-13.55685	11.27051
2.36674	-13.53488	11.27051
2.37092	-13.51291	11.27051
2.37511	-13.51291	11.27051
2.37930	-13.49093	11.27051
2.38348	-13.46896	11.27051
2.38776	-13.44699	11.27051
2.39205	-13.42502	11.27051
2.39625	-13.40304	11.27051
2.40045	-13.40304	11.27051
2.40466	-13.40304	11.27051
2.40885	-13.38107	11.27051
2.41304	-13.35910	11.27051
2.41731	-13.33713	11.27051
2.42158	-13.33713	11.27051
2.42581	-13.31515	11.27051
2.43001	-13.31515	11.27051
2.43430	-13.29318	11.27051
2.43849	-13.27121	11.27051
2.44268	-13.24923	11.27051
2.44686	-13.22726	11.27051
2.45115	-13.22726	11.27051
2.45537	-13.22726	11.27051
2.45956	-13.20529	11.27051
2.46374	-13.18332	11.27051
2.46793	-13.18332	11.27051
2.47212	-13.16134	11.27051
2.47630	-13.16134	11.27051
2.48069	-13.16134	11.27051
2.48491	-13.13937	11.27051
2.48910	-13.13937	11.27051
2.49330	-13.11740	11.27051
2.49750	-13.09543	11.27051
2.50169	-13.07345	11.27051
2.50587	-13.07345	11.27051
2.51017	-13.07345	11.27051
2.51443	-13.05148	11.27051
2.51863	-13.05148	11.27051
2.52282	-13.02951	11.27051
2.52701	-13.02951	11.27051
2.53120	-13.00754	11.27051
2.53548	-13.00754	11.27051
2.53974	-12.98556	11.27051
2.54400	-12.98556	11.27051
2.54821	-12.96359	11.27051
2.55239	-12.96359	11.27051
2.55658	-12.96359	11.27051
2.56077	-12.96359	11.27051
2.56495	-12.94162	11.27051
2.56914	-12.91964	11.27051
2.57345	-12.91964	11.27051
2.57766	-12.91964	11.27051
2.58185	-12.91964	11.27051
2.58604	-12.91964	11.27051
2.59025	-12.89767	11.27051
2.59444	-12.87570	11.27051
2.59863	-12.87570	11.27051
2.60304	-12.87570	11.27051
2.60726	-12.87570	11.27051
2.61145	-12.85373	11.27051
2.61565	-12.85373	11.27051
2.61983	-12.85373	11.27051
2.62402	-12.85373	11.27051
2.62820	-12.85373	11.27051
2.63248	-12.83175	11.27051
2.63684	-12.83175	11.27051
2.64104	-12.83175	11.27051
2.64523	-12.80978	11.27051
2.64941	-12.83175	11.27051
2.65360	-12.80978	11.27051
2.65778	-12.80978	11.27051
2.66205	-12.80978	11.27051
2.66631	-12.80978	11.27051
2.67051	-12.80978	11.27051
2.67470	-12.78781	11.27051
2.67888	-12.78781	11.27051
2.68307	-12.78781	11.27051
2.68725	-12.78781	11.27051
2.69145	-12.78781	11.27051
2.69575	-12.78781	11.27051
2.69996	-12.78781	11.27051
2.70415	-12.76584	11.27051
2.70834	-12.78781	11.27051
2.71252	-12.76584	11.27051
2.71671	-12.76584	11.27051
2.72090	-12.76584	11.27051
2.72528	-12.78781	11.27051
2.72950	-12.76584	11.27051
2.73369	-12.76584	11.27051
2.73800	-12.76584	11.27051
2.74218	-12.76584	11.27051
2.74637	-12.76584	11.27051
2.75055	-12.76584	11.27051
2.75483	-12.76584	11.27051
2.75907	-12.76584	11.27051
2.76327	-12.76584	11.27051
2.76745	-12.76584	11.27051
2.77164	-12.76584	11.27051
2.77583	-12.76584	11.27051
2.78001	-12.76584	11.27051
2.78426	-12.78781	11.27051
2.78852	-12.78781	11.27051
2.79275	-12.76584	11.27051
2.79695	-12.76584	11.27051
2.80116	-12.78781	11.27051
2.80535	-12.78781	11.27051
2.80954	-12.78781	11.27051
2.81372	-12.78781	11.27051
2.81803	-12.78781	11.27051
2.82225	-12.78781	11.27051
2.82644	-12.78781	11.27051
2.83063	-12.78781	11.27051
2.83481	-12.80978	11.27051
2.83910	-12.80978	11.27051
2.84328	-12.80978	11.27051
2.84767	-12.80978	11.27051
2.85188	-12.80978	11.27051
2.85607	-12.83175	11.27051
2.86026	-12.83175	11.27051
2.86444	-12.83175	11.27051
2.86863	-12.85373	11.27051
2.87281	-12.85373	11.27051
2.87710	-12.85373	11.27051
2.88134	-12.85373	11.27051
2.88554	-12.87570	11.27051
2.88973	-12.87570	11.27051
2.89393	-12.87570	11.27051
2.89808	-12.89767	11.27051
2.90227	-12.89767	11.27051
2.90653	-12.89767	11.27051
2.91080	-12.89767	11.27051
2.91502	-12.91964	11.27051
2.91920	-12.91964	11.27051
2.92339	-12.94162	11.27051
2.92758	-12.94162	11.27051
2.93176	-12.94162	11.27051
2.93595	-12.94162	11.27051
2.94035	-12.96359	11.27051
2.94456	-12.98556	11.27051
2.94875	-12.98556	11.27051
2.95294	-12.98556	11.27051
2.95712	-12.98556	11.27051
2.96131	-13.00754	11.27051
2.96549	-13.00754	11.27051
2.96987	-13.02951	11.27051
2.97410	-13.02951	11.27051
2.97829	-13.02951	11.27051
2.98248	-13.02951	11.27051
2.98666	-13.05148	11.27051
2.99087	-13.07345	11.27051
2.99506	-13.07345	11.27051
2.99935	-13.07345	11.27051
3.00360	-13.09543	11.27051
3.00781	-13.09543	11.27051
3.01200	-13.11740	11.27051
3.01619	-13.11740	11.27051
3.02038	-13.13937	11.27051
3.02457	-13.13937	11.27051
3.02882	-13.16134	11.27051
3.03308	-13.16134	11.27051
3.03729	-13.18332	11.27051
3.04159	-13.18332	11.27051
3.04578	-13.18332	11.27051
3.04997	-13.20529	11.27051
3.05416	-13.22726	11.27051
3.05835	-13.22726	11.27051
3.06263	-13.22726	11.27051
3.06684	-13.24923	11.27051
3.07105	-13.24923	11.27051
3.07523	-13.27121	11.27051
3.07942	-13.29318	11.27051
3.08361	-13.29318	11.27051
3.08779	-13.29318	11.27051
3.09220	-13.31515	11.27051
3.09642	-13.31515	11.27051
3.10061	-13.33713	11.27051
3.10480	-13.35910	11.27051
3.10899	-13.35910	11.27051
3.11317	-13.35910	11.27051
3.11736	-13.38107	11.27051
3.12163	-13.40304	11.27051
3.12587	-13.40304	11.27051
3.13007	-13.42502	11.27051
3.13426	-13.42502	11.27051
3.13844	-13.44699	11.27051
3.14273	-13.44699	11.27051
3.14692	-13.44699	11.27051
3.15116	-13.46896	11.27051
3.15543	-13.49093	11.27051
3.15963	-13.49093	11.27051
3.16382	-13.49093	11.27051
3.16801	-13.51291	11.27051
3.17219	-13.51291	11.27051
3.17638	-13.55685	11.27051
3.18056	-13.55685	11.27051
3.18485	-13.55685	11.27051
3.18907	-13.57882	11.27051
3.19328	-13.57882	11.27051
3.19747	-13.60080	11.27051
3.20166	-13.62277	11.27051
3.20586	-13.64474	11.27051
3.21006	-13.64474	11.27051
3.21445	-13.66672	11.27051
3.21868	-13.66672	11.27051
3.22287	-13.66672	11.27051
3.22706	-13.68869	11.27051
3.23125	-13.71066	11.27051
3.23543	-13.73263	11.27051
3.23962	-13.73263	11.27051
3.24401	-13.73263	11.27051
3.24825	-13.75461	11.27051
3.25244	-13.77658	11.27051
3.25663	-13.79855	11.27051
3.26081	-13.82052	11.27051
3.26500	-13.82052	11.27051
3.26918	-13.82052	11.27051
3.27344	-13.84250	11.27051
3.27770	-13.86447	11.27051
3.28190	-13.86447	11.27051
3.28608	-13.88644	11.27051
3.29027	-13.90841	11.27051
3.29448	-13.93039	11.27051
3.29867	-13.93039	11.27051
3.30287	-13.95236	11.27051
3.30716	-13.95236	11.27051
3.31137	-13.97433	11.27051
3.31556	-13.99631	11.27051
3.31975	-14.01828	11.27051
3.32393	-14.01828	11.27051
3.32812	-14.01828	11.27051
3.33231	-14.04025	11.27051
3.33674	-14.06222	11.27051
3.34097	-14.08420	11.27051
3.34527	-14.10617	11.27051
3.34946	-14.12814	11.27051
3.35364	-14.12814	11.27051
3.35783	-14.15011	11.27051
3.36202	-14.15011	11.27051
3.36630	-14.17209	11.27051
3.37055	-14.19406	11.27051
3.37475	-14.19406	11.27051
3.37894	-14.21603	11.27051
3.38312	-14.23800	11.27051
3.38731	-14.23800	11.27051
3.39151	-14.25998	11.27051
3.39579	-14.28195	11.27051
3.40006	-14.30392	11.27051
3.40429	-14.30392	11.27051
3.40848	-14.32589	11.27051
3.41266	-14.34787	11.27051
3.41685	-14.36984	11.27051
3.42103	-14.39181	11.27051
3.42522	-14.41379	11.27051
3.42951	-14.41379	11.27051
3.43372	-14.41379	11.27051
3.43791	-14.45773	11.27051
3.44208	-14.45773	11.27051
3.44637	-14.47970	11.27051
3.45055	-14.50168	11.27051
3.45474	-14.50168	11.27051
3.45912	-14.52365	11.27051
3.46334	-14.54562	11.27051
3.46752	-14.56759	11.27051
3.47171	-14.58957	11.27051
3.47590	-14.61154	11.27051
3.48009	-14.61154	11.27051
3.48427	-14.63351	11.27051
3.48855	-14.65548	11.27051
3.49282	-14.67746	11.27051
3.49703	-14.69943	11.27051
3.50122	-14.72140	11.27051
3.50542	-14.72140	11.27051
3.50961	-14.74338	11.27051
3.51379	-14.76535	11.27051
3.51806	-14.78732	11.27051
3.52234	-14.80929	11.27051
3.52655	-14.83127	11.27051
3.53074	-14.85324	11.27051
3.53493	-14.85324	11.27051
3.53912	-14.87521	11.27051
3.54331	-14.89718	11.27051
3.54760	-14.91916	11.27051
3.55189	-14.94113	11.27051
3.55612	-14.96310	11.27051
3.56031	-14.98507	11.27051
3.56450	-14.98507	11.27051
3.56869	-14.98507	11.27051
3.57287	-15.00705	11.27051
3.57706	-15.05099	11.27051
3.58144	-15.07297	11.27051
3.58565	-15.07297	11.27051
3.58984	-15.07297	11.27051
3.59406	-15.11691	11.27051
3.59825	-15.13888	11.27051
3.60243	-15.16086	11.27051
3.60662	-15.16086	11.27051
3.61089	-15.20480	11.27051
3.61514	-15.20480	11.27051
3.61933	-15.22677	11.27051
3.62352	-15.22677	11.27051
3.62771	-15.27072	11.27051
3.63189	-15.29269	11.27051
3.63608	-15.29269	11.27051
3.64033	-15.31466	11.27051
3.64459	-15.31466	11.27051
3.64889	-15.33664	11.27051
3.65308	-15.35861	11.27051
3.65726	-15.38058	11.27051
3.66145	-15.40256	11.27051
3.66564	-15.40256	11.27051
3.66982	-15.44650	11.27051
3.67412	-15.44650	11.27051
3.67833	-15.46847	11.27051
3.68252	-15.49045	11.27051
3.68671	-15.53439	11.27051
3.69089	-15.53439	11.27051
3.69509	-15.53439	11.27051
3.69928	-15.55636	11.27051
3.70367	-15.57834	11.27051
3.70790	-15.60031	11.27051
3.71210	-15.62228	11.27051
3.71628	-15.64425	11.27051
3.72047	-15.64425	11.27051
3.72467	-15.66623	11.27051
3.72885	-15.68820	11.27051
3.73312	-15.68820	11.27051
3.73737	-15.71017	11.27051
3.74158	-15.75412	11.27051
3.74577	-15.75412	11.27051
3.75008	-15.75412	11.27051
3.75427	-15.77609	11.27051
3.75845	-15.79806	11.27051
3.76270	-15.82004	11.27051
3.76696	-15.84201	11.27051
3.77117	-15.84201	11.27051
3.77536	-15.86398	11.27051
3.77954	-15.86398	11.27051
3.78373	-15.88595	11.27051
3.78791	-15.90793	11.27051
3.79211	-15.92990	11.27051
3.79641	-15.92990	11.27051
3.80062	-15.95187	11.27051
3.80482	-15.97384	11.27051
3.80901	-15.97384	11.27051
3.81319	-15.99582	11.27051
3.81738	-16.01779	11.27051
3.82156	-16.03976	11.27051
3.82596	-16.03976	11.27051
3.83017	-16.06173	11.27051
3.83436	-16.06173	11.27051
3.83855	-16.08371	11.27051
3.84273	-16.10568	11.27051
3.84692	-16.10568	11.27051
3.85120	-16.12765	11.27051
3.85548	-16.12765	11.27051
3.85974	-16.12765	11.27051
3.86394	-16.17160	11.27051
3.86812	-16.17160	11.27051
3.87231	-16.19357	11.27051
3.87650	-16.19357	11.27051
3.88068	-16.21554	11.27051
3.88493	-16.21554	11.27051
3.88919	-16.23752	11.27051
3.89342	-16.23752	11.27051
3.89761	-16.25949	11.27051
3.90180	-16.25949	11.27051
3.90600	-16.25949	11.27051
3.91020	-16.28146	11.27051
3.91439	-16.28146	11.27051
3.91868	-16.28146	11.27051
3.92289	-16.30343	11.27051
3.92708	-16.32541	11.27051
3.93127	-16.32541	11.27051
3.93546	-16.32541	11.27051
3.93964	-16.34738	11.27051
3.94383	-16.34738	11.27051
3.94820	-16.36935	11.27051
3.95252	-16.36935	11.27051
3.95671	-16.39132	11.27051
3.96089	-16.39132	11.27051
3.96508	-16.39132	11.27051
3.96926	-16.39132	11.27051
3.97345	-16.41330	11.27051
3.97772	-16.41330	11.27051
3.98197	-16.41330	11.27051
3.98617	-16.43527	11.27051
3.99036	-16.43527	11.27051
3.99456	-16.43527	11.27051
3.99876	-16.43527	11.27051
4.00295	-16.45724	11.27051
4.00721	-16.45724	11.27051
4.01147	-16.45724	11.27051
4.01568	-16.45724	11.27051
4.01987	-16.47922	11.27051
4.02407	-16.47922	11.27051
4.02826	-16.47922	11.27051
4.03245	-16.47922	11.27051
4.03663	-16.47922	11.27051
4.04092	-16.47922	11.27051
4.04513	-16.47922	11.27051
4.04932	-16.47922	11.27051
4.05361	-16.50119	11.27051
4.05779	-16.50119	11.27051
4.06199	-16.47922	11.27051
4.06618	-16.50119	11.27051
4.07056	-16.50119	11.27051
4.07478	-16.50119	11.27051
4.07897	-16.50119	11.27051
4.08315	-16.50119	11.27051
4.08735	-16.50119	11.27051
4.09153	-16.50119	11.27051
4.09573	-16.50119	11.27051
4.10001	-16.47922	11.27051
4.10427	-16.50119	11.27051
4.10847	-16.47922	11.27051
4.11266	-16.50119	11.27051
4.11684	-16.50119	11.27051
4.12103	-16.47922	11.27051
4.12521	-16.47922	11.27051
4.12946	-16.47922	11.27051
4.13372	-16.47922	11.27051
4.13793	-16.47922	11.27051
4.14208	-16.47922	11.27051
4.14626	-16.45724	11.27051
4.15045	-16.47922	11.27051
4.15473	-16.45724	11.27051
4.15892	-16.45724	11.27051
4.16321	-16.45724	11.27051
4.16741	-16.45724	11.27051
4.17161	-16.43527	11.27051
4.17580	-16.43527	11.27051
4.17998	-16.41330	11.27051
4.18416	-16.41330	11.27051
4.18835	-16.41330	11.27051
4.19275	-16.41330	11.27051
4.19697	-16.41330	11.27051
4.20116	-16.39132	11.27051
4.20535	-16.39132	11.27051
4.20955	-16.39132	11.27051
4.21374	-16.34738	11.27051
4.21793	-16.34738	11.27051
4.22217	-16.34738	11.27051
4.22643	-16.34738	11.27051
4.23063	-16.32541	11.27051
4.23482	-16.32541	11.27051
4.23900	-16.30343	11.27051
4.24319	-16.30343	11.27051
4.24737	-16.30343	11.27051
4.25162	-16.28146	11.27051
4.25600	-16.25949	11.27051
4.26020	-16.25949	11.27051
4.26438	-16.23752	11.27051
4.26857	-16.23752	11.27051
4.27276	-16.21554	11.27051
4.27694	-16.21554	11.27051
4.28112	-16.19357	11.27051
4.28541	-16.17160	11.27051
4.28962	-16.17160	11.27051
4.29383	-16.14963	11.27051
4.29803	-16.14963	11.27051
4.30222	-16.12765	11.27051
4.30641	-16.12765	11.27051
4.31059	-16.10568	11.27051
4.31498	-16.08371	11.27051
4.31920	-16.06173	11.27051
4.32339	-16.03976	11.27051
4.32759	-16.03976	11.27051
4.33178	-16.03976	11.27051
4.33597	-16.01779	11.27051
4.34016	-15.99582	11.27051
4.34444	-15.97384	11.27051
4.34869	-15.97384	11.27051
4.35289	-15.95187	11.27051
4.35718	-15.92990	11.27051
4.36137	-15.90793	11.27051
4.36556	-15.90793	11.27051
4.36974	-15.86398	11.27051
4.37402	-15.86398	11.27051
4.37829	-15.86398	11.27051
4.38249	-15.84201	11.27051
4.38668	-15.82004	11.27051
4.39094	-15.77609	11.27051
4.39526	-15.77609	11.27051
4.39948	-15.75412	11.27051
4.40373	-15.73214	11.27051
4.40805	-15.73214	11.27051
4.41226	-15.71017	11.27051
4.41645	-15.68820	11.27051
4.42066	-15.66623	11.27051
4.42486	-15.62228	11.27051
4.42906	-15.62228	11.27051
4.43324	-15.62228	11.27051
4.43766	-15.57834	11.27051
4.44188	-15.55636	11.27051
4.44607	-15.55636	11.27051
4.45026	-15.51242	11.27051
4.45445	-15.49045	11.27051
4.45874	-15.46847	11.27051
4.46293	-15.46847	11.27051
4.46720	-15.44650	11.27051
4.47144	-15.42453	11.27051
4.47564	-15.40256	11.27051
4.47983	-15.38058	11.27051
4.48402	-15.35861	11.27051
4.48820	-15.35861	11.27051
4.49243	-15.31466	11.27051
4.49673	-15.31466	11.27051
4.50101	-15.27072	11.27051
4.50523	-15.24875	11.27051
4.50943	-15.24875	11.27051
4.51362	-15.22677	11.27051
4.51780	-15.20480	11.27051
4.52200	-15.16086	11.27051
4.52619	-15.13888	11.27051
4.53048	-15.11691	11.27051
4.53469	-15.09494	11.27051
4.53888	-15.09494	11.27051
4.54307	-15.07297	11.27051
4.54725	-15.05099	11.27051
4.55143	-15.02902	11.27051
4.55562	-14.98507	11.27051
4.56011	-14.96310	11.27051
4.56432	-14.96310	11.27051
4.56851	-14.94113	11.27051
4.57271	-14.91916	11.27051
4.57690	-14.89718	11.27051
4.58108	-14.87521	11.27051
4.58527	-14.83127	11.27051
4.58954	-14.80929	11.27051
4.59380	-14.80929	11.27051
4.59802	-14.78732	11.27051
4.60221	-14.74338	11.27051
4.60641	-14.72140	11.27051
4.61060	-14.69943	11.27051
4.61478	-14.69943	11.27051
4.61904	-14.67746	11.27051
4.62330	-14.65548	11.27051
4.62750	-14.61154	11.27051
4.63170	-14.58957	11.27051
4.63588	-14.56759	11.27051
4.64008	-14.54562	11.27051
4.64427	-14.54562	11.27051
4.64846	-14.50168	11.27051
4.65275	-14.47970	11.27051
4.65698	-14.45773	11.27051
4.66127	-14.43576	11.27051
4.66546	-14.39181	11.27051
4.66964	-14.36984	11.27051
4.67383	-14.36984	11.27051
4.67802	-14.34787	11.27051
4.68242	-14.32589	11.27051
4.68663	-14.30392	11.27051
4.69083	-14.25998	11.27051
4.69503	-14.23800	11.27051
4.69923	-14.23800	11.27051
4.70341	-14.21603	11.27051
4.70761	-14.19406	11.27051
4.71189	-14.17209	11.27051
4.71614	-14.12814	11.27051
4.72035	-14.10617	11.27051
4.72454	-14.10617	11.27051
4.72873	-14.08420	11.27051
4.73292	-14.06222	11.27051
4.73711	-14.04025	11.27051
4.74136	-13.99631	11.27051
4.74562	-13.97433	11.27051
4.74983	-13.97433	11.27051
4.75403	-13.95236	11.27051
4.75821	-13.93039	11.27051
4.76250	-13.88644	11.27051
4.76668	-13.86447	11.27051
4.77087	-13.84250	11.27051
4.77516	-13.84250	11.27051
4.77936	-13.82052	11.27051
4.78355	-13.79855	11.27051
4.78774	-13.75461	11.27051
4.79193	-13.73263	11.27051
4.79614	-13.71066	11.27051
4.80032	-13.71066	11.27051
4.80472	-13.68869	11.27051
4.80894	-13.66672	11.27051
4.81313	-13.62277	11.27051
4.81732	-13.60080	11.27051
4.82150	-13.57882	11.27051
4.82569	-13.57882	11.27051
4.82987	-13.55685	11.27051
4.83419	-13.53488	11.27051
4.83845	-13.51291	11.27051
4.84265	-13.49093	11.27051
4.84684	-13.46896	11.27051
4.85102	-13.44699	11.27051
4.85521	-13.44699	11.27051
4.85939	-13.40304	11.27051
4.86375	-13.38107	11.27051
4.86800	-13.38107	11.27051
4.87221	-13.33713	11.27051
4.87640	-13.31515	11.27051
4.88059	-13.31515	11.27051
4.88477	-13.31515	11.27051
4.88896	-13.29318	11.27051
4.89316	-13.27121	11.27051
4.89745	-13.22726	11.27051
4.90167	-13.20529	11.27051
4.90586	-13.18332	11.27051
4.91006	-13.18332	11.27051
4.91425	-13.18332	11.27051
4.91843	-13.16134	11.27051
4.92262	-13.13937	11.27051
4.92702	-13.11740	11.27051
4.93123	-13.09543	11.27051
4.93542	-13.09543	11.27051
4.93961	-13.07345	11.27051
4.94380	-13.05148	11.27051
4.94799	-13.02951	11.27051
4.95217	-13.00754	11.27051
4.95645	-12.98556	11.27051
4.96069	-12.96359	11.27051
4.96499	-12.96359	11.27051
4.96918	-12.94162	11.27051
4.97336	-12.94162	11.27051
4.97755	-12.89767	11.27051
4.98174	-12.89767	11.27051
4.98601	-12.87570	11.27051
4.99029	-12.87570	11.27051
4.99451	-12.85373	11.27051
4.99871	-12.83175	11.27051
5.00290	-12.80978	11.27051
5.00710	-12.80978	11.27051
5.01129	-12.80978	11.27051
5.01547	-12.78781	11.27051
5.01976	-12.76584	11.27051
5.02400	-12.74386	11.27051
5.02819	-12.74386	11.27051
5.03237	-12.69992	11.27051
5.03656	-12.69992	11.27051
5.04075	-12.69992	11.27051
5.04493	-12.67795	11.27051
5.04932	-12.67795	11.27051
5.05354	-12.65597	11.27051
5.05773	-12.65597	11.27051
5.06191	-12.63400	11.27051
5.06617	-12.63400	11.27051
5.07037	-12.61203	11.27051
5.07455	-12.59006	11.27051
5.07882	-12.59006	11.27051
5.08315	-12.56808	11.27051
5.08741	-12.56808	11.27051
5.09162	-12.54611	11.27051
5.09583	-12.54611	11.27051
5.10004	-12.52414	11.27051
5.10424	-12.52414	11.27051
5.11022	-12.50216	11.27051
5.11451	-12.50216	11.27051
5.11873	-12.48019	11.27051
5.12293	-12.45822	11.27051
5.12714	-12.45822	11.27051
5.13135	-12.45822	11.27051
5.13557	-12.45822	11.27051
5.14042	-12.43625	11.27051
5.14471	-12.43625	11.27051
5.14893	-12.41427	11.27051
5.15314	-12.41427	11.27051
5.15734	-12.41427	11.27051
5.16155	-12.41427	11.27051
5.16576	-12.39230	11.27051
5.17039	-12.39230	11.27051
5.17467	-12.37033	11.27051
5.17889	-12.37033	11.27051
5.18309	-12.37033	11.27051
5.18728	-12.37033	11.27051
5.19147	-12.37033	11.27051
5.19566	-12.34836	11.27051
5.19985	-12.32638	11.27051
5.20414	-12.34836	11.27051
5.20836	-12.32638	11.27051
5.21256	-12.32638	11.27051
5.21675	-12.32638	11.27051
5.22094	-12.32638	11.27051
5.22513	-12.32638	11.27051
5.22932	-12.32638	11.27051
5.23373	-12.30441	11.27051
5.23797	-12.30441	11.27051
5.24217	-12.30441	11.27051
5.24635	-12.30441	11.27051
5.25054	-12.30441	11.27051
5.25473	-12.30441	11.27051
5.25891	-12.30441	11.27051
5.26317	-12.30441	11.27051
5.26743	-12.28244	11.27051
5.27175	-12.28244	11.27051
5.27594	-12.30441	11.27051
5.28014	-12.28244	11.27051
5.28433	-12.30441	11.27051
5.28852	-12.30441	11.27051
5.29276	-12.30441	11.27051
5.29705	-12.30441	11.27051
5.30127	-12.30441	11.27051
5.30547	-12.30441	11.27051
5.30967	-12.30441	11.27051
5.31386	-12.30441	11.27051
5.31805	-12.30441	11.27051
5.32225	-12.30441	11.27051
5.32654	-12.30441	11.27051
5.33076	-12.30441	11.27051
5.33499	-12.30441	11.27051
5.33919	-12.30441	11.27051
5.34338	-12.32638	11.27051
5.34758	-12.32638	11.27051
5.35177	-12.32638	11.27051
5.35616	-12.32638	11.27051
5.36037	-12.32638	11.27051
5.36457	-12.32638	11.27051
5.36876	-12.34836	11.27051
5.37306	-12.34836	11.27051
5.37726	-12.34836	11.27051
5.38145	-12.37033	11.27051
5.38575	-12.37033	11.27051
5.39003	-12.37033	11.27051
5.39427	-12.37033	11.27051
5.39848	-12.39230	11.27051
5.40268	-12.39230	11.27051
5.40688	-12.39230	11.27051
5.41107	-12.41427	11.27051
5.41534	-12.41427	11.27051
5.41961	-12.41427	11.27051
5.42383	-12.43625	11.27051
5.42803	-12.45822	11.27051
5.43225	-12.45822	11.27051
5.43644	-12.45822	11.27051
5.44064	-12.48019	11.27051
5.44483	-12.48019	11.27051
5.44913	-12.50216	11.27051
5.45335	-12.50216	11.27051
5.45755	-12.50216	11.27051
5.46174	-12.52414	11.27051
5.46594	-12.54611	11.27051
5.47013	-12.54611	11.27051
5.47447	-12.54611	11.27051
5.47887	-12.59006	11.27051
5.48309	-12.59006	11.27051
5.48729	-12.59006	11.27051
5.49148	-12.59006	11.27051
5.49569	-12.61203	11.27051
5.49990	-12.63400	11.27051
5.50409	-12.63400	11.27051
5.50839	-12.65597	11.27051
5.51265	-12.65597	11.27051
5.51686	-12.67795	11.27051
5.52105	-12.69992	11.27051
5.52525	-12.69992	11.27051
5.52944	-12.72189	11.27051
5.53364	-12.74386	11.27051
5.53791	-12.74386	11.27051
5.54216	-12.74386	11.27051
5.54637	-12.76584	11.27051
5.55056	-12.78781	11.27051
5.55475	-12.80978	11.27051
5.55894	-12.83175	11.27051
5.56313	-12.83175	11.27051
5.56733	-12.83175	11.27051
5.57161	-12.85373	11.27051
5.57594	-12.87570	11.27051
5.58013	-12.89767	11.27051
5.58432	-12.89767	11.27051
5.58851	-12.89767	11.27051
5.59270	-12.91964	11.27051
5.59691	-12.94162	11.27051
5.60129	-12.96359	11.27051
5.60552	-12.96359	11.27051
5.60972	-12.98556	11.27051
5.61391	-13.00754	11.27051
5.61808	-13.00754	11.27051
5.62227	-13.02951	11.27051
5.62646	-13.05148	11.27051
5.63077	-13.07345	11.27051
5.63501	-13.09543	11.27051
5.63922	-13.11740	11.27051
5.64341	-13.11740	11.27051
5.64760	-13.11740	11.27051
5.65179	-13.13937	11.27051
5.65598	-13.16134	11.27051
5.66022	-13.18332	11.27051
5.66450	-13.20529	11.27051
5.66871	-13.20529	11.27051
5.67291	-13.22726	11.27051
5.67722	-13.24923	11.27051
5.68141	-13.27121	11.27051
5.68560	-13.27121	11.27051
5.68979	-13.29318	11.27051
5.69411	-13.31515	11.27051
5.69834	-13.31515	11.27051
5.70254	-13.33713	11.27051
5.70674	-13.35910	11.27051
5.71093	-13.38107	11.27051
5.71513	-13.40304	11.27051
5.71932	-13.42502	11.27051
5.72371	-13.42502	11.27051
5.72793	-13.44699	11.27051
5.73213	-13.44699	11.27051
5.73632	-13.49093	11.27051
5.74051	-13.49093	11.27051
5.74470	-13.51291	11.27051
5.74889	-13.53488	11.27051
5.75320	-13.53488	11.27051
5.75746	-13.55685	11.27051
5.76166	-13.57882	11.27051
5.76585	-13.60080	11.27051
5.77005	-13.62277	11.27051
5.77424	-13.64474	11.27051
5.77854	-13.64474	11.27051
5.78280	-13.64474	11.27051
5.78707	-13.68869	11.27051
5.79128	-13.68869	11.27051
5.79549	-13.71066	11.27051
5.79969	-13.71066	11.27051
5.80389	-13.73263	11.27051
5.80808	-13.75461	11.27051
5.81227	-13.77658	11.27051
5.81656	-13.79855	11.27051
5.82078	-13.82052	11.27051
5.82498	-13.84250	11.27051
5.82916	-13.84250	11.27051
5.83336	-13.86447	11.27051
5.83756	-13.86447	11.27051
5.84175	-13.88644	11.27051
5.84612	-13.90841	11.27051
5.85034	-13.93039	11.27051
5.85453	-13.95236	11.27051
5.85873	-13.95236	11.27051
5.86292	-13.97433	11.27051
5.86711	-13.97433	11.27051
5.87130	-13.99631	11.27051
5.87561	-14.01828	11.27051
5.87997	-14.04025	11.27051
5.88416	-14.04025	11.27051
5.88837	-14.06222	11.27051
5.89256	-14.08420	11.27051
5.89677	-14.10617	11.27051
5.90097	-14.10617	11.27051
5.90523	-14.12814	11.27051
5.90950	-14.15011	11.27051
5.91371	-14.15011	11.27051
5.91790	-14.17209	11.27051
5.92208	-14.19406	11.27051
5.92627	-14.21603	11.27051
5.93047	-14.21603	11.27051
5.93466	-14.21603	11.27051
5.93894	-14.23800	11.27051
5.94316	-14.23800	11.27051
5.94735	-14.28195	11.27051
5.95154	-14.28195	11.27051
5.95573	-14.30392	11.27051
5.95992	-14.32589	11.27051
5.96411	-14.32589	11.27051
5.96848	-14.32589	11.27051
5.97272	-14.34787	11.27051
5.97693	-14.36984	11.27051
5.98125	-14.39181	11.27051
5.98544	-14.39181	11.27051
5.98963	-14.41379	11.27051
5.99382	-14.41379	11.27051
5.99817	-14.43576	11.27051
6.00243	-14.43576	11.27051
6.00664	-14.45773	11.27051
6.01084	-14.45773	11.27051
6.01503	-14.47970	11.27051
6.01922	-14.47970	11.27051
6.02341	-14.50168	11.27051
6.02765	-14.52365	11.27051
6.03191	-14.52365	11.27051
6.03612	-14.54562	11.27051
6.04033	-14.54562	11.27051
6.04452	-14.54562	11.27051
6.04871	-14.56759	11.27051
6.05290	-14.58957	11.27051
6.05709	-14.58957	11.27051
6.06138	-14.61154	11.27051
6.06559	-14.61154	11.27051
6.06978	-14.61154	11.27051
6.07399	-14.63351	11.27051
6.07818	-14.63351	11.27051
6.08248	-14.65548	11.27051
6.08667	-14.67746	11.27051
6.09103	-14.67746	11.27051
6.09527	-14.67746	11.27051
6.09947	-14.67746	11.27051
6.10368	-14.69943	11.27051
6.10788	-14.69943	11.27051
6.11207	-14.72140	11.27051
6.11626	-14.72140	11.27051
6.12057	-14.74338	11.27051
6.12482	-14.74338	11.27051
6.12902	-14.74338	11.27051
6.13321	-14.76535	11.27051
6.13740	-14.76535	11.27051
6.14159	-14.76535	11.27051
6.14577	-14.76535	11.27051
6.15003	-14.78732	11.27051
6.15429	-14.78732	11.27051
6.15849	-14.80929	11.27051
6.16268	-14.80929	11.27051
6.16687	-14.83127	11.27051
6.17105	-14.83127	11.27051
6.17524	-14.83127	11.27051
6.17942	-14.83127	11.27051
6.18380	-14.85324	11.27051
6.18801	-14.85324	11.27051
6.19220	-14.85324	11.27051
6.19641	-14.87521	11.27051
6.20060	-14.87521	11.27051
6.20479	-14.87521	11.27051
6.20898	-14.87521	11.27051
6.21340	-14.89718	11.27051
6.21762	-14.89718	11.27051
6.22182	-14.89718	11.27051
6.22602	-14.89718	11.27051
6.23021	-14.89718	11.27051
6.23439	-14.89718	11.27051
6.23858	-14.91916	11.27051
6.24284	-14.91916	11.27051
6.24709	-14.91916	11.27051
6.25128	-14.91916	11.27051
6.25548	-14.91916	11.27051
6.25968	-14.91916	11.27051
6.26386	-14.94113	11.27051
6.26805	-14.94113	11.27051
6.27231	-14.94113	11.27051
6.27657	-14.94113	11.27051
6.28077	-14.94113	11.27051
6.28507	-14.94113	11.27051
6.28925	-14.96310	11.27051
6.29344	-14.96310	11.27051
6.29764	-14.96310	11.27051
6.30183	-14.96310	11.27051
6.30613	-14.96310	11.27051
6.31034	-14.96310	11.27051
6.31453	-14.96310	11.27051
6.31871	-14.96310	11.27051
6.32290	-14.96310	11.27051
6.32709	-14.96310	11.27051
6.33127	-14.96310	11.27051
6.33576	-14.96310	11.27051
6.34000	-14.96310	11.27051
6.34420	-14.96310	11.27051
6.34838	-14.96310	11.27051
6.35257	-14.96310	11.27051
6.35675	-14.96310	11.27051
6.36094	-14.96310	11.27051
6.36520	-14.96310	11.27051
6.36945	-14.96310	11.27051
6.37365	-14.96310	11.27051
6.37783	-14.96310	11.27051
6.38203	-14.96310	11.27051
6.38632	-14.96310	11.27051
6.39050	-14.96310	11.27051
6.39476	-14.96310	11.27051
6.39904	-14.96310	11.27051
6.40325	-14.96310	11.27051
6.40745	-14.96310	11.27051
6.41164	-14.96310	11.27051
6.41582	-14.96310	11.27051
6.42000	-14.96310	11.27051
6.42419	-14.96310	11.27051
6.42849	-14.96310	11.27051
6.43275	-14.96310	11.27051
6.43695	-14.96310	11.27051
6.44114	-14.96310	11.27051
6.44534	-14.96310	11.27051
6.44953	-14.96310	11.27051
6.45371	-14.96310	11.27051
6.45815	-14.94113	11.27051
6.46236	-14.94113	11.27051
6.46655	-14.94113	11.27051
6.47074	-14.94113	11.27051
6.47499	-14.94113	11.27051
6.47918	-14.94113	11.27051
6.48337	-14.91916	11.27051
6.48777	-14.91916	11.27051
6.49202	-14.91916	11.27051
6.49624	-14.91916	11.27051
6.50044	-14.91916	11.27051
6.50464	-14.91916	11.27051
6.50884	-14.91916	11.27051
6.51303	-14.91916	11.27051
6.51730	-14.89718	11.27051
6.52157	-14.89718	11.27051
6.52578	-14.89718	11.27051
6.52998	-14.89718	11.27051
6.53417	-14.89718	11.27051
6.53836	-14.87521	11.27051
6.54255	-14.87521	11.27051
6.54675	-14.87521	11.27051
6.55104	-14.87521	11.27051
6.55526	-14.87521	11.27051
6.55945	-14.85324	11.27051
6.56364	-14.85324	11.27051
6.56783	-14.85324	11.27051
6.57202	-14.85324	11.27051
6.57621	-14.83127	11.27051
6.58057	-14.83127	11.27051
6.58479	-14.83127	11.27051
6.58911	-14.80929	11.27051
6.59330	-14.80929	11.27051
6.59751	-14.80929	11.27051
6.60171	-14.80929	11.27051
6.60590	-14.80929	11.27051
6.61021	-14.78732	11.27051
6.61445	-14.78732	11.27051
6.61865	-14.78732	11.27051
6.62284	-14.76535	11.27051
6.62704	-14.76535	11.27051
6.63123	-14.76535	11.27051
6.63542	-14.76535	11.27051
6.63966	-14.74338	11.27051
6.64392	-14.74338	11.27051
6.64813	-14.74338	11.27051
6.65232	-14.74338	11.27051
6.65652	-14.72140	11.27051
6.66071	-14.72140	11.27051
6.66490	-14.72140	11.27051
6.66908	-14.72140	11.27051
6.67338	-14.69943	11.27051
6.67759	-14.67746	11.27051
6.68178	-14.67746	11.27051
6.68598	-14.67746	11.27051
6.69028	-14.67746	11.27051
6.69447	-14.65548	11.27051
6.69868	-14.65548	11.27051
6.70307	-14.65548	11.27051
6.70729	-14.65548	11.27051
6.71149	-14.65548	11.27051
6.71568	-14.63351	11.27051
6.71987	-14.63351	11.27051
6.72406	-14.61154	11.27051
6.72826	-14.61154	11.27051
6.73257	-14.61154	11.27051
6.73682	-14.61154	11.27051
6.74102	-14.58957	11.27051
6.74521	-14.58957	11.27051
6.74942	-14.58957	11.27051
6.75361	-14.58957	11.27051
6.75780	-14.56759	11.27051
6.76205	-14.56759	11.27051
6.76632	-14.56759	11.27051
6.77053	-14.54562	11.27051
6.77473	-14.54562	11.27051
6.77892	-14.54562	11.27051
6.78311	-14.52365	11.27051
6.78730	-14.52365	11.27051
6.79161	-14.52365	11.27051
6.79594	-14.50168	11.27051
6.80021	-14.50168	11.27051
6.80441	-14.50168	11.27051
6.80861	-14.47970	11.27051
6.81280	-14.47970	11.27051
6.81699	-14.47970	11.27051
6.82118	-14.47970	11.27051
6.82556	-14.45773	11.27051
6.82978	-14.45773	11.27051
6.83399	-14.45773	11.27051
6.83818	-14.45773	11.27051
6.84237	-14.45773	11.27051
6.84656	-14.43576	11.27051
6.85076	-14.43576	11.27051
6.85508	-14.43576	11.27051
6.85932	-14.41379	11.27051
6.86352	-14.41379	11.27051
6.86771	-14.41379	11.27051
6.87190	-14.39181	11.27051
6.87609	-14.39181	11.27051
6.88028	-14.39181	11.27051
6.88452	-14.36984	11.27051
6.88878	-14.36984	11.27051
6.89310	-14.36984	11.27051
6.89731	-14.36984	11.27051
6.90151	-14.36984	11.27051
6.90571	-14.34787	11.27051
6.90990	-14.34787	11.27051
6.91409	-14.32589	11.27051
6.91838	-14.32589	11.27051
6.92261	-14.34787	11.27051
6.92681	-14.32589	11.27051
6.93100	-14.32589	11.27051
6.93519	-14.30392	11.27051
6.93938	-14.30392	11.27051
6.94357	-14.30392	11.27051
6.94794	-14.30392	11.27051
6.95216	-14.30392	11.27051
6.95636	-14.28195	11.27051
6.96055	-14.28195	11.27051
6.96474	-14.25998	11.27051
6.96893	-14.28195	11.27051
6.97313	-14.28195	11.27051
6.97747	-14.25998	11.27051
6.98173	-14.25998	11.27051
6.98595	-14.23800	11.27051
6.99014	-14.23800	11.27051
6.99444	-14.23800	11.27051
6.99865	-14.23800	11.27051
7.00284	-14.23800	11.27051
7.00710	-14.23800	11.27051
7.01137	-14.21603	11.27051
7.01558	-14.21603	11.27051
7.01977	-14.21603	11.27051
7.02396	-14.21603	11.27051
7.02815	-14.21603	11.27051
7.03234	-14.19406	11.27051
7.03653	-14.19406	11.27051
7.04082	-14.19406	11.27051
7.04503	-14.19406	11.27051
7.04923	-14.17209	11.27051
7.05342	-14.17209	11.27051
7.05761	-14.17209	11.27051
7.06180	-14.17209	11.27051
7.06600	-14.17209	11.27051
7.07035	-14.15011	11.27051
7.07457	-14.15011	11.27051
7.07876	-14.15011	11.27051
7.08295	-14.15011	11.27051
7.08714	-14.15011	11.27051
7.09133	-14.12814	11.27051
7.09563	-14.12814	11.27051
7.09997	-14.15011	11.27051
7.10424	-14.15011	11.27051
7.10844	-14.12814	11.27051
7.11264	-14.12814	11.27051
7.11683	-14.12814	11.27051
7.12103	-14.12814	11.27051
7.12523	-14.12814	11.27051
7.12948	-14.12814	11.27051
7.13374	-14.12814	11.27051
7.13797	-14.10617	11.27051
7.14217	-14.10617	11.27051
7.14636	-14.10617	11.27051
7.15056	-14.10617	11.27051
7.15475	-14.10617	11.27051
7.15894	-14.10617	11.27051
7.16322	-14.08420	11.27051
7.16744	-14.08420	11.27051
7.17163	-14.08420	11.27051
7.17583	-14.08420	11.27051
7.18002	-14.08420	11.27051
7.18421	-14.08420	11.27051
7.18840	-14.08420	11.27051
7.19274	-14.06222	11.27051
7.19710	-14.08420	11.27051
7.20130	-14.08420	11.27051
7.20551	-14.06222	11.27051
7.20970	-14.06222	11.27051
7.21390	-14.08420	11.27051
7.21808	-14.06222	11.27051
7.22238	-14.06222	11.27051
7.22663	-14.06222	11.27051
7.23084	-14.06222	11.27051
7.23503	-14.06222	11.27051
7.23923	-14.06222	11.27051
7.24342	-14.06222	11.27051
7.24761	-14.06222	11.27051
7.25186	-14.06222	11.27051
7.25613	-14.06222	11.27051
7.26034	-14.04025	11.27051
7.26453	-14.06222	11.27051
7.26872	-14.06222	11.27051
7.27291	-14.04025	11.27051
7.27710	-14.04025	11.27051
7.28129	-14.04025	11.27051
7.28558	-14.04025	11.27051
7.28980	-14.04025	11.27051
7.29400	-14.04025	11.27051
7.29834	-14.04025	11.27051
7.30253	-14.04025	11.27051
7.30672	-14.04025	11.27051
7.31091	-14.04025	11.27051
7.31529	-14.04025	11.27051
7.31951	-14.04025	11.27051
7.32370	-14.04025	11.27051
7.32790	-14.04025	11.27051
7.33212	-14.04025	11.27051
7.33632	-14.04025	11.27051
7.34051	-14.04025	11.27051
7.34482	-14.04025	11.27051
7.34907	-14.04025	11.27051
7.35328	-14.04025	11.27051
7.35748	-14.04025	11.27051
7.36167	-14.04025	11.27051
7.36586	-14.04025	11.27051
7.37006	-14.04025	11.27051
7.37431	-14.04025	11.27051
7.37858	-14.04025	11.27051
7.38279	-14.04025	11.27051
7.38698	-14.04025	11.27051
7.39118	-14.04025	11.27051
7.39537	-14.04025	11.27051
7.39970	-14.04025	11.27051
7.40390	-14.04025	11.27051
7.40820	-14.04025	11.27051
7.41242	-14.04025	11.27051
7.41661	-14.04025	11.27051
7.42080	-14.04025	11.27051
7.42500	-14.04025	11.27051
7.42919	-14.04025	11.27051
7.43341	-14.04025	11.27051
7.43784	-14.04025	11.27051
7.44207	-14.04025	11.27051
7.44627	-14.04025	11.27051
7.45045	-14.04025	11.27051
7.45464	-14.04025	11.27051
7.45883	-14.04025	11.27051
7.46301	-14.04025	11.27051
7.46728	-14.04025	11.27051
7.47154	-14.04025	11.27051
7.47580	-14.04025	11.27051
7.48000	-14.04025	11.27051
7.48419	-14.04025	11.27051
7.48838	-14.04025	11.27051
7.49257	-14.04025	11.27051
7.49684	-14.04025	11.27051
7.50122	-14.04025	11.27051
7.50543	-14.04025	11.27051
7.50962	-14.04025	11.27051
7.51382	-14.04025	11.27051
7.51801	-14.04025	11.27051
7.52220	-14.04025	11.27051
7.52639	-14.06222	11.27051
7.53067	-14.06222	11.27051
7.53488	-14.06222	11.27051
7.53907	-14.06222	11.27051
7.54325	-14.06222	11.27051
7.54744	-14.06222	11.27051
7.55162	-14.06222	11.27051
7.55581	-14.06222	11.27051
7.56019	-14.06222	11.27051
7.56441	-14.06222	11.27051
7.56860	-14.06222	11.27051
7.57279	-14.06222	11.27051
7.57699	-14.08420	11.27051
7.58118	-14.08420	11.27051
7.58536	-14.08420	11.27051
7.58963	-14.08420	11.27051
7.59387	-14.08420	11.27051
7.59809	-14.08420	11.27051
7.60239	-14.08420	11.27051
7.60658	-14.08420	11.27051
7.61076	-14.08420	11.27051
7.61495	-14.08420	11.27051
7.61920	-14.10617	11.27051
7.62347	-14.10617	11.27051
7.62767	-14.10617	11.27051
7.63186	-14.10617	11.27051
7.63604	-14.10617	11.27051
7.64022	-14.10617	11.27051
7.64441	-14.10617	11.27051
7.64859	-14.12814	11.27051
7.65288	-14.12814	11.27051
7.65709	-14.12814	11.27051
7.66128	-14.12814	11.27051
7.66546	-14.12814	11.27051
7.66965	-14.12814	11.27051
7.67383	-14.15011	11.27051
7.67802	-14.15011	11.27051
7.68239	-14.15011	11.27051
7.68661	-14.15011	11.27051
7.69081	-14.15011	11.27051
7.69499	-14.17209	11.27051
7.69920	-14.17209	11.27051
7.70349	-14.17209	11.27051
7.70768	-14.17209	11.27051
7.71194	-14.17209	11.27051
7.71620	-14.17209	11.27051
7.72041	-14.19406	11.27051
7.72461	-14.19406	11.27051
7.72881	-14.19406	11.27051
7.73300	-14.19406	11.27051
7.73719	-14.21603	11.27051
7.74144	-14.21603	11.27051
7.74569	-14.21603	11.27051
7.74990	-14.21603	11.27051
7.75410	-14.21603	11.27051
7.75828	-14.23800	11.27051
7.76247	-14.23800	11.27051
7.76665	-14.23800	11.27051
7.77083	-14.23800	11.27051
7.77511	-14.25998	11.27051
7.77932	-14.25998	11.27051
7.78350	-14.25998	11.27051
7.78769	-14.25998	11.27051
7.79187	-14.25998	11.27051
7.79606	-14.25998	11.27051
7.80028	-14.28195	11.27051
7.80481	-14.28195	11.27051
7.80902	-14.30392	11.27051
7.81321	-14.28195	11.27051
7.81739	-14.30392	11.27051
7.82158	-14.30392	11.27051
7.82576	-14.30392	11.27051
7.82996	-14.30392	11.27051
7.83422	-14.32589	11.27051
7.83846	-14.30392	11.27051
7.84266	-14.30392	11.27051
7.84684	-14.32589	11.27051
7.85103	-14.34787	11.27051
7.85522	-14.34787	11.27051
7.85941	-14.34787	11.27051
7.86366	-14.36984	11.27051
7.86791	-14.36984	11.27051
7.87212	-14.36984	11.27051
7.87631	-14.36984	11.27051
7.88049	-14.39181	11.27051
7.88467	-14.39181	11.27051
7.88886	-14.39181	11.27051
7.89304	-14.41379	11.27051
7.89736	-14.41379	11.27051
7.90158	-14.41379	11.27051
7.90588	-14.41379	11.27051
7.91007	-14.41379	11.27051
7.91426	-14.43576	11.27051
7.91844	-14.43576	11.27051
7.92263	-14.43576	11.27051
7.92701	-14.43576	11.27051
7.93123	-14.45773	11.27051
7.93542	-14.45773	11.27051
7.93961	-14.47970	11.27051
7.94381	-14.47970	11.27051
7.94799	-14.50168	11.27051
7.95218	-14.50168	11.27051
7.95646	-14.50168	11.27051
7.96070	-14.50168	11.27051
7.96489	-14.52365	11.27051
7.96908	-14.52365	11.27051
7.97326	-14.54562	11.27051
7.97747	-14.54562	11.27051
7.98167	-14.54562	11.27051
7.98592	-14.56759	11.27051
7.99015	-14.56759	11.27051
7.99436	-14.56759	11.27051
7.99857	-14.58957	11.27051
8.00277	-14.58957	11.27051
8.00706	-14.58957	11.27051
8.01125	-14.61154	11.27051
8.01543	-14.61154	11.27051
8.01971	-14.61154	11.27051
8.02392	-14.63351	11.27051
8.02811	-14.63351	11.27051
8.03230	-14.65548	11.27051
8.03648	-14.65548	11.27051
8.04066	-14.65548	11.27051
8.04485	-14.65548	11.27051
8.04922	-14.67746	11.27051
8.05344	-14.67746	11.27051
8.05764	-14.67746	11.27051
8.06183	-14.69943	11.27051
8.06602	-14.69943	11.27051
8.07020	-14.69943	11.27051
8.07438	-14.72140	11.27051
8.07864	-14.72140	11.27051
8.08293	-14.72140	11.27051
8.08713	-14.74338	11.27051
8.09132	-14.74338	11.27051
8.09551	-14.74338	11.27051
8.09971	-14.76535	11.27051
8.10390	-14.76535	11.27051
8.10829	-14.76535	11.27051
8.11254	-14.76535	11.27051
8.11674	-14.78732	11.27051
8.12093	-14.78732	11.27051
8.12512	-14.78732	11.27051
8.12931	-14.80929	11.27051
8.13349	-14.80929	11.27051
8.13767	-14.80929	11.27051
8.14197	-14.83127	11.27051
8.14618	-14.83127	11.27051
8.15037	-14.83127	11.27051
8.15456	-14.85324	11.27051
8.15875	-14.85324	11.27051
8.16293	-14.85324	11.27051
8.16711	-14.85324	11.27051
8.17151	-14.85324	11.27051
8.17572	-14.87521	11.27051
8.17991	-14.87521	11.27051
8.18409	-14.87521	11.27051
8.18828	-14.87521	11.27051
8.19246	-14.89718	11.27051
8.19665	-14.89718	11.27051
8.20094	-14.91916	11.27051
8.20521	-14.91916	11.27051
8.20951	-14.91916	11.27051
8.21371	-14.94113	11.27051
8.21790	-14.94113	11.27051
8.22208	-14.91916	11.27051
8.22626	-14.94113	11.27051
8.23053	-14.94113	11.27051
8.23480	-14.96310	11.27051
8.23900	-14.96310	11.27051
8.24319	-14.94113	11.27051
8.24738	-14.96310	11.27051
8.25156	-14.96310	11.27051
8.25575	-14.96310	11.27051
8.25994	-14.96310	11.27051
8.26423	-14.96310	11.27051
8.26844	-14.96310	11.27051
8.27267	-14.98507	11.27051
8.27686	-14.98507	11.27051
8.28105	-14.98507	11.27051
8.28524	-15.00705	11.27051
8.28942	-15.00705	11.27051
8.29410	-15.00705	11.27051
8.29833	-15.00705	11.27051
8.30252	-15.00705	11.27051
8.30672	-15.02902	11.27051
8.31101	-15.00705	11.27051
8.31519	-15.02902	11.27051
8.31938	-15.02902	11.27051
8.32364	-15.02902	11.27051
8.32791	-15.02902	11.27051
8.33214	-15.02902	11.27051
8.33633	-15.02902	11.27051
8.34052	-15.02902	11.27051
8.34470	-15.02902	11.27051
8.34889	-15.02902	11.27051
8.35314	-15.05099	11.27051
8.35742	-15.05099	11.27051
8.36163	-15.05099	11.27051
8.36582	-15.05099	11.27051
8.37001	-15.05099	11.27051
8.37419	-15.05099	11.27051
8.37838	-15.05099	11.27051
8.38256	-15.05099	11.27051
8.38686	-15.05099	11.27051
8.39109	-15.05099	11.27051
8.39528	-15.05099	11.27051
8.39948	-15.05099	11.27051
8.40367	-15.05099	11.27051
8.40786	-15.05099	11.27051
8.41214	-15.05099	11.27051
8.41657	-15.05099	11.27051
8.42078	-15.05099	11.27051
8.42496	-15.05099	11.27051
8.42915	-15.05099	11.27051
8.43335	-15.05099	11.27051
8.43755	-15.05099	11.27051
8.44174	-15.05099	11.27051
8.44604	-15.05099	11.27051
8.45031	-15.05099	11.27051
8.45452	-15.05099	11.27051
8.45870	-15.05099	11.27051
8.46289	-15.05099	11.27051
8.46708	-15.05099	11.27051
8.47126	-15.05099	11.27051
8.47552	-15.05099	11.27051
8.47982	-15.05099	11.27051
8.48403	-15.05099	11.27051
8.48822	-15.05099	11.27051
8.49241	-15.05099	11.27051
8.49660	-15.05099	11.27051
8.50080	-15.02902	11.27051
8.50499	-15.02902	11.27051
8.50928	-15.02902	11.27051
8.51359	-15.02902	11.27051
8.51778	-15.02902	11.27051
8.52197	-15.00705	11.27051
8.52616	-15.02902	11.27051
8.53035	-15.00705	11.27051
8.53453	-15.00705	11.27051
8.53884	-15.00705	11.27051
8.54308	-15.00705	11.27051
8.54727	-15.00705	11.27051
8.55145	-15.00705	11.27051
8.55564	-15.00705	11.27051
8.55983	-14.98507	11.27051
8.56401	-14.98507	11.27051
8.56828	-14.98507	11.27051
8.57253	-14.98507	11.27051
8.57673	-14.98507	11.27051
8.58091	-14.96310	11.27051
8.58509	-14.96310	11.27051
8.58928	-14.96310	11.27051
8.59347	-14.96310	11.27051
8.59771	-14.96310	11.27051
8.60203	-14.96310	11.27051
8.60625	-14.94113	11.27051
8.61044	-14.94113	11.27051
8.61473	-14.94113	11.27051
8.61891	-14.94113	11.27051
8.62310	-14.91916	11.27051
8.62728	-14.94113	11.27051
8.63157	-14.91916	11.27051
8.63578	-14.91916	11.27051
8.64000	-14.91916	11.27051
8.64419	-14.91916	11.27051
8.64837	-14.91916	11.27051
8.65256	-14.89718	11.27051
8.65674	-14.89718	11.27051
8.66114	-14.89718	11.27051
8.66535	-14.89718	11.27051
8.66954	-14.87521	11.27051
8.67372	-14.87521	11.27051
8.67791	-14.87521	11.27051
8.68208	-14.85324	11.27051
8.68626	-14.87521	11.27051
8.69053	-14.87521	11.27051
8.69478	-14.85324	11.27051
8.69900	-14.85324	11.27051
8.70320	-14.85324	11.27051
8.70739	-14.83127	11.27051
8.71158	-14.83127	11.27051
8.71587	-14.83127	11.27051
8.72012	-14.83127	11.27051
8.72441	-14.83127	11.27051
8.72860	-14.80929	11.27051
8.73279	-14.80929	11.27051
8.73698	-14.80929	11.27051
8.74116	-14.78732	11.27051
8.74535	-14.78732	11.27051
8.74953	-14.78732	11.27051
8.75383	-14.78732	11.27051
8.75804	-14.78732	11.27051
8.76223	-14.78732	11.27051
8.76642	-14.76535	11.27051
8.77060	-14.76535	11.27051
8.77479	-14.76535	11.27051
8.77897	-14.76535	11.27051
8.78336	-14.76535	11.27051
8.78757	-14.74338	11.27051
8.79176	-14.74338	11.27051
8.79594	-14.74338	11.27051
8.80015	-14.74338	11.27051
8.80434	-14.74338	11.27051
8.80854	-14.74338	11.27051
8.81281	-14.72140	11.27051
8.81717	-14.72140	11.27051
8.82138	-14.72140	11.27051
8.82557	-14.72140	11.27051
8.82975	-14.72140	11.27051
8.83394	-14.69943	11.27051
8.83813	-14.69943	11.27051
8.84238	-14.69943	11.27051
8.84665	-14.69943	11.27051
8.85085	-14.69943	11.27051
8.85504	-14.67746	11.27051
8.85922	-14.67746	11.27051
8.86341	-14.67746	11.27051
8.86759	-14.67746	11.27051
8.87178	-14.67746	11.27051
8.87606	-14.67746	11.27051
8.88027	-14.65548	11.27051
8.88445	-14.65548	11.27051
8.88864	-14.65548	11.27051
8.89282	-14.65548	11.27051
8.89701	-14.63351	11.27051
8.90121	-14.63351	11.27051
8.90562	-14.65548	11.27051
8.90983	-14.63351	11.27051
8.91403	-14.63351	11.27051
8.91832	-14.63351	11.27051
8.92251	-14.63351	11.27051
8.92670	-14.63351	11.27051
8.93088	-14.63351	11.27051
8.93515	-14.61154	11.27051
8.93940	-14.61154	11.27051
8.94359	-14.61154	11.27051
8.94778	-14.58957	11.27051
8.95196	-14.58957	11.27051
8.95615	-14.58957	11.27051
8.96033	-14.58957	11.27051
8.96458	-14.58957	11.27051
8.96885	-14.58957	11.27051
8.97305	-14.58957	11.27051
8.97730	-14.56759	11.27051
8.98149	-14.56759	11.27051
8.98568	-14.56759	11.27051
8.98987	-14.56759	11.27051
8.99406	-14.54562	11.27051
8.99836	-14.56759	11.27051
9.00260	-14.54562	11.27051
9.00680	-14.54562	11.27051
9.01098	-14.54562	11.27051
9.01517	-14.54562	11.27051
9.01945	-14.54562	11.27051
9.02364	-14.54562	11.27051
9.02803	-14.54562	11.27051
9.03224	-14.52365	11.27051
9.03643	-14.52365	11.27051
9.04061	-14.52365	11.27051
9.04480	-14.54562	11.27051
9.04898	-14.52365	11.27051
9.05317	-14.52365	11.27051
9.05744	-14.52365	11.27051
9.06170	-14.52365	11.27051
9.06590	-14.52365	11.27051
9.07008	-14.52365	11.27051
9.07426	-14.50168	11.27051
9.07845	-14.52365	11.27051
9.08263	-14.50168	11.27051
9.08695	-14.50168	11.27051
9.09124	-14.50168	11.27051
9.09545	-14.50168	11.27051
9.09965	-14.50168	11.27051
9.10385	-14.50168	11.27051
9.10805	-14.50168	11.27051
9.11224	-14.50168	11.27051
9.11643	-14.50168	11.27051
9.12083	-14.50168	11.27051
9.12504	-14.50168	11.27051
9.12922	-14.50168	11.27051
9.13341	-14.47970	11.27051
9.13760	-14.47970	11.27051
9.14178	-14.47970	11.27051
9.14598	-14.47970	11.27051
9.15039	-14.47970	11.27051
9.15460	-14.47970	11.27051
9.15879	-14.47970	11.27051
9.16298	-14.47970	11.27051
9.16716	-14.47970	11.27051
9.17135	-14.47970	11.27051
9.17553	-14.47970	11.27051
9.17982	-14.47970	11.27051
9.18407	-14.47970	11.27051
9.18827	-14.47970	11.27051
9.19246	-14.47970	11.27051
9.19664	-14.47970	11.27051
9.20084	-14.47970	11.27051
9.20504	-14.45773	11.27051
9.20930	-14.47970	11.27051
9.21359	-14.47970	11.27051
9.21780	-14.47970	11.27051
9.22212	-14.47970	11.27051
9.22631	-14.47970	11.27051
9.23050	-14.47970	11.27051
9.23468	-14.47970	11.27051
9.23887	-14.47970	11.27051
9.24316	-14.47970	11.27051
9.24736	-14.47970	11.27051
9.25155	-14.47970	11.27051
9.25574	-14.47970	11.27051
9.25992	-14.47970	11.27051
9.26411	-14.47970	11.27051
9.26829	-14.47970	11.27051
9.27269	-14.45773	11.27051
9.27690	-14.45773	11.27051
9.28109	-14.47970	11.27051
9.28527	-14.47970	11.27051
9.28946	-14.47970	11.27051
9.29365	-14.47970	11.27051
9.29784	-14.47970	11.27051
9.30215	-14.47970	11.27051
9.30642	-14.47970	11.27051
9.31062	-14.47970	11.27051
9.31480	-14.47970	11.27051
9.31899	-14.47970	11.27051
9.32328	-14.47970	11.27051
9.32747	-14.47970	11.27051
9.33173	-14.47970	11.27051
9.33605	-14.47970	11.27051
9.34026	-14.47970	11.27051
9.34445	-14.47970	11.27051
9.34864	-14.47970	11.27051
9.35283	-14.47970	11.27051
9.35703	-14.50168	11.27051
9.36122	-14.50168	11.27051
9.36552	-14.47970	11.27051
9.36973	-14.47970	11.27051
9.37393	-14.50168	11.27051
9.37808	-14.50168	11.27051
9.38227	-14.50168	11.27051
9.38646	-14.50168	11.27051
9.39065	-14.50168	11.27051
9.39502	-14.50168	11.27051
9.39929	-14.50168	11.27051
9.40350	-14.50168	11.27051
9.40769	-14.50168	11.27051
9.41188	-14.50168	11.27051
9.41607	-14.50168	11.27051
9.42026	-14.52365	11.27051
9.42473	-14.50168	11.27051
9.42898	-14.50168	11.27051
9.43318	-14.50168	11.27051
9.43738	-14.50168	11.27051
9.44158	-14.50168	11.27051
9.44577	-14.52365	11.27051
9.44997	-14.52365	11.27051
9.45425	-14.52365	11.27051
9.45853	-14.52365	11.27051
9.46275	-14.52365	11.27051
9.46695	-14.52365	11.27051
9.47114	-14.52365	11.27051
9.47532	-14.52365	11.27051
9.47953	-14.52365	11.27051
9.48372	-14.52365	11.27051
9.48802	-14.52365	11.27051
9.49223	-14.52365	11.27051
9.49642	-14.52365	11.27051
9.50062	-14.52365	11.27051
9.50482	-14.54562	11.27051
9.50901	-14.52365	11.27051
9.51319	-14.52365	11.27051
9.51760	-14.54562	11.27051
9.52181	-14.54562	11.27051
9.52612	-14.52365	11.27051
9.53030	-14.54562	11.27051
9.53449	-14.54562	11.27051
9.53867	-14.54562	11.27051
9.54286	-14.54562	11.27051
9.54713	-14.54562	11.27051
9.55138	-14.54562	11.27051
9.55558	-14.54562	11.27051
9.55977	-14.54562	11.27051
9.56395	-14.54562	11.27051
9.56814	-14.54562	11.27051
9.57233	-14.54562	11.27051
9.57658	-14.54562	11.27051
9.58085	-14.54562	11.27051
9.58505	-14.54562	11.27051
9.58923	-14.56759	11.27051
9.59342	-14.56759	11.27051
9.59760	-14.54562	11.27051
9.60180	-14.54562	11.27051
9.60600	-14.56759	11.27051
9.61030	-14.54562	11.27051
9.61450	-14.56759	11.27051
9.61869	-14.56759	11.27051
9.62288	-14.54562	11.27051
9.62717	-14.56759	11.27051
9.63135	-14.54562	11.27051
9.63553	-14.56759	11.27051
9.63992	-14.56759	11.27051
9.64413	-14.54562	11.27051
9.64831	-14.56759	11.27051
9.65250	-14.56759	11.27051
9.65669	-14.56759	11.27051
9.66087	-14.56759	11.27051
9.66505	-14.56759	11.27051
9.66933	-14.56759	11.27051
9.67359	-14.56759	11.27051
9.67778	-14.56759	11.27051
9.68198	-14.56759	11.27051
9.68617	-14.56759	11.27051
9.69035	-14.56759	11.27051
9.69454	-14.56759	11.27051
9.69879	-14.56759	11.27051
9.70308	-14.56759	11.27051
9.70729	-14.56759	11.27051
9.71148	-14.56759	11.27051
9.71567	-14.56759	11.27051
9.71986	-14.56759	11.27051
9.72404	-14.56759	11.27051
9.72833	-14.56759	11.27051
9.73262	-14.56759	11.27051
9.73683	-14.56759	11.27051
9.74102	-14.56759	11.27051
9.74520	-14.56759	11.27051
9.74939	-14.56759	11.27051
9.75357	-14.56759	11.27051
9.75776	-14.56759	11.27051
9.76216	-14.56759	11.27051
9.76637	-14.56759	11.27051
9.77055	-14.56759	11.27051
9.77474	-14.56759	11.27051
9.77893	-14.56759	11.27051
9.78311	-14.56759	11.27051
9.78729	-14.56759	11.27051
9.79157	-14.56759	11.27051
9.79582	-14.54562	11.27051
9.80003	-14.56759	11.27051
9.80423	-14.56759	11.27051
9.80842	-14.56759	11.27051
9.81260	-14.54562	11.27051
9.81680	-14.56759	11.27051
9.82106	-14.54562	11.27051
9.82534	-14.56759	11.27051
9.82964	-14.54562	11.27051
9.83383	-14.54562	11.27051
9.83803	-14.56759	11.27051
9.84222	-14.56759	11.27051
9.84641	-14.54562	11.27051
9.85060	-14.54562	11.27051
9.85491	-14.54562	11.27051
9.85912	-14.54562	11.27051
9.86332	-14.54562	11.27051
9.86751	-14.54562	11.27051
9.87169	-14.54562	11.27051
9.87588	-14.56759	11.27051
9.88006	-14.56759	11.27051
9.88447	-14.54562	11.27051
9.88868	-14.54562	11.27051
9.89287	-14.54562	11.27051
9.89706	-14.54562	11.27051
9.90126	-14.54562	11.27051
9.90546	-14.54562	11.27051
9.90966	-14.54562	11.27051
9.91392	-14.54562	11.27051
9.91816	-14.54562	11.27051
9.92236	-14.54562	11.27051
9.92655	-14.54562	11.27051
9.93084	-14.54562	11.27051
9.93502	-14.54562	11.27051
9.93921	-14.54562	11.27051
9.94346	-14.54562	11.27051
9.94773	-14.54562	11.27051
9.95193	-14.54562	11.27051
9.95612	-14.54562	11.27051
9.96030	-14.54562	11.27051
9.96449	-14.54562	11.27051
9.96867	-14.54562	11.27051
9.97286	-14.54562	11.27051
9.97715	-14.54562	11.27051
9.98137	-14.54562	11.27051
9.98556	-14.54562	11.27051
9.98975	-14.54562	11.27051
9.99395	-14.54562	11.27051
9.99813	-14.54562	11.27051
10.00233	-14.54562	11.27051
10.00674	-14.54562	11.27051
10.01095	-14.54562	11.27051
10.01513	-14.54562	11.27051
10.01932	-14.54562	11.27051
10.02350	-14.54562	11.27051
10.02769	-14.54562	11.27051
10.03198	-14.54562	11.27051
10.03625	-14.54562	11.27051
10.04050	-14.54562	11.27051
10.04469	-14.54562	11.27051
10.04887	-14.54562	11.27051
10.05306	-14.54562	11.27051
10.05725	-14.54562	11.27051
10.06143	-14.54562	11.27051
10.06568	-14.54562	11.27051
10.06998	-14.54562	11.27051
10.07418	-14.54562	11.27051
10.07837	-14.54562	11.27051
10.08256	-14.54562	11.27051
10.08674	-14.54562	11.27051
10.09093	-14.54562	11.27051
10.09511	-14.54562	11.27051
10.09940	-14.54562	11.27051
10.10362	-14.54562	11.27051
10.10782	-14.52365	11.27051
10.11202	-14.54562	11.27051
10.11620	-14.54562	11.27051
10.12039	-14.52365	11.27051
10.12458	-14.52365	11.27051
10.12898	-14.52365	11.27051
10.13330	-14.52365	11.27051
10.13749	-14.52365	11.27051
10.14167	-14.52365	11.27051
10.14586	-14.52365	11.27051
10.15005	-14.52365	11.27051
10.15424	-14.52365	11.27051
10.15851	-14.52365	11.27051
10.16276	-14.52365	11.27051
10.16695	-14.52365	11.27051
10.17115	-14.52365	11.27051
10.17534	-14.52365	11.27051
10.17952	-14.52365	11.27051
10.18370	-14.52365	11.27051
10.18795	-14.50168	11.27051
10.19222	-14.50168	11.27051
10.19642	-14.50168	11.27051
10.20063	-14.52365	11.27051
10.20485	-14.50168	11.27051
10.20908	-14.50168	11.27051
10.21328	-14.50168	11.27051
10.21747	-14.50168	11.27051
10.22178	-14.50168	11.27051
10.22600	-14.50168	11.27051
10.23019	-14.50168	11.27051
10.23448	-14.50168	11.27051
10.23867	-14.50168	11.27051
10.24285	-14.50168	11.27051
10.24704	-14.50168	11.27051
10.25146	-14.50168	11.27051
10.25567	-14.50168	11.27051
10.25987	-14.50168	11.27051
10.26406	-14.50168	11.27051
10.26824	-14.50168	11.27051
10.27244	-14.47970	11.27051
10.27662	-14.47970	11.27051
10.28090	-14.50168	11.27051
10.28515	-14.47970	11.27051
10.28935	-14.50168	11.27051
10.29353	-14.50168	11.27051
10.29772	-14.47970	11.27051
10.30192	-14.47970	11.27051
10.30608	-14.47970	11.27051
10.31034	-14.47970	11.27051
10.31461	-14.47970	11.27051
10.31881	-14.47970	11.27051
10.32300	-14.47970	11.27051
10.32719	-14.47970	11.27051
10.33138	-14.47970	11.27051
10.33572	-14.47970	11.27051
10.33992	-14.47970	11.27051
10.34423	-14.47970	11.27051
10.34844	-14.47970	11.27051
10.35264	-14.47970	11.27051
10.35683	-14.47970	11.27051
10.36102	-14.47970	11.27051
10.36521	-14.47970	11.27051
10.36940	-14.47970	11.27051
10.37376	-14.47970	11.27051
10.37798	-14.45773	11.27051
10.38218	-14.45773	11.27051
10.38637	-14.47970	11.27051
10.39056	-14.45773	11.27051
10.39475	-14.45773	11.27051
10.39894	-14.47970	11.27051
10.40329	-14.47970	11.27051
10.40756	-14.47970	11.27051
10.41175	-14.47970	11.27051
10.41594	-14.45773	11.27051
10.42013	-14.47970	11.27051
10.42432	-14.47970	11.27051
10.42852	-14.45773	11.27051
10.43279	-14.45773	11.27051
10.43720	-14.45773	11.27051
10.44141	-14.45773	11.27051
10.44560	-14.45773	11.27051
10.44978	-14.45773	11.27051
10.45398	-14.45773	11.27051
10.45816	-14.45773	11.27051
10.46235	-14.45773	11.27051
10.46665	-14.45773	11.27051
10.47085	-14.45773	11.27051
10.47504	-14.45773	11.27051
10.47925	-14.45773	11.27051
10.48344	-14.45773	11.27051
10.48763	-14.45773	11.27051
10.49182	-14.45773	11.27051
10.49623	-14.45773	11.27051
10.50044	-14.45773	11.27051
10.50466	-14.45773	11.27051
10.50886	-14.45773	11.27051
10.51306	-14.45773	11.27051
10.51725	-14.45773	11.27051
10.52145	-14.45773	11.27051
10.52576	-14.45773	11.27051
10.53004	-14.45773	11.27051
10.53423	-14.45773	11.27051
10.53852	-14.45773	11.27051
10.54271	-14.45773	11.27051
10.54689	-14.43576	11.27051
10.55107	-14.45773	11.27051
10.55533	-14.45773	11.27051
10.55960	-14.43576	11.27051
10.56380	-14.43576	11.27051
10.56799	-14.43576	11.27051
10.57217	-14.43576	11.27051
10.57636	-14.43576	11.27051
10.58055	-14.43576	11.27051
10.58473	-14.43576	11.27051
10.58902	-14.43576	11.27051
10.59323	-14.43576	11.27051
10.59741	-14.43576	11.27051
10.60162	-14.43576	11.27051
10.60581	-14.43576	11.27051
10.61001	-14.43576	11.27051
10.61420	-14.43576	11.27051
10.61859	-14.43576	11.27051
10.62279	-14.43576	11.27051
10.62698	-14.43576	11.27051
10.63117	-14.43576	11.27051
10.63535	-14.43576	11.27051
10.63964	-14.41379	11.27051
10.64383	-14.43576	11.27051
10.64810	-14.43576	11.27051
10.65236	-14.43576	11.27051
10.65655	-14.41379	11.27051
10.66074	-14.43576	11.27051
10.66492	-14.41379	11.27051
10.66911	-14.41379	11.27051
10.67329	-14.43576	11.27051
10.67754	-14.41379	11.27051
10.68181	-14.41379	11.27051
10.68603	-14.41379	11.27051
10.69022	-14.41379	11.27051
10.69440	-14.41379	11.27051
10.69859	-14.41379	11.27051
10.70279	-14.41379	11.27051
10.70698	-14.41379	11.27051
10.71128	-14.41379	11.27051
10.71548	-14.41379	11.27051
10.71967	-14.39181	11.27051
10.72386	-14.41379	11.27051
10.72805	-14.41379	11.27051
10.73223	-14.41379	11.27051
10.73642	-14.39181	11.27051
10.74090	-14.39181	11.27051
10.74511	-14.39181	11.27051
10.74930	-14.39181	11.27051
10.75348	-14.39181	11.27051
10.75767	-14.39181	11.27051
10.76185	-14.39181	11.27051
10.76604	-14.39181	11.27051
10.77032	-14.39181	11.27051
10.77457	-14.39181	11.27051
10.77876	-14.39181	11.27051
10.78295	-14.39181	11.27051
10.78714	-14.39181	11.27051
10.79132	-14.36984	11.27051
10.79551	-14.36984	11.27051
10.79976	-14.39181	11.27051
10.80409	-14.36984	11.27051
10.80831	-14.36984	11.27051
10.81252	-14.36984	11.27051
10.81671	-14.36984	11.27051
10.82091	-14.36984	11.27051
10.82510	-14.36984	11.27051
10.82929	-14.36984	11.27051
10.83359	-14.36984	11.27051
10.83781	-14.36984	11.27051
10.84212	-14.36984	11.27051
10.84631	-14.36984	11.27051
10.85050	-14.36984	11.27051
10.85470	-14.36984	11.27051
10.85888	-14.36984	11.27051
10.86324	-14.36984	11.27051
10.86745	-14.34787	11.27051
10.87165	-14.36984	11.27051
10.87584	-14.36984	11.27051
10.88003	-14.34787	11.27051
10.88422	-14.34787	11.27051
10.88841	-14.34787	11.27051
10.89273	-14.34787	11.27051
10.89699	-14.36984	11.27051
10.90123	-14.34787	11.27051
10.90543	-14.34787	11.27051
10.90962	-14.34787	11.27051
10.91380	-14.34787	11.27051
10.91800	-14.34787	11.27051
10.92226	-14.34787	11.27051
10.92653	-14.34787	11.27051
10.93073	-14.34787	11.27051
10.93491	-14.34787	11.27051
10.93910	-14.34787	11.27051
10.94338	-14.34787	11.27051
10.94757	-14.34787	11.27051
10.95175	-14.34787	11.27051
10.95604	-14.34787	11.27051
10.96025	-14.34787	11.27051
10.96444	-14.34787	11.27051
10.96863	-14.34787	11.27051
10.97281	-14.34787	11.27051
10.97700	-14.34787	11.27051
10.98120	-14.34787	11.27051
10.98575	-14.34787	11.27051
10.99004	-14.34787	11.27051
10.99424	-14.34787	11.27051
10.99844	-14.34787	11.27051
11.00264	-14.34787	11.27051
11.00684	-14.34787	11.27051
11.01103	-14.34787	11.27051
11.01531	-14.32589	11.27051
11.01959	-14.34787	11.27051
11.02379	-14.34787	11.27051
11.02798	-14.34787	11.27051
11.03216	-14.32589	11.27051
11.03635	-14.32589	11.27051
11.04053	-14.32589	11.27051
11.04491	-14.32589	11.27051
11.04918	-14.32589	11.27051
11.05338	-14.32589	11.27051
11.05757	-14.34787	11.27051
11.06176	-14.34787	11.27051
11.06596	-14.32589	11.27051
11.07014	-14.34787	11.27051
11.07433	-14.34787	11.27051
11.07862	-14.32589	11.27051
11.08282	-14.32589	11.27051
11.08701	-14.32589	11.27051
11.09120	-14.32589	11.27051
11.09538	-14.32589	11.27051
11.09956	-14.32589	11.27051
11.10377	-14.32589	11.27051
11.10818	-14.32589	11.27051
11.11239	-14.32589	11.27051
11.11658	-14.32589	11.27051
11.12077	-14.32589	11.27051
11.12495	-14.32589	11.27051
11.12914	-14.32589	11.27051
11.13332	-14.34787	11.27051
11.13759	-14.32589	11.27051
11.14185	-14.32589	11.27051
11.14615	-14.32589	11.27051
11.15034	-14.32589	11.27051
11.15453	-14.34787	11.27051
11.15871	-14.34787	11.27051
11.16290	-14.34787	11.27051
11.16716	-14.34787	11.27051
11.17143	-14.32589	11.27051
11.17562	-14.32589	11.27051
11.17982	-14.34787	11.27051
11.18401	-14.34787	11.27051
11.18819	-14.34787	11.27051
11.19238	-14.34787	11.27051
11.19656	-14.34787	11.27051
11.20086	-14.34787	11.27051
11.20509	-14.34787	11.27051
11.20929	-14.34787	11.27051
11.21349	-14.34787	11.27051
11.21769	-14.34787	11.27051
11.22188	-14.34787	11.27051
11.22607	-14.34787	11.27051
11.23051	-14.34787	11.27051
11.23472	-14.34787	11.27051
11.23892	-14.34787	11.27051
11.24310	-14.34787	11.27051
11.24740	-14.36984	11.27051
11.25158	-14.36984	11.27051
11.25577	-14.36984	11.27051
11.26002	-14.36984	11.27051
11.26430	-14.36984	11.27051
11.26850	-14.36984	11.27051
11.27269	-14.36984	11.27051
11.27687	-14.36984	11.27051
11.28107	-14.36984	11.27051
11.28525	-14.36984	11.27051
11.28951	-14.39181	11.27051
11.29378	-14.36984	11.27051
11.29799	-14.39181	11.27051
11.30220	-14.39181	11.27051
11.30640	-14.39181	11.27051
11.31058	-14.39181	11.27051
11.31477	-14.39181	11.27051
11.31895	-14.39181	11.27051
11.32325	-14.39181	11.27051
11.32745	-14.41379	11.27051
11.33164	-14.41379	11.27051
11.33586	-14.41379	11.27051
11.34005	-14.41379	11.27051
11.34425	-14.41379	11.27051
11.34855	-14.41379	11.27051
11.35292	-14.41379	11.27051
11.35713	-14.43576	11.27051
11.36132	-14.41379	11.27051
11.36552	-14.41379	11.27051
11.36971	-14.41379	11.27051
11.37390	-14.43576	11.27051
11.37808	-14.43576	11.27051
11.38241	-14.43576	11.27051
11.38667	-14.43576	11.27051
11.39086	-14.43576	11.27051
11.39506	-14.43576	11.27051
11.39925	-14.45773	11.27051
11.40346	-14.45773	11.27051
11.40765	-14.45773	11.27051
11.41194	-14.45773	11.27051
11.41623	-14.45773	11.27051
11.42044	-14.45773	11.27051
11.42463	-14.45773	11.27051
11.42885	-14.47970	11.27051
11.43304	-14.45773	11.27051
11.43726	-14.47970	11.27051
11.44145	-14.47970	11.27051
11.44576	-14.47970	11.27051
11.45009	-14.47970	11.27051
11.45428	-14.47970	11.27051
11.45847	-14.47970	11.27051
11.46265	-14.50168	11.27051
11.46684	-14.50168	11.27051
11.47102	-14.50168	11.27051
11.47544	-14.50168	11.27051
11.47970	-14.50168	11.27051
11.48390	-14.50168	11.27051
11.48810	-14.50168	11.27051
11.49229	-14.50168	11.27051
11.49648	-14.50168	11.27051
11.50066	-14.50168	11.27051
11.50496	-14.50168	11.27051
11.50922	-14.52365	11.27051
11.51342	-14.52365	11.27051
11.51760	-14.52365	11.27051
11.52179	-14.52365	11.27051
11.52598	-14.52365	11.27051
11.53017	-14.52365	11.27051
11.53443	-14.52365	11.27051
11.53870	-14.52365	11.27051
11.54290	-14.52365	11.27051
11.54708	-14.54562	11.27051
11.55137	-14.54562	11.27051
11.55556	-14.54562	11.27051
11.55974	-14.54562	11.27051
11.56393	-14.54562	11.27051
11.56822	-14.54562	11.27051
11.57243	-14.54562	11.27051
11.57662	-14.54562	11.27051
11.58081	-14.54562	11.27051
11.58499	-14.56759	11.27051
11.58918	-14.54562	11.27051
11.59336	-14.56759	11.27051
11.59775	-14.56759	11.27051
11.60202	-14.56759	11.27051
11.60622	-14.56759	11.27051
11.61041	-14.56759	11.27051
11.61461	-14.56759	11.27051
11.61880	-14.56759	11.27051
11.62299	-14.56759	11.27051
11.62726	-14.56759	11.27051
11.63152	-14.56759	11.27051
11.63571	-14.56759	11.27051
11.63990	-14.58957	11.27051
11.64409	-14.58957	11.27051
11.64827	-14.58957	11.27051
11.65256	-14.58957	11.27051
11.65681	-14.58957	11.27051
11.66109	-14.58957	11.27051
11.66528	-14.58957	11.27051
11.66947	-14.58957	11.27051
11.67366	-14.61154	11.27051
11.67785	-14.61154	11.27051
11.68204	-14.61154	11.27051
11.68623	-14.61154	11.27051
11.69052	-14.61154	11.27051
11.69472	-14.61154	11.27051
11.69891	-14.61154	11.27051
11.70312	-14.61154	11.27051
11.70731	-14.61154	11.27051
11.71150	-14.61154	11.27051
11.71568	-14.61154	11.27051
11.72013	-14.63351	11.27051
11.72435	-14.63351	11.27051
11.72854	-14.63351	11.27051
11.73272	-14.63351	11.27051
11.73691	-14.63351	11.27051
11.74110	-14.63351	11.27051
11.74528	-14.63351	11.27051
11.74955	-14.65548	11.27051
11.75391	-14.63351	11.27051
11.75809	-14.63351	11.27051
11.76227	-14.63351	11.27051
11.76645	-14.63351	11.27051
11.77064	-14.65548	11.27051
11.77482	-14.65548	11.27051
11.77908	-14.65548	11.27051
11.78335	-14.65548	11.27051
11.78756	-14.65548	11.27051
11.79175	-14.65548	11.27051
11.79593	-14.65548	11.27051
11.80012	-14.65548	11.27051
11.80432	-14.67746	11.27051
11.80851	-14.67746	11.27051
11.81282	-14.67746	11.27051
11.81702	-14.67746	11.27051
11.82121	-14.67746	11.27051
11.82540	-14.67746	11.27051
11.82959	-14.67746	11.27051
11.83377	-14.67746	11.27051
11.83798	-14.67746	11.27051
11.84239	-14.67746	11.27051
11.84660	-14.67746	11.27051
11.85078	-14.69943	11.27051
11.85508	-14.69943	11.27051
11.85926	-14.69943	11.27051
11.86345	-14.69943	11.27051
11.86763	-14.69943	11.27051
11.87190	-14.69943	11.27051
11.87615	-14.69943	11.27051
11.88035	-14.69943	11.27051
11.88453	-14.69943	11.27051
11.88872	-14.72140	11.27051
11.89291	-14.72140	11.27051
11.89709	-14.72140	11.27051
11.90135	-14.72140	11.27051
11.90564	-14.72140	11.27051
11.90985	-14.72140	11.27051
11.91405	-14.72140	11.27051
11.91824	-14.72140	11.27051
11.92243	-14.72140	11.27051
11.92661	-14.74338	11.27051
11.93080	-14.72140	11.27051
11.93509	-14.74338	11.27051
11.93929	-14.74338	11.27051
11.94348	-14.74338	11.27051
11.94766	-14.74338	11.27051
11.95185	-14.76535	11.27051
11.95613	-14.76535	11.27051
11.96031	-14.76535	11.27051
11.96470	-14.76535	11.27051
11.96904	-14.76535	11.27051
11.97327	-14.76535	11.27051
11.97748	-14.76535	11.27051
11.98169	-14.76535	11.27051
11.98589	-14.78732	11.27051
11.99008	-14.78732	11.27051
11.99499	-14.78732	11.27051
11.99930	-14.78732	11.27051
12.00353	-14.78732	11.27051
12.00774	-14.80929	11.27051
12.01195	-14.80929	11.27051
12.01615	-14.80929	11.27051
12.02036	-14.80929	11.27051
12.02619	-14.83127	11.27051
12.03050	-14.83127	11.27051
12.03471	-14.83127	11.27051
12.03891	-14.83127	11.27051
12.04310	-14.83127	11.27051
12.04730	-14.85324	11.27051
12.05149	-14.85324	11.27051
12.05576	-14.85324	11.27051
12.06015	-14.85324	11.27051
12.06435	-14.87521	11.27051
12.06855	-14.87521	11.27051
12.07274	-14.87521	11.27051
12.07693	-14.87521	11.27051
12.08112	-14.87521	11.27051
12.08531	-14.87521	11.27051
12.08961	-14.89718	11.27051
12.09382	-14.89718	11.27051
12.09803	-14.89718	11.27051
12.10222	-14.91916	11.27051
12.10642	-14.91916	11.27051
12.11062	-14.91916	11.27051
12.11481	-14.91916	11.27051
12.11919	-14.91916	11.27051
12.12340	-14.91916	11.27051
12.12759	-14.94113	11.27051
12.13178	-14.94113	11.27051
12.13598	-14.96310	11.27051
12.14017	-14.94113	11.27051
12.14436	-14.96310	11.27051
12.14869	-14.96310	11.27051
12.15295	-14.96310	11.27051
12.15714	-14.96310	11.27051
12.16143	-14.98507	11.27051
12.16561	-14.98507	11.27051
12.16980	-14.98507	11.27051
12.17399	-14.98507	11.27051
12.17825	-14.98507	11.27051
12.18252	-14.98507	11.27051
12.18672	-15.00705	11.27051
12.19092	-15.00705	11.27051
12.19511	-15.02902	11.27051
12.19929	-15.02902	11.27051
12.20350	-15.02902	11.27051
12.20769	-15.02902	11.27051
12.21200	-15.02902	11.27051
12.21622	-15.02902	11.27051
12.22042	-15.05099	11.27051
12.22461	-15.05099	11.27051
12.22879	-15.05099	11.27051
12.23298	-15.05099	11.27051
12.23716	-15.05099	11.27051
12.24158	-15.05099	11.27051
12.24579	-15.07297	11.27051
12.24999	-15.07297	11.27051
12.25417	-15.07297	11.27051
12.25836	-15.07297	11.27051
12.26265	-15.07297	11.27051
12.26683	-15.09494	11.27051
12.27111	-15.09494	11.27051
12.27537	-15.09494	11.27051
12.27956	-15.09494	11.27051
12.28375	-15.09494	11.27051
12.28793	-15.09494	11.27051
12.29213	-15.11691	11.27051
12.29632	-15.11691	11.27051
12.30057	-15.11691	11.27051
12.30487	-15.11691	11.27051
12.30907	-15.11691	11.27051
12.31326	-15.11691	11.27051
12.31746	-15.13888	11.27051
12.32165	-15.13888	11.27051
12.32583	-15.13888	11.27051
12.33002	-15.13888	11.27051
12.33436	-15.13888	11.27051
12.33857	-15.13888	11.27051
12.34276	-15.16086	11.27051
12.34695	-15.16086	11.27051
12.35114	-15.16086	11.27051
12.35532	-15.16086	11.27051
12.35950	-15.16086	11.27051
12.36401	-15.18283	11.27051
12.36821	-15.18283	11.27051
12.37240	-15.18283	11.27051
12.37658	-15.20480	11.27051
12.38077	-15.20480	11.27051
12.38495	-15.20480	11.27051
12.38913	-15.20480	11.27051
12.39342	-15.20480	11.27051
12.39767	-15.20480	11.27051
12.40187	-15.20480	11.27051
12.40612	-15.20480	11.27051
12.41031	-15.22677	11.27051
12.41449	-15.22677	11.27051
12.41868	-15.22677	11.27051
12.42294	-15.22677	11.27051
12.42727	-15.22677	11.27051
12.43147	-15.22677	11.27051
12.43566	-15.22677	11.27051
12.43986	-15.22677	11.27051
12.44406	-15.22677	11.27051
12.44826	-15.24875	11.27051
12.45244	-15.24875	11.27051
12.45674	-15.24875	11.27051
12.46095	-15.24875	11.27051
12.46525	-15.24875	11.27051
12.46944	-15.24875	11.27051
12.47363	-15.24875	11.27051
12.47781	-15.27072	11.27051
12.48203	-15.27072	11.27051
12.48646	-15.27072	11.27051
12.49068	-15.27072	11.27051
12.49487	-15.27072	11.27051
12.49905	-15.27072	11.27051
12.50329	-15.27072	11.27051
12.50749	-15.27072	11.27051
12.51168	-15.27072	11.27051
12.51595	-15.27072	11.27051
12.52021	-15.27072	11.27051
12.52441	-15.27072	11.27051
12.52859	-15.27072	11.27051
12.53278	-15.27072	11.27051
12.53696	-15.27072	11.27051
12.54116	-15.27072	11.27051
12.54541	-15.27072	11.27051
12.54969	-15.27072	11.27051
12.55389	-15.27072	11.27051
12.55808	-15.27072	11.27051
12.56226	-15.27072	11.27051
12.56655	-15.27072	11.27051
12.57073	-15.27072	11.27051
12.57492	-15.27072	11.27051
12.57921	-15.27072	11.27051
12.58341	-15.27072	11.27051
12.58760	-15.27072	11.27051
12.59178	-15.27072	11.27051
12.59598	-15.27072	11.27051
12.60016	-15.27072	11.27051
12.60437	-15.27072	11.27051
12.60877	-15.24875	11.27051
12.61299	-15.27072	11.27051
12.61718	-15.27072	11.27051
12.62136	-15.24875	11.27051
12.62555	-15.24875	11.27051
12.62973	-15.24875	11.27051
12.63393	-15.24875	11.27051
12.63826	-15.24875	11.27051
12.64252	-15.24875	11.27051
12.64672	-15.22677	11.27051
12.65091	-15.24875	11.27051
12.65509	-15.24875	11.27051
12.65928	-15.22677	11.27051
12.66346	-15.22677	11.27051
12.66782	-15.22677	11.27051
12.67209	-15.22677	11.27051
12.67628	-15.22677	11.27051
12.68047	-15.22677	11.27051
12.68466	-15.22677	11.27051
12.68884	-15.22677	11.27051
12.69303	-15.20480	11.27051
12.69722	-15.22677	11.27051
12.70151	-15.22677	11.27051
12.70574	-15.20480	11.27051
12.70993	-15.20480	11.27051
12.71408	-15.20480	11.27051
12.71827	-15.20480	11.27051
12.72245	-15.20480	11.27051
12.72663	-15.18283	11.27051
12.73102	-15.18283	11.27051
12.73523	-15.18283	11.27051
12.73942	-15.18283	11.27051
12.74360	-15.18283	11.27051
12.74779	-15.18283	11.27051
12.75197	-15.18283	11.27051
12.75616	-15.16086	11.27051
12.76043	-15.16086	11.27051
12.76468	-15.16086	11.27051
12.76897	-15.16086	11.27051
12.77316	-15.16086	11.27051
12.77734	-15.13888	11.27051
12.78153	-15.13888	11.27051
12.78571	-15.13888	11.27051
12.78996	-15.13888	11.27051
12.79424	-15.13888	11.27051
12.79844	-15.11691	11.27051
12.80263	-15.13888	11.27051
12.80683	-15.13888	11.27051
12.81102	-15.11691	11.27051
12.81521	-15.11691	11.27051
12.81940	-15.11691	11.27051
12.82369	-15.09494	11.27051
12.82789	-15.09494	11.27051
12.83208	-15.09494	11.27051
12.83626	-15.09494	11.27051
12.84045	-15.09494	11.27051
12.84463	-15.07297	11.27051
12.84882	-15.07297	11.27051
12.85319	-15.07297	11.27051
12.85740	-15.05099	11.27051
12.86158	-15.05099	11.27051
12.86577	-15.07297	11.27051
12.87007	-15.07297	11.27051
12.87425	-15.05099	11.27051
12.87844	-15.05099	11.27051
12.88271	-15.05099	11.27051
12.88697	-15.05099	11.27051
12.89116	-15.05099	11.27051
12.89535	-15.05099	11.27051
12.89954	-15.05099	11.27051
12.90377	-15.05099	11.27051
12.90797	-15.02902	11.27051
12.91223	-15.02902	11.27051
12.91651	-15.02902	11.27051
12.92071	-15.02902	11.27051
12.92490	-15.02902	11.27051
12.92909	-15.00705	11.27051
12.93328	-15.00705	11.27051
12.93747	-15.00705	11.27051
12.94165	-15.00705	11.27051
12.94596	-15.00705	11.27051
12.95016	-15.00705	11.27051
12.95435	-15.00705	11.27051
12.95854	-15.00705	11.27051
12.96272	-15.00705	11.27051
12.96691	-14.98507	11.27051
12.97119	-14.98507	11.27051
12.97558	-14.98507	11.27051
12.97979	-14.98507	11.27051
12.98399	-14.98507	11.27051
12.98819	-14.96310	11.27051
12.99238	-14.96310	11.27051
12.99656	-14.98507	11.27051
13.00076	-14.96310	11.27051
13.00505	-14.96310	11.27051
13.00932	-14.98507	11.27051
13.01352	-14.96310	11.27051
13.01771	-14.96310	11.27051
13.02190	-14.96310	11.27051
13.02607	-14.96310	11.27051
13.03026	-14.94113	11.27051
13.03452	-14.94113	11.27051
13.03880	-14.94113	11.27051
13.04300	-14.94113	11.27051
13.04718	-14.94113	11.27051
13.05137	-14.94113	11.27051
13.05555	-14.94113	11.27051
13.05974	-14.94113	11.27051
13.06392	-14.94113	11.27051
13.06821	-14.94113	11.27051
13.07251	-14.94113	11.27051
13.07670	-14.94113	11.27051
13.08088	-14.94113	11.27051
13.08507	-14.91916	11.27051
13.08926	-14.94113	11.27051
13.09347	-14.91916	11.27051
13.09792	-14.91916	11.27051
13.10211	-14.91916	11.27051
13.10631	-14.91916	11.27051
13.11051	-14.91916	11.27051
13.11469	-14.91916	11.27051
13.11888	-14.91916	11.27051
13.12306	-14.91916	11.27051
13.12733	-14.91916	11.27051
13.13159	-14.91916	11.27051
13.13580	-14.91916	11.27051
13.13998	-14.91916	11.27051
13.14417	-14.91916	11.27051
13.14835	-14.91916	11.27051
13.15254	-14.91916	11.27051
13.15680	-14.91916	11.27051
13.16107	-14.91916	11.27051
13.16528	-14.91916	11.27051
13.16946	-14.91916	11.27051
13.17375	-14.91916	11.27051
13.17795	-14.91916	11.27051
13.18213	-14.91916	11.27051
13.18632	-14.91916	11.27051
13.19061	-14.91916	11.27051
13.19481	-14.91916	11.27051
13.19899	-14.94113	11.27051
13.20318	-14.94113	11.27051
13.20738	-14.91916	11.27051
13.21158	-14.91916	11.27051
13.21577	-14.91916	11.27051
13.22021	-14.91916	11.27051
13.22444	-14.94113	11.27051
13.22863	-14.94113	11.27051
13.23282	-14.94113	11.27051
13.23701	-14.94113	11.27051
13.24119	-14.91916	11.27051
13.24538	-14.94113	11.27051
13.24966	-14.94113	11.27051
13.25392	-14.94113	11.27051
13.25808	-14.94113	11.27051
13.26227	-14.94113	11.27051
13.26646	-14.94113	11.27051
13.27064	-14.94113	11.27051
13.27493	-14.94113	11.27051
13.27918	-14.94113	11.27051
13.28345	-14.94113	11.27051
13.28765	-14.94113	11.27051
13.29184	-14.94113	11.27051
13.29602	-14.94113	11.27051
13.30021	-14.94113	11.27051
13.30441	-14.96310	11.27051
13.30860	-14.96310	11.27051
13.31290	-14.94113	11.27051
13.31712	-14.96310	11.27051
13.32131	-14.96310	11.27051
13.32550	-14.96310	11.27051
13.32968	-14.96310	11.27051
13.33390	-14.96310	11.27051
13.33808	-14.96310	11.27051
13.34252	-14.96310	11.27051
13.34673	-14.96310	11.27051
13.35092	-14.96310	11.27051
13.35511	-14.96310	11.27051
13.35930	-14.96310	11.27051
13.36348	-14.96310	11.27051
13.36767	-14.96310	11.27051
13.37194	-14.96310	11.27051
13.37629	-14.96310	11.27051
13.38048	-14.96310	11.27051
13.38467	-14.96310	11.27051
13.38886	-14.96310	11.27051
13.39306	-14.96310	11.27051
13.39725	-14.96310	11.27051
13.40151	-14.98507	11.27051
13.40580	-14.96310	11.27051
13.41002	-14.98507	11.27051
13.41421	-14.98507	11.27051
13.41839	-14.98507	11.27051
13.42258	-14.98507	11.27051
13.42679	-14.98507	11.27051
13.43098	-14.98507	11.27051
13.43528	-14.98507	11.27051
13.43950	-14.98507	11.27051
13.44369	-14.98507	11.27051
13.44788	-14.98507	11.27051
13.45206	-15.00705	11.27051
13.45625	-14.98507	11.27051
13.46043	-15.00705	11.27051
13.46482	-15.00705	11.27051
13.46903	-15.00705	11.27051
13.47322	-15.00705	11.27051
13.47751	-15.00705	11.27051
13.48175	-15.00705	11.27051
13.48596	-15.00705	11.27051
13.49014	-15.00705	11.27051
13.49441	-15.00705	11.27051
13.49867	-15.00705	11.27051
13.50288	-15.00705	11.27051
13.50708	-15.02902	11.27051
13.51127	-15.02902	11.27051
13.51546	-15.00705	11.27051
13.51965	-15.00705	11.27051
13.52390	-15.02902	11.27051
13.52818	-15.02902	11.27051
13.53238	-15.05099	11.27051
13.53657	-15.02902	11.27051
13.54075	-15.05099	11.27051
13.54494	-15.05099	11.27051
13.54912	-15.05099	11.27051
13.55331	-15.02902	11.27051
13.55760	-15.05099	11.27051
13.56181	-15.05099	11.27051
13.56600	-15.05099	11.27051
13.57019	-15.05099	11.27051
13.57438	-15.05099	11.27051
13.57867	-15.05099	11.27051
13.58285	-15.07297	11.27051
13.58724	-15.07297	11.27051
13.59145	-15.07297	11.27051
13.59563	-15.07297	11.27051
13.59982	-15.07297	11.27051
13.60401	-15.07297	11.27051
13.60821	-15.07297	11.27051
13.61240	-15.09494	11.27051
13.61667	-15.09494	11.27051
13.62093	-15.09494	11.27051
13.62512	-15.11691	11.27051
13.62931	-15.11691	11.27051
13.63350	-15.09494	11.27051
13.63768	-15.09494	11.27051
13.64188	-15.11691	11.27051
13.64615	-15.09494	11.27051
13.65043	-15.11691	11.27051
13.65463	-15.11691	11.27051
13.65881	-15.11691	11.27051
13.66300	-15.11691	11.27051
13.66719	-15.11691	11.27051
13.67137	-15.11691	11.27051
13.67556	-15.13888	11.27051
13.67995	-15.13888	11.27051
13.68415	-15.13888	11.27051
13.68834	-15.16086	11.27051
13.69253	-15.13888	11.27051
13.69671	-15.16086	11.27051
13.70090	-15.16086	11.27051
13.70510	-15.16086	11.27051
13.70951	-15.16086	11.27051
13.71372	-15.16086	11.27051
13.71792	-15.16086	11.27051
13.72208	-15.16086	11.27051
13.72627	-15.16086	11.27051
13.73045	-15.16086	11.27051
13.73464	-15.16086	11.27051
13.73889	-15.18283	11.27051
13.74315	-15.16086	11.27051
13.74735	-15.18283	11.27051
13.75153	-15.18283	11.27051
13.75572	-15.18283	11.27051
13.75990	-15.20480	11.27051
13.76409	-15.18283	11.27051
13.76835	-15.18283	11.27051
13.77262	-15.20480	11.27051
13.77682	-15.20480	11.27051
13.78111	-15.20480	11.27051
13.78529	-15.20480	11.27051
13.78948	-15.20480	11.27051
13.79366	-15.20480	11.27051
13.79784	-15.22677	11.27051
13.80215	-15.20480	11.27051
13.80638	-15.22677	11.27051
13.81057	-15.22677	11.27051
13.81476	-15.22677	11.27051
13.81894	-15.22677	11.27051
13.82313	-15.22677	11.27051
13.82731	-15.22677	11.27051
13.83173	-15.24875	11.27051
13.83595	-15.22677	11.27051
13.84014	-15.22677	11.27051
13.84432	-15.24875	11.27051
13.84851	-15.24875	11.27051
13.85269	-15.24875	11.27051
13.85687	-15.24875	11.27051
13.86114	-15.24875	11.27051
13.86539	-15.24875	11.27051
13.86959	-15.27072	11.27051
13.87377	-15.24875	11.27051
13.87796	-15.27072	11.27051
13.88225	-15.27072	11.27051
13.88643	-15.24875	11.27051
13.89069	-15.24875	11.27051
13.89496	-15.27072	11.27051
13.89915	-15.27072	11.27051
13.90334	-15.27072	11.27051
13.90755	-15.27072	11.27051
13.91174	-15.27072	11.27051
13.91593	-15.27072	11.27051
13.92011	-15.27072	11.27051
13.92440	-15.27072	11.27051
13.92861	-15.29269	11.27051
13.93279	-15.27072	11.27051
13.93698	-15.29269	11.27051
13.94117	-15.29269	11.27051
13.94535	-15.29269	11.27051
13.94954	-15.29269	11.27051
13.95392	-15.29269	11.27051
13.95809	-15.27072	11.27051
13.96228	-15.29269	11.27051
13.96646	-15.29269	11.27051
13.97065	-15.29269	11.27051
13.97483	-15.29269	11.27051
13.97902	-15.29269	11.27051
13.98345	-15.29269	11.27051
13.98770	-15.29269	11.27051
13.99189	-15.29269	11.27051
13.99608	-15.29269	11.27051
14.00026	-15.31466	11.27051
14.00444	-15.29269	11.27051
14.00864	-15.31466	11.27051
14.01290	-15.29269	11.27051
14.01717	-15.29269	11.27051
14.02138	-15.29269	11.27051
14.02556	-15.31466	11.27051
14.02974	-15.29269	11.27051
14.03393	-15.31466	11.27051
14.03808	-15.29269	11.27051
14.04227	-15.29269	11.27051
14.04657	-15.31466	11.27051
14.05077	-15.31466	11.27051
14.05496	-15.29269	11.27051
14.05914	-15.31466	11.27051
14.06333	-15.29269	11.27051
14.06751	-15.31466	11.27051
14.07169	-15.31466	11.27051
14.07608	-15.31466	11.27051
14.08028	-15.31466	11.27051
14.08457	-15.31466	11.27051
14.08875	-15.29269	11.27051
14.09294	-15.31466	11.27051
14.09712	-15.29269	11.27051
14.10130	-15.29269	11.27051
14.10560	-15.31466	11.27051
14.10987	-15.29269	11.27051
14.11407	-15.29269	11.27051
14.11826	-15.31466	11.27051
14.12245	-15.29269	11.27051
14.12663	-15.29269	11.27051
14.13082	-15.31466	11.27051
14.13507	-15.29269	11.27051
14.13934	-15.29269	11.27051
14.14354	-15.31466	11.27051
14.14773	-15.29269	11.27051
14.15191	-15.29269	11.27051
14.15609	-15.29269	11.27051
14.16028	-15.29269	11.27051
14.16446	-15.31466	11.27051
14.16875	-15.29269	11.27051
14.17296	-15.29269	11.27051
14.17714	-15.31466	11.27051
14.18133	-15.31466	11.27051
14.18562	-15.29269	11.27051
14.18980	-15.29269	11.27051
14.19399	-15.29269	11.27051
14.19838	-15.29269	11.27051
14.20259	-15.29269	11.27051
14.20680	-15.29269	11.27051
14.21099	-15.29269	11.27051
14.21518	-15.29269	11.27051
14.21936	-15.29269	11.27051
14.22355	-15.29269	11.27051
14.22782	-15.29269	11.27051
14.23208	-15.29269	11.27051
14.23627	-15.29269	11.27051
14.24046	-15.29269	11.27051
14.24465	-15.29269	11.27051
14.24883	-15.29269	11.27051
14.25301	-15.29269	11.27051
14.25727	-15.29269	11.27051
14.26154	-15.29269	11.27051
14.26574	-15.29269	11.27051
14.26993	-15.29269	11.27051
14.27408	-15.29269	11.27051
14.27826	-15.29269	11.27051
14.28244	-15.29269	11.27051
14.28673	-15.29269	11.27051
14.29102	-15.27072	11.27051
14.29522	-15.29269	11.27051
14.29941	-15.29269	11.27051
14.30359	-15.29269	11.27051
14.30780	-15.29269	11.27051
14.31199	-15.29269	11.27051
14.31618	-15.29269	11.27051
14.32060	-15.29269	11.27051
14.32482	-15.27072	11.27051
14.32901	-15.29269	11.27051
14.33323	-15.29269	11.27051
14.33743	-15.29269	11.27051
14.34163	-15.27072	11.27051
14.34582	-15.29269	11.27051
14.35011	-15.29269	11.27051
14.35438	-15.29269	11.27051
14.35857	-15.29269	11.27051
14.36276	-15.29269	11.27051
14.36694	-15.27072	11.27051
14.37113	-15.29269	11.27051
14.37531	-15.27072	11.27051
14.37957	-15.29269	11.27051
14.38385	-15.29269	11.27051
14.38816	-15.29269	11.27051
14.39235	-15.29269	11.27051
14.39653	-15.29269	11.27051
14.40072	-15.27072	11.27051
14.40491	-15.29269	11.27051
14.40911	-15.29269	11.27051
14.41342	-15.29269	11.27051
14.41764	-15.29269	11.27051
14.42183	-15.29269	11.27051
14.42603	-15.29269	11.27051
14.43023	-15.29269	11.27051
14.43442	-15.29269	11.27051
14.43864	-15.29269	11.27051
14.44306	-15.29269	11.27051
14.44728	-15.29269	11.27051
14.45147	-15.29269	11.27051
14.45566	-15.31466	11.27051
14.45984	-15.29269	11.27051
14.46403	-15.31466	11.27051
14.46821	-15.31466	11.27051
14.47247	-15.31466	11.27051
14.47673	-15.31466	11.27051
14.48092	-15.31466	11.27051
14.48513	-15.31466	11.27051
14.48944	-15.31466	11.27051
14.49363	-15.31466	11.27051
14.49781	-15.31466	11.27051
14.50207	-15.33664	11.27051
14.50638	-15.33664	11.27051
14.51058	-15.33664	11.27051
14.51478	-15.33664	11.27051
14.51897	-15.33664	11.27051
14.52316	-15.33664	11.27051
14.52734	-15.33664	11.27051
14.53153	-15.33664	11.27051
14.53582	-15.35861	11.27051
14.54002	-15.35861	11.27051
14.54421	-15.35861	11.27051
14.54839	-15.35861	11.27051
14.55258	-15.35861	11.27051
14.55676	-15.38058	11.27051
14.56095	-15.38058	11.27051
14.56534	-15.38058	11.27051
14.56955	-15.40256	11.27051
14.57374	-15.40256	11.27051
14.57792	-15.38058	11.27051
14.58208	-15.38058	11.27051
14.58627	-15.40256	11.27051
14.59056	-15.40256	11.27051
14.59483	-15.40256	11.27051
14.59908	-15.40256	11.27051
14.60328	-15.40256	11.27051
14.60749	-15.42453	11.27051
14.61168	-15.42453	11.27051
14.61588	-15.42453	11.27051
14.62007	-15.42453	11.27051
14.62432	-15.42453	11.27051
14.62860	-15.42453	11.27051
14.63280	-15.44650	11.27051
14.63699	-15.44650	11.27051
14.64117	-15.44650	11.27051
14.64536	-15.44650	11.27051
14.64954	-15.44650	11.27051
14.65373	-15.44650	11.27051
14.65803	-15.46847	11.27051
14.66224	-15.46847	11.27051
14.66642	-15.46847	11.27051
14.67061	-15.49045	11.27051
14.67479	-15.49045	11.27051
14.67898	-15.49045	11.27051
14.68316	-15.49045	11.27051
14.68755	-15.49045	11.27051
14.69187	-15.51242	11.27051
14.69607	-15.49045	11.27051
14.70025	-15.51242	11.27051
14.70444	-15.51242	11.27051
14.70865	-15.51242	11.27051
14.71284	-15.51242	11.27051
14.71712	-15.53439	11.27051
14.72139	-15.51242	11.27051
14.72559	-15.53439	11.27051
14.72978	-15.53439	11.27051
14.73398	-15.53439	11.27051
14.73816	-15.53439	11.27051
14.74235	-15.55636	11.27051
14.74660	-15.55636	11.27051
14.75088	-15.55636	11.27051
14.75508	-15.55636	11.27051
14.75926	-15.55636	11.27051
14.76345	-15.57834	11.27051
14.76763	-15.57834	11.27051
14.77182	-15.57834	11.27051
14.77600	-15.57834	11.27051
14.78029	-15.57834	11.27051
14.78449	-15.57834	11.27051
14.78868	-15.60031	11.27051
14.79296	-15.57834	11.27051
14.79715	-15.60031	11.27051
14.80136	-15.60031	11.27051
14.80555	-15.60031	11.27051
14.81001	-15.60031	11.27051
14.81422	-15.62228	11.27051
14.81841	-15.60031	11.27051
14.82261	-15.62228	11.27051
14.82680	-15.62228	11.27051
14.83098	-15.62228	11.27051
14.83517	-15.64425	11.27051
14.83943	-15.64425	11.27051
14.84368	-15.64425	11.27051
14.84787	-15.64425	11.27051
14.85206	-15.64425	11.27051
14.85624	-15.66623	11.27051
14.86043	-15.66623	11.27051
14.86461	-15.66623	11.27051
14.86885	-15.66623	11.27051
14.87312	-15.66623	11.27051
14.87732	-15.64425	11.27051
14.88151	-15.66623	11.27051
14.88569	-15.66623	11.27051
14.88988	-15.66623	11.27051
14.89417	-15.68820	11.27051
14.89836	-15.68820	11.27051
14.90265	-15.68820	11.27051
14.90687	-15.71017	11.27051
14.91107	-15.68820	11.27051
14.91527	-15.71017	11.27051
14.91945	-15.71017	11.27051
14.92364	-15.68820	11.27051
14.92782	-15.71017	11.27051
14.93222	-15.71017	11.27051
14.93645	-15.71017	11.27051
14.94064	-15.71017	11.27051
14.94482	-15.71017	11.27051
14.94901	-15.71017	11.27051
14.95319	-15.71017	11.27051
14.95738	-15.71017	11.27051
14.96166	-15.71017	11.27051
14.96592	-15.73214	11.27051
14.97009	-15.73214	11.27051
14.97428	-15.71017	11.27051
14.97846	-15.73214	11.27051
14.98265	-15.73214	11.27051
14.98685	-15.73214	11.27051
14.99112	-15.73214	11.27051
14.99550	-15.73214	11.27051
14.99971	-15.71017	11.27051
15.00430	-15.73214	6.08276
15.00849	-15.73214	6.08276
15.01268	-15.73214	6.08276
15.01686	-15.73214	6.08276
15.02105	-15.73214	6.08276
15.02535	-15.73214	6.08276
15.02956	-15.73214	6.08276
15.03374	-15.73214	6.08276
15.03793	-15.73214	6.08276
15.04207	-15.73214	6.08276
15.04625	-15.73214	6.08276
15.05044	-15.73214	6.08276
15.05484	-15.73214	6.08276
15.05905	-15.73214	6.08276
15.06323	-15.73214	6.08276
15.06742	-15.71017	6.08276
15.07160	-15.73214	6.08276
15.07578	-15.71017	6.08276
15.07997	-15.71017	6.08276
15.08425	-15.71017	6.08276
15.08852	-15.71017	6.08276
15.09271	-15.68820	6.08276
15.09689	-15.71017	6.08276
15.10108	-15.71017	6.08276
15.10536	-15.68820	6.08276
15.10957	-15.68820	6.08276
15.11383	-15.68820	6.08276
15.11812	-15.66623	6.08276
15.12232	-15.66623	6.08276
15.12651	-15.64425	6.08276
15.13069	-15.64425	6.08276
15.13488	-15.64425	6.08276
15.13906	-15.62228	6.08276
15.14324	-15.62228	6.08276
15.14753	-15.62228	6.08276
15.15174	-15.60031	6.08276
15.15593	-15.60031	6.08276
15.16011	-15.60031	6.08276
15.16430	-15.57834	6.08276
15.16848	-15.57834	6.08276
15.17266	-15.55636	6.08276
15.17705	-15.53439	6.08276
15.18127	-15.51242	6.08276
15.18547	-15.51242	6.08276
15.18966	-15.49045	6.08276
15.19385	-15.49045	6.08276
15.19804	-15.46847	6.08276
15.20223	-15.44650	6.08276
15.20664	-15.42453	6.08276
15.21091	-15.40256	6.08276
15.21511	-15.40256	6.08276
15.21932	-15.40256	6.08276
15.22351	-15.35861	6.08276
15.22772	-15.35861	6.08276
15.23191	-15.31466	6.08276
15.23617	-15.31466	6.08276
15.24045	-15.29269	6.08276
15.24465	-15.27072	6.08276
15.24884	-15.24875	6.08276
15.25303	-15.22677	6.08276
15.25722	-15.18283	6.08276
15.26141	-15.18283	6.08276
15.26560	-15.16086	6.08276
15.26988	-15.13888	6.08276
15.27409	-15.11691	6.08276
15.27827	-15.07297	6.08276
15.28246	-15.07297	6.08276
15.28664	-15.05099	6.08276
15.29083	-15.02902	6.08276
15.29501	-14.98507	6.08276
15.29940	-14.96310	6.08276
15.30361	-14.94113	6.08276
15.30794	-14.89718	6.08276
15.31213	-14.89718	6.08276
15.31632	-14.85324	6.08276
15.32050	-14.80929	6.08276
15.32469	-14.78732	6.08276
15.32895	-14.76535	6.08276
15.33324	-14.72140	6.08276
15.33745	-14.67746	6.08276
15.34164	-14.67746	6.08276
15.34582	-14.65548	6.08276
15.35002	-14.61154	6.08276
15.35420	-14.56759	6.08276
15.35847	-14.52365	6.08276
15.36273	-14.47970	6.08276
15.36693	-14.47970	6.08276
15.37112	-14.45773	6.08276
15.37530	-14.41379	6.08276
15.37949	-14.36984	6.08276
15.38367	-14.32589	6.08276
15.38785	-14.28195	6.08276
15.39213	-14.23800	6.08276
15.39634	-14.23800	6.08276
15.40053	-14.19406	6.08276
15.40471	-14.17209	6.08276
15.40903	-14.10617	6.08276
15.41322	-14.08420	6.08276
15.41742	-14.01828	6.08276
15.42182	-13.97433	6.08276
15.42605	-13.97433	6.08276
15.43026	-13.93039	6.08276
15.43446	-13.88644	6.08276
15.43866	-13.84250	6.08276
15.44286	-13.79855	6.08276
15.44705	-13.79855	6.08276
15.45136	-13.73263	6.08276
15.45563	-13.68869	6.08276
15.45984	-13.66672	6.08276
15.46403	-13.60080	6.08276
15.46822	-13.55685	6.08276
15.47241	-13.49093	6.08276
15.47660	-13.49093	6.08276
15.48085	-13.44699	6.08276
15.48516	-13.40304	6.08276
15.48937	-13.35910	6.08276
15.49356	-13.29318	6.08276
15.49775	-13.22726	6.08276
15.50195	-13.22726	6.08276
15.50615	-13.18332	6.08276
15.51048	-13.13937	6.08276
15.51477	-13.07345	6.08276
15.51898	-13.02951	6.08276
15.52317	-13.02951	6.08276
15.52735	-12.96359	6.08276
15.53154	-12.91964	6.08276
15.53572	-12.85373	6.08276
15.53991	-12.80978	6.08276
15.54429	-12.74386	6.08276
15.54850	-12.69992	6.08276
15.55269	-12.69992	6.08276
15.55688	-12.63400	6.08276
15.56106	-12.59006	6.08276
15.56525	-12.52414	6.08276
15.56945	-12.48019	6.08276
15.57386	-12.41427	6.08276
15.57819	-12.41427	6.08276
15.58241	-12.34836	6.08276
15.58662	-12.30441	6.08276
15.59082	-12.26047	6.08276
15.59502	-12.19455	6.08276
15.59921	-12.12863	6.08276
15.60346	-12.06271	6.08276
15.60780	-12.06271	6.08276
15.61208	-12.01877	6.08276
15.61625	-11.95285	6.08276
15.62043	-11.90890	6.08276
15.62460	-11.84298	6.08276
15.62877	-11.79904	6.08276
15.63294	-11.73312	6.08276
15.63726	-11.73312	6.08276
15.64145	-11.66720	6.08276
15.64562	-11.60129	6.08276
15.64978	-11.55734	6.08276
15.65398	-11.49142	6.08276
15.65815	-11.49142	6.08276
15.66232	-11.42550	6.08276
15.66664	-11.35959	6.08276
15.67084	-11.31564	6.08276
15.67501	-11.27170	6.08276
15.67918	-11.20578	6.08276
15.68334	-11.13986	6.08276
15.68750	-11.13986	6.08276
15.69167	-11.07394	6.08276
15.69657	-11.03000	6.08276
15.70081	-10.96408	6.08276
15.70498	-10.89816	6.08276
15.70915	-10.83224	6.08276
15.71344	-10.78830	6.08276
15.71763	-10.78830	6.08276
15.72181	-10.72238	6.08276
15.72607	-10.67843	6.08276
15.73040	-10.61252	6.08276
15.73463	-10.56857	6.08276
15.73883	-10.50265	6.08276
15.74301	-10.50265	6.08276
15.74720	-10.43673	6.08276
15.75138	-10.37082	6.08276
15.75557	-10.32687	6.08276
15.75992	-10.26095	6.08276
15.76414	-10.19504	6.08276
15.76835	-10.19504	6.08276
15.77254	-10.12912	6.08276
15.77673	-10.08517	6.08276
15.78092	-10.01925	6.08276
15.78510	-9.95334	6.08276
15.78974	-9.90939	6.08276
15.79395	-9.90939	6.08276
15.79814	-9.84347	6.08276
15.80235	-9.79953	6.08276
15.80654	-9.73361	6.08276
15.81073	-9.68966	6.08276
15.81502	-9.62375	6.08276
15.81928	-9.55783	6.08276
15.82354	-9.55783	6.08276
15.82773	-9.51388	6.08276
15.83191	-9.44797	6.08276
15.83610	-9.38205	6.08276
15.84028	-9.33810	6.08276
15.84446	-9.29416	6.08276
15.84871	-9.29416	6.08276
15.85299	-9.22824	6.08276
15.85719	-9.18429	6.08276
15.86137	-9.11838	6.08276
15.86555	-9.05246	6.08276
15.86974	-9.00851	6.08276
15.87392	-9.00851	6.08276
15.87807	-8.94259	6.08276
15.88236	-8.89865	6.08276
15.88657	-8.85470	6.08276
15.89075	-8.78879	6.08276
15.89494	-8.74484	6.08276
15.89912	-8.67892	6.08276
15.90330	-8.67892	6.08276
15.90748	-8.63498	6.08276
15.91189	-8.56906	6.08276
15.91620	-8.52511	6.08276
15.92038	-8.45920	6.08276
15.92457	-8.41525	6.08276
15.92875	-8.41525	6.08276
15.93293	-8.37131	6.08276
15.93712	-8.30539	6.08276
15.94138	-8.26144	6.08276
15.94567	-8.21750	6.08276
15.94988	-8.15158	6.08276
15.95409	-8.15158	6.08276
15.95828	-8.10763	6.08276
15.96247	-8.04172	6.08276
15.96666	-7.97580	6.08276
15.97093	-7.95382	6.08276
15.97522	-7.90988	6.08276
15.97943	-7.86593	6.08276
15.98362	-7.86593	6.08276
15.98781	-7.80002	6.08276
15.99200	-7.75607	6.08276
15.99619	-7.71213	6.08276
16.00038	-7.64621	6.08276
16.00468	-7.60226	6.08276
16.00889	-7.60226	6.08276
16.01308	-7.55832	6.08276
16.01738	-7.51437	6.08276
16.02157	-7.44845	6.08276
16.02576	-7.40451	6.08276
16.02996	-7.40451	6.08276
16.03436	-7.36056	6.08276
16.03858	-7.31662	6.08276
16.04277	-7.27267	6.08276
16.04696	-7.20675	6.08276
16.05114	-7.18478	6.08276
16.05533	-7.14084	6.08276
16.05952	-7.14084	6.08276
16.06382	-7.09689	6.08276
16.06807	-7.05295	6.08276
16.07226	-7.00900	6.08276
16.07645	-6.96506	6.08276
16.08063	-6.89914	6.08276
16.08481	-6.89914	6.08276
16.08899	-6.85519	6.08276
16.09324	-6.83322	6.08276
16.09752	-6.81125	6.08276
16.10172	-6.76730	6.08276
16.10591	-6.72336	6.08276
16.11008	-6.67941	6.08276
16.11426	-6.67941	6.08276
16.11854	-6.63547	6.08276
16.12273	-6.59152	6.08276
16.12702	-6.56955	6.08276
16.13122	-6.52560	6.08276
16.13541	-6.52560	6.08276
16.13959	-6.48166	6.08276
16.14377	-6.45968	6.08276
16.14796	-6.41574	6.08276
16.15214	-6.37179	6.08276
16.15654	-6.34982	6.08276
16.16074	-6.30588	6.08276
16.16493	-6.30588	6.08276
16.16911	-6.26193	6.08276
16.17331	-6.23996	6.08276
16.17749	-6.19601	6.08276
16.18168	-6.17404	6.08276
16.18595	-6.15207	6.08276
16.19020	-6.10812	6.08276
16.19439	-6.10812	6.08276
16.19858	-6.08615	6.08276
16.20276	-6.04220	6.08276
16.20694	-6.02023	6.08276
16.21113	-5.97629	6.08276
16.21538	-5.97629	6.08276
16.21978	-5.95431	6.08276
16.22398	-5.93234	6.08276
16.22816	-5.91037	6.08276
16.23235	-5.86642	6.08276
16.23654	-5.86642	6.08276
16.24073	-5.82248	6.08276
16.24491	-5.82248	6.08276
16.24921	-5.80050	6.08276
16.25343	-5.75656	6.08276
16.25761	-5.73459	6.08276
16.26180	-5.71261	6.08276
16.26599	-5.69064	6.08276
16.27017	-5.69064	6.08276
16.27436	-5.66867	6.08276
16.27876	-5.64670	6.08276
16.28296	-5.62472	6.08276
16.28715	-5.60275	6.08276
16.29134	-5.58078	6.08276
16.29553	-5.58078	6.08276
16.29971	-5.55881	6.08276
16.30389	-5.53683	6.08276
16.30816	-5.51486	6.08276
16.31243	-5.51486	6.08276
16.31663	-5.49289	6.08276
16.32092	-5.49289	6.08276
16.32510	-5.47091	6.08276
16.32929	-5.44894	6.08276
16.33348	-5.42697	6.08276
16.33775	-5.40500	6.08276
16.34205	-5.40500	6.08276
16.34625	-5.40500	6.08276
16.35044	-5.38302	6.08276
16.35463	-5.36105	6.08276
16.35881	-5.36105	6.08276
16.36300	-5.33908	6.08276
16.36718	-5.31711	6.08276
16.37148	-5.31711	6.08276
16.37568	-5.31711	6.08276
16.37986	-5.29513	6.08276
16.38405	-5.29513	6.08276
16.38824	-5.27316	6.08276
16.39242	-5.27316	6.08276
16.39661	-5.25119	6.08276
16.40102	-5.27316	6.08276
16.40526	-5.27316	6.08276
16.40947	-5.25119	6.08276
16.41366	-5.25119	6.08276
16.41786	-5.22922	6.08276
16.42219	-5.22922	6.08276
16.42638	-5.22922	6.08276
16.43066	-5.20724	6.08276
16.43494	-5.20724	6.08276
16.43914	-5.20724	6.08276
16.44332	-5.20724	6.08276
16.44751	-5.18527	6.08276
16.45170	-5.18527	6.08276
16.45588	-5.18527	6.08276
16.46014	-5.18527	6.08276
16.46441	-5.18527	6.08276
16.46862	-5.18527	6.08276
16.47281	-5.18527	6.08276
16.47699	-5.18527	6.08276
16.48118	-5.18527	6.08276
16.48537	-5.18527	6.08276
16.48955	-5.18527	6.08276
16.49385	-5.18527	6.08276
16.49806	-5.18527	6.08276
16.50225	-5.18527	6.08276
16.50643	-5.18527	6.08276
16.51064	-5.18527	6.08276
16.51484	-5.20724	6.08276
16.51902	-5.20724	6.08276
16.52357	-5.20724	6.08276
16.52777	-5.20724	6.08276
16.53196	-5.22922	6.08276
16.53615	-5.22922	6.08276
16.54033	-5.22922	6.08276
16.54452	-5.22922	6.08276
16.54870	-5.25119	6.08276
16.55297	-5.25119	6.08276
16.55722	-5.25119	6.08276
16.56141	-5.27316	6.08276
16.56559	-5.25119	6.08276
16.56978	-5.27316	6.08276
16.57398	-5.29513	6.08276
16.57816	-5.29513	6.08276
16.58242	-5.31711	6.08276
16.58671	-5.31711	6.08276
16.59091	-5.31711	6.08276
16.59510	-5.36105	6.08276
16.59929	-5.36105	6.08276
16.60348	-5.38302	6.08276
16.60766	-5.38302	6.08276
16.61187	-5.40500	6.08276
16.61618	-5.40500	6.08276
16.62039	-5.42697	6.08276
16.62468	-5.42697	6.08276
16.62887	-5.44894	6.08276
16.63305	-5.47091	6.08276
16.63724	-5.47091	6.08276
16.64142	-5.47091	6.08276
16.64585	-5.51486	6.08276
16.65007	-5.51486	6.08276
16.65426	-5.53683	6.08276
16.65844	-5.55881	6.08276
16.66263	-5.58078	6.08276
16.66681	-5.58078	6.08276
16.67100	-5.60275	6.08276
16.67525	-5.62472	6.08276
16.67952	-5.64670	6.08276
16.68372	-5.66867	6.08276
16.68790	-5.69064	6.08276
16.69209	-5.71261	6.08276
16.69627	-5.71261	6.08276
16.70046	-5.73459	6.08276
16.70471	-5.77853	6.08276
16.70899	-5.77853	6.08276
16.71321	-5.82248	6.08276
16.71740	-5.84445	6.08276
16.72159	-5.84445	6.08276
16.72587	-5.86642	6.08276
16.73007	-5.91037	6.08276
16.73425	-5.93234	6.08276
16.73854	-5.95431	6.08276
16.74275	-5.97629	6.08276
16.74694	-5.97629	6.08276
16.75113	-5.99826	6.08276
16.75531	-6.04220	6.08276
16.75950	-6.06418	6.08276
16.76368	-6.10812	6.08276
16.76808	-6.13009	6.08276
16.77228	-6.13009	6.08276
16.77647	-6.15207	6.08276
16.78065	-6.19601	6.08276
16.78484	-6.21798	6.08276
16.78902	-6.23996	6.08276
16.79321	-6.28390	6.08276
16.79747	-6.28390	6.08276
16.80174	-6.30588	6.08276
16.80593	-6.34982	6.08276
16.81009	-6.37179	6.08276
16.81429	-6.41574	6.08276
16.81847	-6.41574	6.08276
16.82266	-6.45968	6.08276
16.82703	-6.48166	6.08276
16.83130	-6.50363	6.08276
16.83550	-6.54757	6.08276
16.83969	-6.56955	6.08276
16.84387	-6.61349	6.08276
16.84805	-6.61349	6.08276
16.85224	-6.65744	6.08276
16.85642	-6.67941	6.08276
16.86071	-6.72336	6.08276
16.86491	-6.74533	6.08276
16.86910	-6.78927	6.08276
16.87329	-6.81125	6.08276
16.87747	-6.81125	6.08276
16.88165	-6.85519	6.08276
16.88584	-6.89914	6.08276
16.89025	-6.94308	6.08276
16.89445	-6.96506	6.08276
16.89864	-7.00900	6.08276
16.90282	-7.00900	6.08276
16.90701	-7.05295	6.08276
16.91121	-7.07492	6.08276
16.91540	-7.11886	6.08276
16.91966	-7.16281	6.08276
16.92391	-7.18478	6.08276
16.92820	-7.18478	6.08276
16.93239	-7.22873	6.08276
16.93657	-7.27267	6.08276
16.94076	-7.31662	6.08276
16.94494	-7.36056	6.08276
16.94920	-7.38254	6.08276
16.95348	-7.42648	6.08276
16.95767	-7.42648	6.08276
16.96186	-7.47043	6.08276
16.96606	-7.51437	6.08276
16.97026	-7.55832	6.08276
16.97445	-7.60226	6.08276
16.97864	-7.64621	6.08276
16.98300	-7.64621	6.08276
16.98723	-7.69015	6.08276
16.99144	-7.71213	6.08276
16.99564	-7.75607	6.08276
16.99995	-7.80002	6.08276
17.00419	-7.84396	6.08276
17.00841	-7.88791	6.08276
17.01302	-7.88791	6.08276
17.01725	-7.93185	6.08276
17.02146	-7.97580	6.08276
17.02566	-8.01974	6.08276
17.02998	-8.06369	6.08276
17.03417	-8.08566	6.08276
17.03836	-8.08566	6.08276
17.04263	-8.15158	6.08276
17.04690	-8.17355	6.08276
17.05110	-8.21750	6.08276
17.05529	-8.26144	6.08276
17.05948	-8.32736	6.08276
17.06367	-8.32736	6.08276
17.06785	-8.34933	6.08276
17.07213	-8.41525	6.08276
17.07641	-8.45920	6.08276
17.08061	-8.48117	6.08276
17.08479	-8.52511	6.08276
17.08898	-8.52511	6.08276
17.09318	-8.56906	6.08276
17.09737	-8.61300	6.08276
17.10155	-8.65695	6.08276
17.10586	-8.72287	6.08276
17.11007	-8.74484	6.08276
17.11426	-8.74484	6.08276
17.11845	-8.78879	6.08276
17.12263	-8.83273	6.08276
17.12682	-8.87668	6.08276
17.13111	-8.92062	6.08276
17.13553	-8.96457	6.08276
17.13974	-9.00851	6.08276
17.14393	-9.00851	6.08276
17.14812	-9.05246	6.08276
17.15230	-9.09640	6.08276
17.15649	-9.14035	6.08276
17.16067	-9.18429	6.08276
17.16495	-9.22824	6.08276
17.16922	-9.27218	6.08276
17.17341	-9.27218	6.08276
17.17760	-9.31613	6.08276
17.18179	-9.36007	6.08276
17.18598	-9.40402	6.08276
17.19017	-9.44797	6.08276
17.19442	-9.44797	6.08276
17.19870	-9.49191	6.08276
17.20290	-9.55783	6.08276
17.20709	-9.57980	6.08276
17.21128	-9.62375	6.08276
17.21546	-9.66769	6.08276
17.21965	-9.71164	6.08276
17.22384	-9.71164	6.08276
17.22813	-9.75558	6.08276
17.23244	-9.79953	6.08276
17.23663	-9.84347	6.08276
17.24082	-9.88742	6.08276
17.24501	-9.93136	6.08276
17.24919	-9.95334	6.08276
17.25337	-9.95334	6.08276
17.25777	-9.99728	6.08276
17.26199	-10.04123	6.08276
17.26618	-10.08517	6.08276
17.27037	-10.12912	6.08276
17.27456	-10.17306	6.08276
17.27874	-10.17306	6.08276
17.28293	-10.21701	6.08276
17.28720	-10.26095	6.08276
17.29146	-10.30490	6.08276
17.29565	-10.34884	6.08276
17.29984	-10.34884	6.08276
17.30403	-10.37082	6.08276
17.30821	-10.41476	6.08276
17.31240	-10.45871	6.08276
17.31665	-10.50265	6.08276
17.32093	-10.54660	6.08276
17.32513	-10.54660	6.08276
17.32931	-10.59054	6.08276
17.33360	-10.61252	6.08276
17.33779	-10.65646	6.08276
17.34198	-10.70041	6.08276
17.34617	-10.74435	6.08276
17.35047	-10.76632	6.08276
17.35467	-10.76632	6.08276
17.35886	-10.81027	6.08276
17.36305	-10.83224	6.08276
17.36723	-10.87619	6.08276
17.37142	-10.92013	6.08276
17.37560	-10.94211	6.08276
17.38002	-10.98605	6.08276
17.38423	-10.98605	6.08276
17.38842	-11.00802	6.08276
17.39260	-11.05197	6.08276
17.39682	-11.07394	6.08276
17.40106	-11.13986	6.08276
17.40527	-11.13986	6.08276
17.40957	-11.16183	6.08276
17.41386	-11.18381	6.08276
17.41808	-11.22775	6.08276
17.42227	-11.24972	6.08276
17.42645	-11.27170	6.08276
17.43065	-11.31564	6.08276
17.43494	-11.31564	6.08276
17.43923	-11.33761	6.08276
17.44351	-11.38156	6.08276
17.44771	-11.40353	6.08276
17.45191	-11.44748	6.08276
17.45609	-11.46945	6.08276
17.46028	-11.49142	6.08276
17.46446	-11.49142	6.08276
17.46865	-11.53537	6.08276
17.47295	-11.55734	6.08276
17.47716	-11.57931	6.08276
17.48134	-11.62326	6.08276
17.48553	-11.64523	6.08276
17.48972	-11.64523	6.08276
17.49390	-11.66720	6.08276
17.49807	-11.68918	6.08276
17.50250	-11.71115	6.08276
17.50671	-11.75509	6.08276
17.51090	-11.77707	6.08276
17.51509	-11.79904	6.08276
17.51928	-11.79904	6.08276
17.52347	-11.82101	6.08276
17.52765	-11.84298	6.08276
17.53193	-11.86496	6.08276
17.53630	-11.88693	6.08276
17.54049	-11.88693	6.08276
17.54468	-11.93088	6.08276
17.54886	-11.93088	6.08276
17.55305	-11.97482	6.08276
17.55724	-11.97482	6.08276
17.56150	-11.99679	6.08276
17.56578	-11.99679	6.08276
17.57000	-12.04074	6.08276
17.57419	-12.06271	6.08276
17.57838	-12.08468	6.08276
17.58256	-12.08468	6.08276
17.58675	-12.12863	6.08276
17.59093	-12.12863	6.08276
17.59523	-12.12863	6.08276
17.59944	-12.15060	6.08276
17.60363	-12.17257	6.08276
17.60782	-12.19455	6.08276
17.61200	-12.21652	6.08276
17.61619	-12.21652	6.08276
17.62038	-12.21652	6.08276
17.62478	-12.23849	6.08276
17.62899	-12.26047	6.08276
17.63318	-12.28244	6.08276
17.63747	-12.30441	6.08276
17.64166	-12.30441	6.08276
17.64584	-12.30441	6.08276
17.65004	-12.32638	6.08276
17.65431	-12.32638	6.08276
17.65857	-12.34836	6.08276
17.66276	-12.37033	6.08276
17.66695	-12.37033	6.08276
17.67114	-12.37033	6.08276
17.67533	-12.39230	6.08276
17.67951	-12.39230	6.08276
17.68377	-12.41427	6.08276
17.68805	-12.43625	6.08276
17.69224	-12.43625	6.08276
17.69643	-12.45822	6.08276
17.70062	-12.45822	6.08276
17.70481	-12.48019	6.08276
17.70899	-12.48019	6.08276
17.71318	-12.50216	6.08276
17.71747	-12.50216	6.08276
17.72168	-12.50216	6.08276
17.72587	-12.50216	6.08276
17.73006	-12.52414	6.08276
17.73425	-12.52414	6.08276
17.73853	-12.52414	6.08276
17.74272	-12.52414	6.08276
17.74712	-12.54611	6.08276
17.75133	-12.54611	6.08276
17.75552	-12.54611	6.08276
17.75970	-12.56808	6.08276
17.76389	-12.56808	6.08276
17.76807	-12.56808	6.08276
17.77226	-12.56808	6.08276
17.77653	-12.56808	6.08276
17.78079	-12.56808	6.08276
17.78499	-12.59006	6.08276
17.78918	-12.59006	6.08276
17.79336	-12.59006	6.08276
17.79755	-12.61203	6.08276
17.80173	-12.61203	6.08276
17.80600	-12.61203	6.08276
17.81027	-12.61203	6.08276
17.81447	-12.61203	6.08276
17.81866	-12.61203	6.08276
17.82285	-12.61203	6.08276
17.82703	-12.61203	6.08276
17.83121	-12.61203	6.08276
17.83540	-12.61203	6.08276
17.83980	-12.61203	6.08276
17.84400	-12.63400	6.08276
17.84819	-12.63400	6.08276
17.85238	-12.61203	6.08276
17.85656	-12.61203	6.08276
17.86075	-12.61203	6.08276
17.86493	-12.63400	6.08276
17.86933	-12.61203	6.08276
17.87354	-12.63400	6.08276
17.87772	-12.61203	6.08276
17.88191	-12.61203	6.08276
17.88607	-12.61203	6.08276
17.89026	-12.61203	6.08276
17.89444	-12.61203	6.08276
17.89872	-12.61203	6.08276
17.90298	-12.61203	6.08276
17.90717	-12.61203	6.08276
17.91135	-12.61203	6.08276
17.91554	-12.61203	6.08276
17.91973	-12.59006	6.08276
17.92391	-12.59006	6.08276
17.92818	-12.59006	6.08276
17.93245	-12.59006	6.08276
17.93665	-12.59006	6.08276
17.94095	-12.59006	6.08276
17.94513	-12.59006	6.08276
17.94932	-12.56808	6.08276
17.95351	-12.56808	6.08276
17.95769	-12.54611	6.08276
17.96201	-12.54611	6.08276
17.96623	-12.54611	6.08276
17.97042	-12.54611	6.08276
17.97461	-12.54611	6.08276
17.97879	-12.52414	6.08276
17.98298	-12.54611	6.08276
17.98717	-12.52414	6.08276
17.99157	-12.52414	6.08276
17.99578	-12.52414	6.08276
17.99997	-12.50216	6.08276
18.00416	-12.50216	6.08276
18.00834	-12.50216	6.08276
18.01253	-12.50216	6.08276
18.01671	-12.48019	6.08276
18.02098	-12.48019	6.08276
18.02525	-12.45822	6.08276
18.02944	-12.45822	6.08276
18.03363	-12.45822	6.08276
18.03781	-12.43625	6.08276
18.04211	-12.43625	6.08276
18.04629	-12.41427	6.08276
18.05055	-12.43625	6.08276
18.05482	-12.41427	6.08276
18.05902	-12.41427	6.08276
18.06320	-12.39230	6.08276
18.06739	-12.39230	6.08276
18.07158	-12.37033	6.08276
18.07576	-12.37033	6.08276
18.07994	-12.37033	6.08276
18.08424	-12.34836	6.08276
18.08844	-12.34836	6.08276
18.09262	-12.34836	6.08276
18.09681	-12.32638	6.08276
18.10100	-12.30441	6.08276
18.10518	-12.30441	6.08276
18.10937	-12.28244	6.08276
18.11377	-12.28244	6.08276
18.11800	-12.28244	6.08276
18.12219	-12.26047	6.08276
18.12637	-12.26047	6.08276
18.13056	-12.23849	6.08276
18.13474	-12.21652	6.08276
18.13893	-12.21652	6.08276
18.14332	-12.21652	6.08276
18.14757	-12.21652	6.08276
18.15177	-12.19455	6.08276
18.15596	-12.17257	6.08276
18.16014	-12.17257	6.08276
18.16433	-12.15060	6.08276
18.16851	-12.12863	6.08276
18.17276	-12.12863	6.08276
18.17704	-12.10666	6.08276
18.18124	-12.10666	6.08276
18.18543	-12.08468	6.08276
18.18962	-12.08468	6.08276
18.19380	-12.06271	6.08276
18.19800	-12.06271	6.08276
18.20219	-12.04074	6.08276
18.20649	-12.01877	6.08276
18.21069	-12.01877	6.08276
18.21488	-11.99679	6.08276
18.21907	-11.97482	6.08276
18.22326	-11.97482	6.08276
18.22744	-11.97482	6.08276
18.23163	-11.95285	6.08276
18.23605	-11.93088	6.08276
18.24026	-11.93088	6.08276
18.24455	-11.90890	6.08276
18.24874	-11.88693	6.08276
18.25292	-11.88693	6.08276
18.25711	-11.86496	6.08276
18.26130	-11.84298	6.08276
18.26561	-11.84298	6.08276
18.26990	-11.82101	6.08276
18.27410	-11.79904	6.08276
18.27830	-11.77707	6.08276
18.28249	-11.77707	6.08276
18.28669	-11.77707	6.08276
18.29088	-11.75509	6.08276
18.29514	-11.73312	6.08276
18.29944	-11.71115	6.08276
18.30364	-11.68918	6.08276
18.30783	-11.68918	6.08276
18.31202	-11.68918	6.08276
18.31620	-11.66720	6.08276
18.32039	-11.64523	6.08276
18.32457	-11.64523	6.08276
18.32887	-11.64523	6.08276
18.33311	-11.62326	6.08276
18.33730	-11.60129	6.08276
18.34148	-11.57931	6.08276
18.34577	-11.57931	6.08276
18.34997	-11.55734	6.08276
18.35415	-11.55734	6.08276
18.35859	-11.53537	6.08276
18.36280	-11.51339	6.08276
18.36699	-11.51339	6.08276
18.37118	-11.49142	6.08276
18.37536	-11.46945	6.08276
18.37955	-11.44748	6.08276
18.38373	-11.44748	6.08276
18.38800	-11.44748	6.08276
18.39226	-11.42550	6.08276
18.39645	-11.40353	6.08276
18.40064	-11.38156	6.08276
18.40483	-11.35959	6.08276
18.40902	-11.35959	6.08276
18.41320	-11.35959	6.08276
18.41748	-11.33761	6.08276
18.42177	-11.31564	6.08276
18.42598	-11.29367	6.08276
18.43018	-11.27170	6.08276
18.43437	-11.27170	6.08276
18.43856	-11.27170	6.08276
18.44274	-11.24972	6.08276
18.44704	-11.22775	6.08276
18.45134	-11.22775	6.08276
18.45554	-11.20578	6.08276
18.45973	-11.18381	6.08276
18.46392	-11.18381	6.08276
18.46811	-11.16183	6.08276
18.47230	-11.13986	6.08276
18.47649	-11.13986	6.08276
18.48089	-11.09591	6.08276
18.48512	-11.09591	6.08276
18.48932	-11.07394	6.08276
18.49351	-11.07394	6.08276
18.49769	-11.07394	6.08276
18.50188	-11.05197	6.08276
18.50607	-11.03000	6.08276
18.51033	-11.00802	6.08276
18.51460	-10.98605	6.08276
18.51881	-10.98605	6.08276
18.52300	-10.98605	6.08276
18.52719	-10.96408	6.08276
18.53138	-10.94211	6.08276
18.53556	-10.92013	6.08276
18.53983	-10.89816	6.08276
18.54411	-10.89816	6.08276
18.54840	-10.89816	6.08276
18.55261	-10.87619	6.08276
18.55679	-10.85422	6.08276
18.56098	-10.83224	6.08276
18.56517	-10.83224	6.08276
18.56935	-10.83224	6.08276
18.57365	-10.81027	6.08276
18.57785	-10.78830	6.08276
18.58205	-10.76632	6.08276
18.58624	-10.76632	6.08276
18.59042	-10.72238	6.08276
18.59461	-10.72238	6.08276
18.59880	-10.72238	6.08276
18.60321	-10.70041	6.08276
18.60741	-10.67843	6.08276
18.61161	-10.65646	6.08276
18.61580	-10.65646	6.08276
18.61999	-10.63449	6.08276
18.62418	-10.63449	6.08276
18.62836	-10.61252	6.08276
18.63264	-10.59054	6.08276
18.63691	-10.59054	6.08276
18.64110	-10.56857	6.08276
18.64529	-10.56857	6.08276
18.64958	-10.54660	6.08276
18.65377	-10.52463	6.08276
18.65796	-10.50265	6.08276
18.66223	-10.50265	6.08276
18.66651	-10.48068	6.08276
18.67072	-10.48068	6.08276
18.67491	-10.48068	6.08276
18.67909	-10.45871	6.08276
18.68328	-10.43673	6.08276
18.68746	-10.41476	6.08276
18.69165	-10.41476	6.08276
18.69594	-10.39279	6.08276
18.70016	-10.37082	6.08276
18.70435	-10.37082	6.08276
18.70853	-10.37082	6.08276
18.71272	-10.34884	6.08276
18.71691	-10.32687	6.08276
18.72109	-10.32687	6.08276
18.72549	-10.32687	6.08276
18.72970	-10.32687	6.08276
18.73390	-10.30490	6.08276
18.73808	-10.28293	6.08276
18.74227	-10.26095	6.08276
18.74645	-10.26095	6.08276
18.75074	-10.23898	6.08276
18.75501	-10.23898	6.08276
18.75926	-10.23898	6.08276
18.76346	-10.21701	6.08276
18.76765	-10.21701	6.08276
18.77184	-10.19504	6.08276
18.77602	-10.17306	6.08276
18.78021	-10.17306	6.08276
18.78447	-10.17306	6.08276
18.78875	-10.15109	6.08276
18.79294	-10.15109	6.08276
18.79713	-10.12912	6.08276
18.80132	-10.12912	6.08276
18.80551	-10.12912	6.08276
18.80970	-10.12912	6.08276
18.81388	-10.10714	6.08276
18.81819	-10.08517	6.08276
18.82239	-10.08517	6.08276
18.82658	-10.08517	6.08276
18.83077	-10.08517	6.08276
18.83496	-10.06320	6.08276
18.83914	-10.06320	6.08276
18.84333	-10.04123	6.08276
18.84771	-10.04123	6.08276
18.85203	-10.01925	6.08276
18.85622	-10.01925	6.08276
18.86040	-10.01925	6.08276
18.86459	-9.99728	6.08276
18.86877	-9.99728	6.08276
18.87296	-9.99728	6.08276
18.87723	-9.99728	6.08276
18.88148	-9.97531	6.08276
18.88568	-9.97531	6.08276
18.88987	-9.97531	6.08276
18.89406	-9.97531	6.08276
18.89825	-9.95334	6.08276
18.90243	-9.95334	6.08276
18.90668	-9.95334	6.08276
18.91095	-9.93136	6.08276
18.91515	-9.93136	6.08276
18.91933	-9.93136	6.08276
18.92352	-9.93136	6.08276
18.92771	-9.93136	6.08276
18.93189	-9.93136	6.08276
18.93608	-9.93136	6.08276
18.94038	-9.90939	6.08276
18.94458	-9.90939	6.08276
18.94877	-9.90939	6.08276
18.95306	-9.90939	6.08276
18.95728	-9.90939	6.08276
18.96147	-9.88742	6.08276
18.96566	-9.88742	6.08276
18.97010	-9.88742	6.08276
18.97431	-9.88742	6.08276
18.97850	-9.88742	6.08276
18.98269	-9.88742	6.08276
18.98687	-9.88742	6.08276
18.99106	-9.88742	6.08276
18.99524	-9.88742	6.08276
18.99951	-9.88742	6.08276
19.00378	-9.88742	6.08276
19.00797	-9.86545	6.08276
19.01215	-9.88742	6.08276
19.01634	-9.86545	6.08276
19.02053	-9.86545	6.08276
19.02471	-9.88742	6.08276
19.02897	-9.88742	6.08276
19.03326	-9.86545	6.08276
19.03746	-9.88742	6.08276
19.04165	-9.88742	6.08276
19.04583	-9.88742	6.08276
19.05003	-9.88742	6.08276
19.05431	-9.88742	6.08276
19.05850	-9.88742	6.08276
19.06280	-9.88742	6.08276
19.06701	-9.88742	6.08276
19.07119	-9.88742	6.08276
19.07538	-9.88742	6.08276
19.07956	-9.88742	6.08276
19.08375	-9.88742	6.08276
19.08793	-9.88742	6.08276
19.09232	-9.88742	6.08276
19.09653	-9.88742	6.08276
19.10072	-9.90939	6.08276
19.10490	-9.90939	6.08276
19.10909	-9.90939	6.08276
19.11327	-9.90939	6.08276
19.11746	-9.90939	6.08276
19.12174	-9.90939	6.08276
19.12601	-9.90939	6.08276
19.13020	-9.90939	6.08276
19.13439	-9.93136	6.08276
19.13860	-9.93136	6.08276
19.14279	-9.93136	6.08276
19.14697	-9.93136	6.08276
19.15123	-9.95334	6.08276
19.15562	-9.95334	6.08276
19.15982	-9.95334	6.08276
19.16400	-9.95334	6.08276
19.16819	-9.95334	6.08276
19.17238	-9.97531	6.08276
19.17656	-9.97531	6.08276
19.18075	-9.97531	6.08276
19.18505	-9.97531	6.08276
19.18925	-9.99728	6.08276
19.19344	-9.99728	6.08276
19.19763	-9.99728	6.08276
19.20181	-9.99728	6.08276
19.20601	-10.01925	6.08276
19.21020	-10.01925	6.08276
19.21460	-10.01925	6.08276
19.21881	-10.01925	6.08276
19.22300	-10.04123	6.08276
19.22719	-10.04123	6.08276
19.23138	-10.04123	6.08276
19.23556	-10.06320	6.08276
19.23975	-10.06320	6.08276
19.24401	-10.06320	6.08276
19.24827	-10.08517	6.08276
19.25247	-10.08517	6.08276
19.25676	-10.08517	6.08276
19.26094	-10.08517	6.08276
19.26515	-10.10714	6.08276
19.26934	-10.10714	6.08276
19.27360	-10.12912	6.08276
19.27788	-10.12912	6.08276
19.28209	-10.12912	6.08276
19.28628	-10.15109	6.08276
19.29047	-10.15109	6.08276
19.29465	-10.17306	6.08276
19.29884	-10.17306	6.08276
19.30303	-10.17306	6.08276
19.30732	-10.19504	6.08276
19.31153	-10.19504	6.08276
19.31573	-10.19504	6.08276
19.31992	-10.21701	6.08276
19.32411	-10.21701	6.08276
19.32829	-10.21701	6.08276
19.33248	-10.21701	6.08276
19.33689	-10.23898	6.08276
19.34110	-10.26095	6.08276
19.34529	-10.26095	6.08276
19.34948	-10.26095	6.08276
19.35367	-10.28293	6.08276
19.35797	-10.28293	6.08276
19.36215	-10.30490	6.08276
19.36642	-10.30490	6.08276
19.37068	-10.32687	6.08276
19.37487	-10.32687	6.08276
19.37905	-10.32687	6.08276
19.38324	-10.34884	6.08276
19.38742	-10.34884	6.08276
19.39161	-10.37082	6.08276
19.39587	-10.37082	6.08276
19.40016	-10.37082	6.08276
19.40436	-10.39279	6.08276
19.40855	-10.39279	6.08276
19.41274	-10.39279	6.08276
19.41692	-10.41476	6.08276
19.42111	-10.41476	6.08276
19.42529	-10.43673	6.08276
19.42960	-10.43673	6.08276
19.43382	-10.45871	6.08276
19.43802	-10.45871	6.08276
19.44220	-10.48068	6.08276
19.44639	-10.50265	6.08276
19.45058	-10.50265	6.08276
19.45476	-10.50265	6.08276
19.45932	-10.52463	6.08276
19.46352	-10.52463	6.08276
19.46771	-10.54660	6.08276
19.47191	-10.54660	6.08276
19.47610	-10.54660	6.08276
19.48028	-10.56857	6.08276
19.48447	-10.56857	6.08276
19.48875	-10.59054	6.08276
19.49304	-10.59054	6.08276
19.49725	-10.59054	6.08276
19.50145	-10.61252	6.08276
19.50564	-10.61252	6.08276
19.50982	-10.63449	6.08276
19.51401	-10.65646	6.08276
19.51829	-10.65646	6.08276
19.52259	-10.65646	6.08276
19.52679	-10.67843	6.08276
19.53098	-10.67843	6.08276
19.53518	-10.67843	6.08276
19.53937	-10.70041	6.08276
19.54356	-10.70041	6.08276
19.54774	-10.72238	6.08276
19.55204	-10.72238	6.08276
19.55624	-10.74435	6.08276
19.56053	-10.74435	6.08276
19.56471	-10.76632	6.08276
19.56890	-10.76632	6.08276
19.57308	-10.76632	6.08276
19.57727	-10.76632	6.08276
19.58168	-10.78830	6.08276
19.58590	-10.78830	6.08276
19.59008	-10.81027	6.08276
19.59426	-10.83224	6.08276
19.59845	-10.83224	6.08276
19.60264	-10.83224	6.08276
19.60682	-10.85422	6.08276
19.61109	-10.85422	6.08276
19.61536	-10.87619	6.08276
19.61957	-10.87619	6.08276
19.62376	-10.87619	6.08276
19.62794	-10.87619	6.08276
19.63213	-10.89816	6.08276
19.63632	-10.89816	6.08276
19.64059	-10.92013	6.08276
19.64487	-10.92013	6.08276
19.64908	-10.92013	6.08276
19.65326	-10.92013	6.08276
19.65745	-10.94211	6.08276
19.66174	-10.94211	6.08276
19.66592	-10.96408	6.08276
19.67007	-10.96408	6.08276
19.67437	-10.96408	6.08276
19.67857	-10.98605	6.08276
19.68276	-10.98605	6.08276
19.68695	-10.98605	6.08276
19.69113	-11.00802	6.08276
19.69532	-11.00802	6.08276
19.69950	-11.03000	6.08276
19.70391	-11.03000	6.08276
19.70812	-11.03000	6.08276
19.71231	-11.03000	6.08276
19.71650	-11.05197	6.08276
19.72068	-11.05197	6.08276
19.72486	-11.07394	6.08276
19.72905	-11.07394	6.08276
19.73332	-11.07394	6.08276
19.73758	-11.07394	6.08276
19.74177	-11.09591	6.08276
19.74597	-11.09591	6.08276
19.75015	-11.09591	6.08276
19.75434	-11.09591	6.08276
19.75853	-11.09591	6.08276
19.76290	-11.09591	6.08276
19.76718	-11.11789	6.08276
19.77137	-11.11789	6.08276
19.77556	-11.11789	6.08276
19.77974	-11.11789	6.08276
19.78393	-11.11789	6.08276
19.78811	-11.13986	6.08276
19.79229	-11.13986	6.08276
19.79659	-11.13986	6.08276
19.80080	-11.16183	6.08276
19.80498	-11.16183	6.08276
19.80917	-11.16183	6.08276
19.81335	-11.16183	6.08276
19.81755	-11.16183	6.08276
19.82174	-11.16183	6.08276
19.82618	-11.16183	6.08276
19.83039	-11.16183	6.08276
19.83457	-11.18381	6.08276
19.83876	-11.18381	6.08276
19.84294	-11.18381	6.08276
19.84713	-11.18381	6.08276
19.85131	-11.18381	6.08276
19.85558	-11.18381	6.08276
19.85984	-11.18381	6.08276
19.86414	-11.18381	6.08276
19.86833	-11.20578	6.08276
19.87251	-11.20578	6.08276
19.87670	-11.20578	6.08276
19.88088	-11.20578	6.08276
19.88513	-11.20578	6.08276
19.88941	-11.20578	6.08276
19.89360	-11.20578	6.08276
19.89779	-11.20578	6.08276
19.90200	-11.20578	6.08276
19.90619	-11.20578	6.08276
19.91038	-11.20578	6.08276
19.91457	-11.20578	6.08276
19.91887	-11.20578	6.08276
19.92307	-11.20578	6.08276
19.92726	-11.20578	6.08276
19.93144	-11.20578	6.08276
19.93563	-11.20578	6.08276
19.93982	-11.20578	6.08276
19.94400	-11.20578	6.08276
19.94841	-11.20578	6.08276
19.95263	-11.20578	6.08276
19.95682	-11.20578	6.08276
19.96101	-11.20578	6.08276
19.96530	-11.20578	6.08276
19.96948	-11.20578	6.08276
19.97367	-11.20578	6.08276
19.97795	-11.20578	6.08276
19.98222	-11.20578	6.08276
19.98641	-11.20578	6.08276
19.99060	-11.20578	6.08276
19.99478	-11.20578	6.08276
19.99897	-11.20578	6.08276
20.00315	-11.20578	6.08276
20.00741	-11.18381	6.08276
20.01169	-11.18381	6.08276
20.01589	-11.18381	6.08276
20.02008	-11.18381	6.08276
20.02427	-11.18381	6.08276
20.02845	-11.18381	6.08276
20.03264	-11.18381	6.08276
20.03682	-11.18381	6.08276
20.04111	-11.18381	6.08276
20.04532	-11.18381	6.08276
20.04951	-11.16183	6.08276
20.05369	-11.16183	6.08276
20.05788	-11.16183	6.08276
20.06207	-11.16183	6.08276
20.06636	-11.16183	6.08276
20.07077	-11.13986	6.08276
20.07497	-11.13986	6.08276
20.07916	-11.13986	6.08276
20.08335	-11.13986	6.08276
20.08754	-11.13986	6.08276
20.09172	-11.11789	6.08276
20.09590	-11.11789	6.08276
20.10018	-11.11789	6.08276
20.10444	-11.11789	6.08276
20.10863	-11.11789	6.08276
20.11281	-11.09591	6.08276
20.11700	-11.09591	6.08276
20.12119	-11.09591	6.08276
20.12537	-11.09591	6.08276
20.12962	-11.09591	6.08276
20.13390	-11.07394	6.08276
20.13809	-11.07394	6.08276
20.14227	-11.07394	6.08276
20.14646	-11.07394	6.08276
20.15064	-11.05197	6.08276
20.15483	-11.05197	6.08276
20.15901	-11.05197	6.08276
20.16330	-11.03000	6.08276
20.16761	-11.03000	6.08276
20.17180	-11.03000	6.08276
20.17598	-11.03000	6.08276
20.18017	-11.03000	6.08276
20.18435	-11.00802	6.08276
20.18854	-11.00802	6.08276
20.19294	-11.00802	6.08276
20.19714	-10.98605	6.08276
20.20134	-10.98605	6.08276
20.20552	-10.98605	6.08276
20.20971	-10.96408	6.08276
20.21390	-10.96408	6.08276
20.21816	-10.96408	6.08276
20.22251	-10.94211	6.08276
20.22683	-10.94211	6.08276
20.23104	-10.94211	6.08276
20.23526	-10.92013	6.08276
20.23946	-10.92013	6.08276
20.24366	-10.92013	6.08276
20.24785	-10.89816	6.08276
20.25211	-10.89816	6.08276
20.25646	-10.87619	6.08276
20.26067	-10.87619	6.08276
20.26486	-10.87619	6.08276
20.26918	-10.85422	6.08276
20.27339	-10.85422	6.08276
20.27758	-10.85422	6.08276
20.28177	-10.83224	6.08276
20.28614	-10.83224	6.08276
20.29035	-10.83224	6.08276
20.29455	-10.81027	6.08276
20.29874	-10.81027	6.08276
20.30294	-10.78830	6.08276
20.30712	-10.78830	6.08276
20.31131	-10.78830	6.08276
20.31575	-10.78830	6.08276
20.31998	-10.76632	6.08276
20.32418	-10.74435	6.08276
20.32838	-10.74435	6.08276
20.33258	-10.72238	6.08276
20.33678	-10.72238	6.08276
20.34097	-10.72238	6.08276
20.34530	-10.70041	6.08276
20.34957	-10.70041	6.08276
20.35378	-10.67843	6.08276
20.35797	-10.67843	6.08276
20.36216	-10.65646	6.08276
20.36634	-10.65646	6.08276
20.37064	-10.65646	6.08276
20.37489	-10.63449	6.08276
20.37918	-10.61252	6.08276
20.38338	-10.61252	6.08276
20.38757	-10.59054	6.08276
20.39175	-10.59054	6.08276
20.39594	-10.59054	6.08276
20.40012	-10.56857	6.08276
20.40431	-10.56857	6.08276
20.40861	-10.54660	6.08276
20.41281	-10.52463	6.08276
20.41702	-10.52463	6.08276
20.42122	-10.52463	6.08276
20.42542	-10.50265	6.08276
20.42961	-10.48068	6.08276
20.43381	-10.48068	6.08276
20.43828	-10.45871	6.08276
20.44249	-10.45871	6.08276
20.44669	-10.45871	6.08276
20.45089	-10.43673	6.08276
20.45509	-10.43673	6.08276
20.45929	-10.41476	6.08276
20.46348	-10.39279	6.08276
20.46775	-10.39279	6.08276
20.47214	-10.39279	6.08276
20.47633	-10.37082	6.08276
20.48052	-10.34884	6.08276
20.48470	-10.34884	6.08276
20.48889	-10.32687	6.08276
20.49308	-10.32687	6.08276
20.49736	-10.30490	6.08276
20.50164	-10.30490	6.08276
20.50584	-10.30490	6.08276
20.51004	-10.28293	6.08276
20.51423	-10.26095	6.08276
20.51843	-10.26095	6.08276
20.52262	-10.26095	6.08276
20.52682	-10.26095	6.08276
20.53113	-10.23898	6.08276
20.53534	-10.21701	6.08276
20.53952	-10.19504	6.08276
20.54371	-10.19504	6.08276
20.54790	-10.17306	6.08276
20.55208	-10.17306	6.08276
20.55627	-10.17306	6.08276
20.56068	-10.15109	6.08276
20.56489	-10.15109	6.08276
20.56908	-10.12912	6.08276
20.57337	-10.10714	6.08276
20.57756	-10.10714	6.08276
20.58174	-10.10714	6.08276
20.58593	-10.08517	6.08276
20.59017	-10.08517	6.08276
20.59445	-10.06320	6.08276
20.59865	-10.04123	6.08276
20.60283	-10.04123	6.08276
20.60702	-10.04123	6.08276
20.61121	-10.04123	6.08276
20.61541	-10.01925	6.08276
20.61967	-9.99728	6.08276
20.62396	-9.99728	6.08276
20.62818	-9.97531	6.08276
20.63236	-9.97531	6.08276
20.63655	-9.95334	6.08276
20.64075	-9.95334	6.08276
20.64494	-9.93136	6.08276
20.64912	-9.93136	6.08276
20.65343	-9.93136	6.08276
20.65763	-9.90939	6.08276
20.66182	-9.90939	6.08276
20.66602	-9.88742	6.08276
20.67021	-9.88742	6.08276
20.67450	-9.86545	6.08276
20.67869	-9.86545	6.08276
20.68310	-9.86545	6.08276
20.68731	-9.84347	6.08276
20.69150	-9.84347	6.08276
20.69568	-9.82150	6.08276
20.69987	-9.82150	6.08276
20.70405	-9.82150	6.08276
20.70824	-9.79953	6.08276
20.71252	-9.79953	6.08276
20.71680	-9.79953	6.08276
20.72100	-9.77756	6.08276
20.72519	-9.77756	6.08276
20.72939	-9.75558	6.08276
20.73358	-9.75558	6.08276
20.73778	-9.75558	6.08276
20.74205	-9.75558	6.08276
20.74635	-9.73361	6.08276
20.75056	-9.73361	6.08276
20.75475	-9.73361	6.08276
20.75893	-9.71164	6.08276
20.76312	-9.71164	6.08276
20.76730	-9.71164	6.08276
20.77149	-9.71164	6.08276
20.77589	-9.68966	6.08276
20.78009	-9.68966	6.08276
20.78428	-9.66769	6.08276
20.78847	-9.66769	6.08276
20.79265	-9.66769	6.08276
20.79684	-9.66769	6.08276
20.80102	-9.64572	6.08276
20.80543	-9.64572	6.08276
20.80964	-9.64572	6.08276
20.81382	-9.62375	6.08276
20.81804	-9.62375	6.08276
20.82223	-9.62375	6.08276
20.82643	-9.62375	6.08276
20.83061	-9.62375	6.08276
20.83489	-9.60177	6.08276
20.83915	-9.60177	6.08276
20.84335	-9.60177	6.08276
20.84754	-9.60177	6.08276
20.85172	-9.60177	6.08276
20.85591	-9.57980	6.08276
20.86009	-9.57980	6.08276
20.86435	-9.57980	6.08276
20.86862	-9.57980	6.08276
20.87282	-9.55783	6.08276
20.87711	-9.55783	6.08276
20.88129	-9.55783	6.08276
20.88548	-9.55783	6.08276
20.88967	-9.55783	6.08276
20.89385	-9.55783	6.08276
20.89816	-9.53586	6.08276
20.90236	-9.55783	6.08276
20.90655	-9.53586	6.08276
20.91073	-9.53586	6.08276
20.91497	-9.53586	6.08276
20.91916	-9.53586	6.08276
20.92336	-9.53586	6.08276
20.92778	-9.53586	6.08276
20.93199	-9.53586	6.08276
20.93618	-9.51388	6.08276
20.94037	-9.53586	6.08276
20.94455	-9.53586	6.08276
20.94874	-9.51388	6.08276
20.95292	-9.51388	6.08276
20.95719	-9.51388	6.08276
20.96146	-9.51388	6.08276
20.96566	-9.51388	6.08276
20.96985	-9.51388	6.08276
20.97404	-9.51388	6.08276
20.97833	-9.51388	6.08276
20.98252	-9.51388	6.08276
20.98677	-9.51388	6.08276
20.99104	-9.51388	6.08276
20.99525	-9.51388	6.08276
20.99944	-9.51388	6.08276
21.00362	-9.51388	6.08276
21.00781	-9.51388	6.08276
21.01199	-9.51388	6.08276
21.01620	-9.51388	6.08276
21.02050	-9.51388	6.08276
21.02471	-9.51388	6.08276
21.02890	-9.51388	6.08276
21.03309	-9.51388	6.08276
21.03728	-9.51388	6.08276
21.04147	-9.51388	6.08276
21.04566	-9.51388	6.08276
21.05010	-9.51388	6.08276
21.05431	-9.53586	6.08276
21.05850	-9.53586	6.08276
21.06268	-9.53586	6.08276
21.06687	-9.53586	6.08276
21.07106	-9.53586	6.08276
21.07524	-9.53586	6.08276
21.07965	-9.53586	6.08276
21.08391	-9.53586	6.08276
21.08810	-9.53586	6.08276
21.09229	-9.53586	6.08276
21.09656	-9.53586	6.08276
21.10076	-9.53586	6.08276
21.10495	-9.55783	6.08276
21.10919	-9.55783	6.08276
21.11347	-9.55783	6.08276
21.11770	-9.55783	6.08276
21.12189	-9.55783	6.08276
21.12608	-9.57980	6.08276
21.13027	-9.57980	6.08276
21.13446	-9.57980	6.08276
21.13864	-9.57980	6.08276
21.14294	-9.57980	6.08276
21.14714	-9.57980	6.08276
21.15133	-9.60177	6.08276
21.15553	-9.60177	6.08276
21.15972	-9.60177	6.08276
21.16390	-9.60177	6.08276
21.16809	-9.62375	6.08276
21.17252	-9.62375	6.08276
21.17674	-9.62375	6.08276
21.18105	-9.64572	6.08276
21.18525	-9.62375	6.08276
21.18944	-9.62375	6.08276
21.19363	-9.64572	6.08276
21.19782	-9.64572	6.08276
21.20215	-9.66769	6.08276
21.20642	-9.64572	6.08276
21.21061	-9.64572	6.08276
21.21480	-9.66769	6.08276
21.21900	-9.66769	6.08276
21.22321	-9.68966	6.08276
21.22741	-9.68966	6.08276
21.23168	-9.71164	6.08276
21.23596	-9.71164	6.08276
21.24016	-9.71164	6.08276
21.24435	-9.73361	6.08276
21.24853	-9.73361	6.08276
21.25272	-9.73361	6.08276
21.25691	-9.75558	6.08276
21.26109	-9.75558	6.08276
21.26538	-9.75558	6.08276
21.26958	-9.75558	6.08276
21.27377	-9.75558	6.08276
21.27797	-9.77756	6.08276
21.28225	-9.77756	6.08276
21.28644	-9.77756	6.08276
21.29062	-9.77756	6.08276
21.29502	-9.79953	6.08276
21.29923	-9.79953	6.08276
21.30342	-9.82150	6.08276
21.30761	-9.82150	6.08276
21.31179	-9.82150	6.08276
21.31599	-9.84347	6.08276
21.32019	-9.84347	6.08276
21.32446	-9.84347	6.08276
21.32873	-9.84347	6.08276
21.33294	-9.86545	6.08276
21.33714	-9.86545	6.08276
21.34133	-9.88742	6.08276
21.34551	-9.88742	6.08276
21.34970	-9.88742	6.08276
21.35398	-9.88742	6.08276
21.35827	-9.90939	6.08276
21.36246	-9.90939	6.08276
21.36665	-9.93136	6.08276
21.37084	-9.93136	6.08276
21.37503	-9.93136	6.08276
21.37921	-9.93136	6.08276
21.38350	-9.93136	6.08276
21.38780	-9.95334	6.08276
21.39200	-9.95334	6.08276
21.39619	-9.95334	6.08276
21.40037	-9.95334	6.08276
21.40456	-9.97531	6.08276
21.40874	-9.97531	6.08276
21.41293	-9.99728	6.08276
21.41737	-9.99728	6.08276
21.42158	-9.99728	6.08276
21.42577	-9.99728	6.08276
21.42998	-10.01925	6.08276
21.43418	-10.01925	6.08276
21.43837	-10.01925	6.08276
21.44256	-10.04123	6.08276
21.44683	-10.04123	6.08276
21.45110	-10.04123	6.08276
21.45530	-10.04123	6.08276
21.45949	-10.06320	6.08276
21.46367	-10.06320	6.08276
21.46786	-10.06320	6.08276
21.47204	-10.08517	6.08276
21.47630	-10.08517	6.08276
21.48058	-10.08517	6.08276
21.48489	-10.08517	6.08276
21.48908	-10.10714	6.08276
21.49327	-10.10714	6.08276
21.49745	-10.10714	6.08276
21.50163	-10.10714	6.08276
21.50582	-10.10714	6.08276
21.51013	-10.12912	6.08276
21.51433	-10.12912	6.08276
21.51854	-10.12912	6.08276
21.52273	-10.15109	6.08276
21.52692	-10.15109	6.08276
21.53111	-10.15109	6.08276
21.53529	-10.15109	6.08276
21.53970	-10.17306	6.08276
21.54392	-10.17306	6.08276
21.54811	-10.19504	6.08276
21.55230	-10.19504	6.08276
21.55650	-10.19504	6.08276
21.56069	-10.19504	6.08276
21.56487	-10.19504	6.08276
21.56914	-10.21701	6.08276
21.57341	-10.21701	6.08276
21.57760	-10.21701	6.08276
21.58179	-10.21701	6.08276
21.58609	-10.21701	6.08276
21.59027	-10.23898	6.08276
21.59446	-10.23898	6.08276
21.59871	-10.23898	6.08276
21.60299	-10.23898	6.08276
21.60719	-10.26095	6.08276
21.61137	-10.26095	6.08276
21.61556	-10.26095	6.08276
21.61976	-10.26095	6.08276
21.62394	-10.26095	6.08276
21.62814	-10.26095	6.08276
21.63244	-10.28293	6.08276
21.63666	-10.28293	6.08276
21.64085	-10.28293	6.08276
21.64503	-10.28293	6.08276
21.64922	-10.30490	6.08276
21.65340	-10.30490	6.08276
21.65759	-10.30490	6.08276
21.66200	-10.30490	6.08276
21.66621	-10.30490	6.08276
21.67040	-10.30490	6.08276
21.67458	-10.32687	6.08276
21.67877	-10.32687	6.08276
21.68295	-10.32687	6.08276
21.68723	-10.32687	6.08276
21.69150	-10.32687	6.08276
21.69576	-10.32687	6.08276
21.69996	-10.32687	6.08276
21.70414	-10.32687	6.08276
21.70833	-10.34884	6.08276
21.71251	-10.34884	6.08276
21.71672	-10.34884	6.08276
21.72098	-10.34884	6.08276
21.72527	-10.34884	6.08276
21.72947	-10.34884	6.08276
21.73368	-10.34884	6.08276
21.73787	-10.34884	6.08276
21.74206	-10.34884	6.08276
21.74624	-10.34884	6.08276
21.75043	-10.37082	6.08276
21.75472	-10.37082	6.08276
21.75892	-10.37082	6.08276
21.76311	-10.37082	6.08276
21.76729	-10.37082	6.08276
21.77148	-10.37082	6.08276
21.77566	-10.37082	6.08276
21.77985	-10.37082	6.08276
21.78424	-10.37082	6.08276
21.78855	-10.37082	6.08276
21.79274	-10.37082	6.08276
21.79692	-10.37082	6.08276
21.80111	-10.37082	6.08276
21.80529	-10.37082	6.08276
21.80948	-10.37082	6.08276
21.81375	-10.37082	6.08276
21.81804	-10.37082	6.08276
21.82223	-10.37082	6.08276
21.82642	-10.37082	6.08276
21.83062	-10.37082	6.08276
21.83480	-10.37082	6.08276
21.83899	-10.37082	6.08276
21.84324	-10.37082	6.08276
21.84752	-10.37082	6.08276
21.85172	-10.37082	6.08276
21.85591	-10.37082	6.08276
21.86009	-10.37082	6.08276
21.86428	-10.37082	6.08276
21.86846	-10.37082	6.08276
21.87265	-10.37082	6.08276
21.87695	-10.37082	6.08276
21.88116	-10.37082	6.08276
21.88535	-10.34884	6.08276
21.88964	-10.37082	6.08276
21.89382	-10.34884	6.08276
21.89802	-10.37082	6.08276
21.90220	-10.37082	6.08276
21.90660	-10.34884	6.08276
21.91081	-10.34884	6.08276
21.91500	-10.34884	6.08276
21.91921	-10.34884	6.08276
21.92340	-10.34884	6.08276
21.92759	-10.34884	6.08276
21.93178	-10.34884	6.08276
21.93606	-10.34884	6.08276
21.94033	-10.34884	6.08276
21.94452	-10.34884	6.08276
21.94871	-10.34884	6.08276
21.95290	-10.34884	6.08276
21.95708	-10.34884	6.08276
21.96127	-10.32687	6.08276
21.96551	-10.34884	6.08276
21.96979	-10.32687	6.08276
21.97403	-10.32687	6.08276
21.97823	-10.32687	6.08276
21.98244	-10.32687	6.08276
21.98665	-10.32687	6.08276
21.99100	-10.30490	6.08276
21.99547	-10.30490	6.08276
21.99985	-10.30490	6.08276
22.00408	-10.30490	6.08276
22.00829	-10.30490	6.08276
22.01250	-10.30490	6.08276
22.01671	-10.28293	6.08276
22.02091	-10.28293	6.08276
22.02513	-10.28293	6.08276
22.02969	-10.28293	6.08276
22.03392	-10.28293	6.08276
22.03809	-10.28293	6.08276
22.04228	-10.26095	6.08276
22.04647	-10.26095	6.08276
22.05066	-10.26095	6.08276
22.05485	-10.26095	6.08276
22.05911	-10.23898	6.08276
22.06343	-10.23898	6.08276
22.06765	-10.23898	6.08276
22.07185	-10.23898	6.08276
22.07605	-10.23898	6.08276
22.08024	-10.21701	6.08276
22.08443	-10.21701	6.08276
22.08868	-10.21701	6.08276
22.09308	-10.21701	6.08276
22.09728	-10.21701	6.08276
22.10147	-10.19504	6.08276
22.10565	-10.19504	6.08276
22.10984	-10.19504	6.08276
22.11403	-10.17306	6.08276
22.11822	-10.17306	6.08276
22.12253	-10.17306	6.08276
22.12673	-10.17306	6.08276
22.13092	-10.15109	6.08276
22.13511	-10.15109	6.08276
22.13931	-10.15109	6.08276
22.14349	-10.15109	6.08276
22.14768	-10.12912	6.08276
22.15208	-10.12912	6.08276
22.15629	-10.12912	6.08276
22.16048	-10.12912	6.08276
22.16466	-10.12912	6.08276
22.16885	-10.12912	6.08276
22.17303	-10.10714	6.08276
22.17722	-10.08517	6.08276
22.18148	-10.08517	6.08276
22.18575	-10.08517	6.08276
22.18997	-10.08517	6.08276
22.19427	-10.08517	6.08276
22.19847	-10.06320	6.08276
22.20266	-10.06320	6.08276
22.20685	-10.04123	6.08276
22.21111	-10.04123	6.08276
22.21539	-10.01925	6.08276
22.21971	-10.01925	6.08276
22.22393	-10.01925	6.08276
22.22813	-10.01925	6.08276
22.23233	-9.99728	6.08276
22.23653	-9.99728	6.08276
22.24073	-9.99728	6.08276
22.24505	-9.97531	6.08276
22.24927	-9.97531	6.08276
22.25347	-9.97531	6.08276
22.25767	-9.95334	6.08276
22.26186	-9.95334	6.08276
22.26606	-9.95334	6.08276
22.27025	-9.93136	6.08276
22.27465	-9.93136	6.08276
22.27887	-9.93136	6.08276
22.28306	-9.90939	6.08276
22.28726	-9.90939	6.08276
22.29145	-9.90939	6.08276
22.29575	-9.88742	6.08276
22.29994	-9.88742	6.08276
22.30424	-9.88742	6.08276
22.30851	-9.88742	6.08276
22.31271	-9.86545	6.08276
22.31695	-9.86545	6.08276
22.32116	-9.84347	6.08276
22.32536	-9.84347	6.08276
22.32955	-9.84347	6.08276
22.33385	-9.84347	6.08276
22.33816	-9.82150	6.08276
22.34237	-9.82150	6.08276
22.34657	-9.79953	6.08276
22.35076	-9.79953	6.08276
22.35496	-9.79953	6.08276
22.35915	-9.79953	6.08276
22.36334	-9.77756	6.08276
22.36764	-9.77756	6.08276
22.37185	-9.77756	6.08276
22.37604	-9.75558	6.08276
22.38024	-9.75558	6.08276
22.38443	-9.75558	6.08276
22.38862	-9.75558	6.08276
22.39281	-9.73361	6.08276
22.39738	-9.71164	6.08276
22.40159	-9.71164	6.08276
22.40579	-9.71164	6.08276
22.40999	-9.71164	6.08276
22.41418	-9.68966	6.08276
22.41839	-9.68966	6.08276
22.42259	-9.68966	6.08276
22.42689	-9.66769	6.08276
22.43116	-9.66769	6.08276
22.43537	-9.66769	6.08276
22.43956	-9.64572	6.08276
22.44376	-9.64572	6.08276
22.44796	-9.64572	6.08276
22.45215	-9.62375	6.08276
22.45644	-9.62375	6.08276
22.46072	-9.62375	6.08276
22.46493	-9.62375	6.08276
22.46912	-9.60177	6.08276
22.47331	-9.60177	6.08276
22.47749	-9.60177	6.08276
22.48169	-9.57980	6.08276
22.48588	-9.57980	6.08276
22.49019	-9.57980	6.08276
22.49440	-9.55783	6.08276
22.49870	-9.55783	6.08276
22.50289	-9.55783	6.08276
22.50708	-9.53586	6.08276
22.51126	-9.53586	6.08276
22.51544	-9.53586	6.08276
22.51990	-9.53586	6.08276
22.52413	-9.51388	6.08276
22.52832	-9.51388	6.08276
22.53251	-9.49191	6.08276
22.53670	-9.49191	6.08276
22.54088	-9.49191	6.08276
22.54507	-9.49191	6.08276
22.54933	-9.49191	6.08276
22.55361	-9.46994	6.08276
22.55781	-9.46994	6.08276
22.56201	-9.46994	6.08276
22.56620	-9.44797	6.08276
22.57040	-9.44797	6.08276
22.57458	-9.44797	6.08276
22.57884	-9.44797	6.08276
22.58312	-9.42599	6.08276
22.58732	-9.42599	6.08276
22.59152	-9.42599	6.08276
22.59571	-9.42599	6.08276
22.60001	-9.42599	6.08276
22.60420	-9.40402	6.08276
22.60839	-9.40402	6.08276
22.61268	-9.40402	6.08276
22.61690	-9.40402	6.08276
22.62110	-9.38205	6.08276
22.62530	-9.38205	6.08276
22.62950	-9.38205	6.08276
22.63370	-9.38205	6.08276
22.63789	-9.38205	6.08276
22.64230	-9.38205	6.08276
22.64651	-9.38205	6.08276
22.65070	-9.36007	6.08276
22.65489	-9.36007	6.08276
22.65909	-9.36007	6.08276
22.66328	-9.36007	6.08276
22.66747	-9.36007	6.08276
22.67176	-9.33810	6.08276
22.67602	-9.33810	6.08276
22.68021	-9.33810	6.08276
22.68440	-9.33810	6.08276
22.68859	-9.33810	6.08276
22.69278	-9.33810	6.08276
22.69697	-9.33810	6.08276
22.70134	-9.33810	6.08276
22.70563	-9.33810	6.08276
22.70983	-9.33810	6.08276
22.71404	-9.31613	6.08276
22.71825	-9.31613	6.08276
22.72245	-9.31613	6.08276
22.72665	-9.31613	6.08276
22.73084	-9.31613	6.08276
22.73515	-9.31613	6.08276
22.73935	-9.31613	6.08276
22.74354	-9.31613	6.08276
22.74774	-9.31613	6.08276
22.75196	-9.29416	6.08276
22.75617	-9.29416	6.08276
22.76036	-9.29416	6.08276
22.76481	-9.31613	6.08276
22.76905	-9.31613	6.08276
22.77324	-9.31613	6.08276
22.77743	-9.31613	6.08276
22.78164	-9.31613	6.08276
22.78583	-9.29416	6.08276
22.79004	-9.29416	6.08276
22.79430	-9.29416	6.08276
22.79858	-9.29416	6.08276
22.80289	-9.29416	6.08276
22.80708	-9.31613	6.08276
22.81127	-9.31613	6.08276
22.81545	-9.29416	6.08276
22.81965	-9.29416	6.08276
22.82394	-9.31613	6.08276
22.82823	-9.29416	6.08276
22.83243	-9.31613	6.08276
22.83662	-9.29416	6.08276
22.84081	-9.29416	6.08276
22.84499	-9.31613	6.08276
22.84917	-9.29416	6.08276
22.85336	-9.29416	6.08276
22.85766	-9.29416	6.08276
22.86187	-9.31613	6.08276
22.86606	-9.31613	6.08276
22.87024	-9.29416	6.08276
22.87443	-9.31613	6.08276
22.87861	-9.31613	6.08276
22.88280	-9.31613	6.08276
22.88722	-9.31613	6.08276
22.89143	-9.31613	6.08276
22.89561	-9.31613	6.08276
22.89979	-9.31613	6.08276
22.90408	-9.31613	6.08276
22.90827	-9.33810	6.08276
22.91245	-9.31613	6.08276
22.91670	-9.31613	6.08276
22.92104	-9.31613	6.08276
22.92524	-9.31613	6.08276
22.92944	-9.31613	6.08276
22.93362	-9.31613	6.08276
22.93782	-9.31613	6.08276
22.94202	-9.31613	6.08276
22.94628	-9.31613	6.08276
22.95057	-9.31613	6.08276
22.95477	-9.31613	6.08276
22.95895	-9.33810	6.08276
22.96314	-9.31613	6.08276
22.96732	-9.33810	6.08276
22.97151	-9.33810	6.08276
22.97570	-9.33810	6.08276
22.97999	-9.33810	6.08276
22.98420	-9.33810	6.08276
22.98839	-9.33810	6.08276
22.99257	-9.33810	6.08276
22.99676	-9.33810	6.08276
23.00094	-9.33810	6.08276
23.00523	-9.33810	6.08276
23.00963	-9.33810	6.08276
23.01384	-9.33810	6.08276
23.01806	-9.33810	6.08276
23.02225	-9.33810	6.08276
23.02644	-9.33810	6.08276
23.03062	-9.33810	6.08276
23.03481	-9.33810	6.08276
23.03907	-9.33810	6.08276
23.04335	-9.33810	6.08276
23.04755	-9.33810	6.08276
23.05174	-9.36007	6.08276
23.05593	-9.33810	6.08276
23.06012	-9.36007	6.08276
23.06430	-9.33810	6.08276
23.06855	-9.36007	6.08276
23.07283	-9.36007	6.08276
23.07703	-9.36007	6.08276
23.08122	-9.36007	6.08276
23.08541	-9.36007	6.08276
23.08959	-9.36007	6.08276
23.09377	-9.36007	6.08276
23.09797	-9.36007	6.08276
23.10227	-9.36007	6.08276
23.10657	-9.36007	6.08276
23.11075	-9.36007	6.08276
23.11494	-9.36007	6.08276
23.11915	-9.36007	6.08276
23.12334	-9.36007	6.08276
23.12753	-9.36007	6.08276
23.13193	-9.36007	6.08276
23.13614	-9.36007	6.08276
23.14032	-9.36007	6.08276
23.14451	-9.36007	6.08276
23.14869	-9.36007	6.08276
23.15288	-9.38205	6.08276
23.15706	-9.38205	6.08276
23.16134	-9.36007	6.08276
23.16560	-9.36007	6.08276
23.16979	-9.38205	6.08276
23.17400	-9.36007	6.08276
23.17819	-9.36007	6.08276
23.18237	-9.36007	6.08276
23.18656	-9.36007	6.08276
23.19081	-9.36007	6.08276
23.19508	-9.38205	6.08276
23.19928	-9.36007	6.08276
23.20347	-9.36007	6.08276
23.20776	-9.36007	6.08276
23.21194	-9.36007	6.08276
23.21613	-9.36007	6.08276
23.22033	-9.38205	6.08276
23.22464	-9.38205	6.08276
23.22884	-9.36007	6.08276
23.23303	-9.36007	6.08276
23.23722	-9.36007	6.08276
23.24141	-9.38205	6.08276
23.24559	-9.36007	6.08276
23.24978	-9.36007	6.08276
23.25422	-9.36007	6.08276
23.25842	-9.36007	6.08276
23.26261	-9.36007	6.08276
23.26680	-9.36007	6.08276
23.27098	-9.36007	6.08276
23.27517	-9.36007	6.08276
23.27935	-9.36007	6.08276
23.28361	-9.36007	6.08276
23.28787	-9.36007	6.08276
23.29206	-9.36007	6.08276
23.29625	-9.36007	6.08276
23.30044	-9.36007	6.08276
23.30462	-9.36007	6.08276
23.30891	-9.36007	6.08276
23.31316	-9.36007	6.08276
23.31744	-9.36007	6.08276
23.32165	-9.36007	6.08276
23.32584	-9.36007	6.08276
23.33004	-9.36007	6.08276
23.33423	-9.36007	6.08276
23.33842	-9.36007	6.08276
23.34262	-9.36007	6.08276
23.34692	-9.36007	6.08276
23.35115	-9.36007	6.08276
23.35534	-9.36007	6.08276
23.35952	-9.33810	6.08276
23.36371	-9.33810	6.08276
23.36789	-9.33810	6.08276
23.37208	-9.33810	6.08276
23.37649	-9.33810	6.08276
23.38070	-9.33810	6.08276
23.38489	-9.33810	6.08276
23.38907	-9.33810	6.08276
23.39328	-9.33810	6.08276
23.39748	-9.33810	6.08276
23.40169	-9.33810	6.08276
23.40599	-9.33810	6.08276
23.41038	-9.33810	6.08276
23.41458	-9.33810	6.08276
23.41879	-9.33810	6.08276
23.42298	-9.33810	6.08276
23.42717	-9.33810	6.08276
23.43136	-9.33810	6.08276
23.43564	-9.31613	6.08276
23.43993	-9.33810	6.08276
23.44413	-9.33810	6.08276
23.44834	-9.33810	6.08276
23.45253	-9.33810	6.08276
23.45672	-9.31613	6.08276
23.46091	-9.33810	6.08276
23.46509	-9.33810	6.08276
23.46940	-9.33810	6.08276
23.47361	-9.31613	6.08276
23.47779	-9.31613	6.08276
23.48199	-9.33810	6.08276
23.48617	-9.31613	6.08276
23.49036	-9.31613	6.08276
23.49455	-9.33810	6.08276
23.49895	-9.33810	6.08276
23.50316	-9.31613	6.08276
23.50735	-9.31613	6.08276
23.51163	-9.31613	6.08276
23.51582	-9.31613	6.08276
23.52003	-9.31613	6.08276
23.52422	-9.31613	6.08276
23.52851	-9.31613	6.08276
23.53278	-9.31613	6.08276
23.53698	-9.31613	6.08276
23.54116	-9.31613	6.08276
23.54535	-9.31613	6.08276
23.54953	-9.31613	6.08276
23.55372	-9.31613	6.08276
23.55799	-9.31613	6.08276
23.56227	-9.31613	6.08276
23.56647	-9.31613	6.08276
23.57066	-9.31613	6.08276
23.57485	-9.31613	6.08276
23.57903	-9.31613	6.08276
23.58322	-9.31613	6.08276
23.58740	-9.31613	6.08276
23.59169	-9.31613	6.08276
23.59590	-9.31613	6.08276
23.60009	-9.31613	6.08276
23.60428	-9.31613	6.08276
23.60846	-9.31613	6.08276
23.61275	-9.31613	6.08276
23.61694	-9.31613	6.08276
23.62136	-9.31613	6.08276
23.62558	-9.31613	6.08276
23.62977	-9.31613	6.08276
23.63397	-9.31613	6.08276
23.63816	-9.31613	6.08276
23.64235	-9.31613	6.08276
23.64653	-9.31613	6.08276
23.65080	-9.31613	6.08276
23.65507	-9.31613	6.08276
23.65926	-9.31613	6.08276
23.66345	-9.31613	6.08276
23.66763	-9.31613	6.08276
23.67182	-9.31613	6.08276
23.67601	-9.31613	6.08276
23.68026	-9.31613	6.08276
23.68454	-9.31613	6.08276
23.68873	-9.31613	6.08276
23.69292	-9.31613	6.08276
23.69710	-9.31613	6.08276
23.70129	-9.31613	6.08276
23.70547	-9.33810	6.08276
23.70966	-9.33810	6.08276
23.71408	-9.31613	6.08276
23.71829	-9.31613	6.08276
23.72249	-9.31613	6.08276
23.72668	-9.31613	6.08276
23.73087	-9.31613	6.08276
23.73505	-9.31613	6.08276
23.73924	-9.33810	6.08276
23.74364	-9.33810	6.08276
23.74785	-9.33810	6.08276
23.75206	-9.31613	6.08276
23.75624	-9.33810	6.08276
23.76043	-9.33810	6.08276
23.76462	-9.31613	6.08276
23.76880	-9.33810	6.08276
23.77306	-9.31613	6.08276
23.77732	-9.31613	6.08276
23.78152	-9.33810	6.08276
23.78571	-9.33810	6.08276
23.78989	-9.33810	6.08276
23.79407	-9.33810	6.08276
23.79826	-9.33810	6.08276
23.80251	-9.33810	6.08276
23.80678	-9.33810	6.08276
23.81098	-9.33810	6.08276
23.81527	-9.33810	6.08276
23.81947	-9.33810	6.08276
23.82367	-9.33810	6.08276
23.82786	-9.33810	6.08276
23.83204	-9.33810	6.08276
23.83634	-9.36007	6.08276
23.84054	-9.36007	6.08276
23.84473	-9.36007	6.08276
23.84892	-9.33810	6.08276
23.85312	-9.36007	6.08276
23.85730	-9.36007	6.08276
23.86149	-9.36007	6.08276
23.86588	-9.36007	6.08276
23.87009	-9.36007	6.08276
23.87428	-9.36007	6.08276
23.87847	-9.36007	6.08276
23.88265	-9.36007	6.08276
23.88684	-9.36007	6.08276
23.89102	-9.36007	6.08276
23.89529	-9.36007	6.08276
23.89956	-9.36007	6.08276
23.90375	-9.38205	6.08276
23.90794	-9.38205	6.08276
23.91212	-9.38205	6.08276
23.91641	-9.38205	6.08276
23.92061	-9.38205	6.08276
23.92487	-9.38205	6.08276
23.92915	-9.38205	6.08276
23.93335	-9.38205	6.08276
23.93754	-9.38205	6.08276
23.94173	-9.38205	6.08276
23.94591	-9.38205	6.08276
23.95007	-9.38205	6.08276
23.95426	-9.38205	6.08276
23.95855	-9.38205	6.08276
23.96275	-9.38205	6.08276
23.96694	-9.38205	6.08276
23.97113	-9.38205	6.08276
23.97531	-9.40402	6.08276
23.97949	-9.40402	6.08276
23.98368	-9.40402	6.08276
23.98808	-9.40402	6.08276
23.99228	-9.40402	6.08276
23.99647	-9.40402	6.08276
24.00066	-9.40402	6.08276
24.00485	-9.40402	6.08276
24.00903	-9.40402	6.08276
24.01322	-9.40402	6.08276
24.01762	-9.40402	6.08276
24.02189	-9.40402	6.08276
24.02609	-9.40402	6.08276
24.03027	-9.40402	6.08276
24.03446	-9.42599	6.08276
24.03865	-9.40402	6.08276
24.04283	-9.42599	6.08276
24.04708	-9.40402	6.08276
24.05136	-9.40402	6.08276
24.05557	-9.40402	6.08276
24.05976	-9.42599	6.08276
24.06394	-9.42599	6.08276
24.06813	-9.42599	6.08276
24.07232	-9.42599	6.08276
24.07650	-9.42599	6.08276
24.08079	-9.42599	6.08276
24.08500	-9.42599	6.08276
24.08918	-9.42599	6.08276
24.09337	-9.42599	6.08276
24.09755	-9.42599	6.08276
24.10174	-9.42599	6.08276
24.10592	-9.42599	6.08276
24.11027	-9.42599	6.08276
24.11448	-9.42599	6.08276
24.11877	-9.42599	6.08276
24.12297	-9.44797	6.08276
24.12716	-9.44797	6.08276
24.13135	-9.44797	6.08276
24.13554	-9.42599	6.08276
24.13980	-9.42599	6.08276
24.14407	-9.44797	6.08276
24.14826	-9.44797	6.08276
24.15245	-9.44797	6.08276
24.15665	-9.44797	6.08276
24.16083	-9.44797	6.08276
24.16502	-9.44797	6.08276
24.16927	-9.46994	6.08276
24.17354	-9.44797	6.08276
24.17774	-9.44797	6.08276
24.18193	-9.44797	6.08276
24.18607	-9.44797	6.08276
24.19026	-9.44797	6.08276
24.19444	-9.46994	6.08276
24.19863	-9.46994	6.08276
24.20292	-9.46994	6.08276
24.20711	-9.46994	6.08276
24.21130	-9.46994	6.08276
24.21549	-9.46994	6.08276
24.21981	-9.46994	6.08276
24.22399	-9.46994	6.08276
24.22819	-9.46994	6.08276
24.23261	-9.46994	6.08276
24.23683	-9.46994	6.08276
24.24102	-9.46994	6.08276
24.24521	-9.49191	6.08276
24.24939	-9.49191	6.08276
24.25357	-9.49191	6.08276
24.25777	-9.49191	6.08276
24.26205	-9.49191	6.08276
24.26631	-9.49191	6.08276
24.27050	-9.49191	6.08276
24.27469	-9.49191	6.08276
24.27887	-9.49191	6.08276
24.28306	-9.51388	6.08276
24.28724	-9.49191	6.08276
24.29149	-9.49191	6.08276
24.29576	-9.51388	6.08276
24.29996	-9.51388	6.08276
24.30415	-9.51388	6.08276
24.30833	-9.51388	6.08276
24.31252	-9.51388	6.08276
24.31670	-9.51388	6.08276
24.32103	-9.53586	6.08276
24.32533	-9.51388	6.08276
24.32953	-9.51388	6.08276
24.33373	-9.53586	6.08276
24.33792	-9.53586	6.08276
24.34208	-9.53586	6.08276
24.34626	-9.53586	6.08276
24.35045	-9.53586	6.08276
24.35489	-9.53586	6.08276
24.35909	-9.53586	6.08276
24.36328	-9.53586	6.08276
24.36747	-9.53586	6.08276
24.37166	-9.55783	6.08276
24.37585	-9.55783	6.08276
24.38003	-9.53586	6.08276
24.38431	-9.55783	6.08276
24.38858	-9.55783	6.08276
24.39277	-9.55783	6.08276
24.39696	-9.55783	6.08276
24.40115	-9.55783	6.08276
24.40533	-9.55783	6.08276
24.40952	-9.60177	6.08276
24.41378	-9.57980	6.08276
24.41808	-9.57980	6.08276
24.42241	-9.57980	6.08276
24.42659	-9.57980	6.08276
24.43080	-9.57980	6.08276
24.43499	-9.60177	6.08276
24.43918	-9.57980	6.08276
24.44337	-9.57980	6.08276
24.44769	-9.57980	6.08276
24.45190	-9.60177	6.08276
24.45609	-9.60177	6.08276
24.46029	-9.60177	6.08276
24.46448	-9.60177	6.08276
24.46866	-9.60177	6.08276
24.47285	-9.60177	6.08276
24.47726	-9.60177	6.08276
24.48148	-9.62375	6.08276
24.48567	-9.60177	6.08276
24.48985	-9.64572	6.08276
24.49405	-9.62375	6.08276
24.49824	-9.62375	6.08276
24.50242	-9.62375	6.08276
24.50670	-9.62375	6.08276
24.51098	-9.62375	6.08276
24.51519	-9.62375	6.08276
24.51938	-9.62375	6.08276
24.52370	-9.64572	6.08276
24.52790	-9.64572	6.08276
24.53209	-9.64572	6.08276
24.53635	-9.64572	6.08276
24.54063	-9.64572	6.08276
24.54485	-9.64572	6.08276
24.54904	-9.64572	6.08276
24.55324	-9.64572	6.08276
24.55744	-9.64572	6.08276
24.56164	-9.64572	6.08276
24.56583	-9.66769	6.08276
24.57015	-9.64572	6.08276
24.57436	-9.66769	6.08276
24.57855	-9.66769	6.08276
24.58274	-9.64572	6.08276
24.58693	-9.64572	6.08276
24.59112	-9.66769	6.08276
24.59531	-9.66769	6.08276
24.59967	-9.66769	6.08276
24.60389	-9.66769	6.08276
24.60808	-9.66769	6.08276
24.61227	-9.66769	6.08276
24.61646	-9.66769	6.08276
24.62067	-9.66769	6.08276
24.62498	-9.66769	6.08276
24.62929	-9.68966	6.08276
24.63357	-9.66769	6.08276
24.63777	-9.66769	6.08276
24.64199	-9.68966	6.08276
24.64619	-9.68966	6.08276
24.65038	-9.68966	6.08276
24.65458	-9.68966	6.08276
24.65886	-9.68966	6.08276
24.66316	-9.68966	6.08276
24.66737	-9.68966	6.08276
24.67157	-9.68966	6.08276
24.67576	-9.68966	6.08276
24.67995	-9.68966	6.08276
24.68414	-9.68966	6.08276
24.68833	-9.68966	6.08276
24.69264	-9.68966	6.08276
24.69684	-9.68966	6.08276
24.70104	-9.68966	6.08276
24.70523	-9.68966	6.08276
24.70942	-9.68966	6.08276
24.71361	-9.68966	6.08276
24.71780	-9.68966	6.08276
24.72222	-9.68966	6.08276
24.72656	-9.68966	6.08276
24.73076	-9.66769	6.08276
24.73495	-9.68966	6.08276
24.73915	-9.68966	6.08276
24.74334	-9.68966	6.08276
24.74753	-9.68966	6.08276
24.75184	-9.66769	6.08276
24.75611	-9.66769	6.08276
24.76031	-9.68966	6.08276
24.76450	-9.66769	6.08276
24.76869	-9.66769	6.08276
24.77288	-9.66769	6.08276
24.77707	-9.66769	6.08276
24.78132	-9.66769	6.08276
24.78560	-9.66769	6.08276
24.78981	-9.66769	6.08276
24.79402	-9.66769	6.08276
24.79821	-9.66769	6.08276
24.80240	-9.66769	6.08276
24.80659	-9.64572	6.08276
24.81078	-9.66769	6.08276
24.81511	-9.66769	6.08276
24.81932	-9.66769	6.08276
24.82353	-9.64572	6.08276
24.82785	-9.64572	6.08276
24.83204	-9.64572	6.08276
24.83623	-9.64572	6.08276
24.84042	-9.64572	6.08276
24.84480	-9.64572	6.08276
24.84902	-9.64572	6.08276
24.85321	-9.62375	6.08276
24.85740	-9.62375	6.08276
24.86160	-9.62375	6.08276
24.86580	-9.60177	6.08276
24.87000	-9.60177	6.08276
24.87430	-9.60177	6.08276
24.87858	-9.60177	6.08276
24.88278	-9.60177	6.08276
24.88698	-9.60177	6.08276
24.89117	-9.60177	6.08276
24.89536	-9.57980	6.08276
24.89955	-9.57980	6.08276
24.90380	-9.57980	6.08276
24.90808	-9.55783	6.08276
24.91228	-9.55783	6.08276
24.91647	-9.55783	6.08276
24.92068	-9.55783	6.08276
24.92489	-9.55783	6.08276
24.92919	-9.55783	6.08276
24.93338	-9.55783	6.08276
24.93769	-9.53586	6.08276
24.94189	-9.53586	6.08276
24.94608	-9.51388	6.08276
24.95027	-9.53586	6.08276
24.95446	-9.53586	6.08276
24.95865	-9.51388	6.08276
24.96284	-9.51388	6.08276
24.96722	-9.49191	6.08276
24.97143	-9.49191	6.08276
24.97562	-9.49191	6.08276
24.97981	-9.49191	6.08276
24.98400	-9.46994	6.08276
24.98819	-9.46994	6.08276
24.99238	-9.46994	6.08276
24.99671	-9.44797	6.08276
25.00098	-9.44797	6.08276
25.00519	-9.44797	6.08276
25.00938	-9.44797	6.08276
25.01357	-9.42599	6.08276
25.01776	-9.42599	6.08276
25.02198	-9.42599	6.08276
25.02625	-9.40402	6.08276
25.03064	-9.40402	6.08276
25.03483	-9.40402	6.08276
25.03902	-9.40402	6.08276
25.04321	-9.38205	6.08276
25.04739	-9.38205	6.08276
25.05158	-9.36007	6.08276
25.05576	-9.36007	6.08276
25.06005	-9.36007	6.08276
25.06426	-9.36007	6.08276
25.06845	-9.33810	6.08276
25.07264	-9.33810	6.08276
25.07682	-9.31613	6.08276
25.08101	-9.31613	6.08276
25.08519	-9.31613	6.08276
25.08958	-9.31613	6.08276
25.09379	-9.29416	6.08276
25.09800	-9.29416	6.08276
25.10220	-9.29416	6.08276
25.10638	-9.27218	6.08276
25.11057	-9.25021	6.08276
25.11475	-9.25021	6.08276
25.11901	-9.25021	6.08276
25.12330	-9.25021	6.08276
25.12750	-9.22824	6.08276
25.13180	-9.22824	6.08276
25.13599	-9.22824	6.08276
25.14018	-9.20627	6.08276
25.14436	-9.20627	6.08276
25.14862	-9.20627	6.08276
25.15290	-9.18429	6.08276
25.15710	-9.18429	6.08276
25.16129	-9.18429	6.08276
25.16548	-9.18429	6.08276
25.16966	-9.16232	6.08276
25.17385	-9.16232	6.08276
25.17804	-9.14035	6.08276
25.18234	-9.14035	6.08276
25.18654	-9.11838	6.08276
25.19072	-9.11838	6.08276
25.19490	-9.11838	6.08276
25.19909	-9.11838	6.08276
25.20328	-9.09640	6.08276
25.20746	-9.09640	6.08276
25.21185	-9.07443	6.08276
25.21606	-9.07443	6.08276
25.22024	-9.07443	6.08276
25.22445	-9.07443	6.08276
25.22864	-9.05246	6.08276
25.23293	-9.05246	6.08276
25.23712	-9.05246	6.08276
25.24140	-9.05246	6.08276
25.24567	-9.03048	6.08276
25.24988	-9.03048	6.08276
25.25407	-9.00851	6.08276
25.25826	-9.00851	6.08276
25.26245	-9.00851	6.08276
25.26663	-9.00851	6.08276
25.27089	-8.98654	6.08276
25.27516	-8.98654	6.08276
25.27936	-8.96457	6.08276
25.28354	-8.96457	6.08276
25.28773	-8.96457	6.08276
25.29191	-8.94259	6.08276
25.29610	-8.94259	6.08276
25.30028	-8.94259	6.08276
25.30457	-8.94259	6.08276
25.30877	-8.92062	6.08276
25.31296	-8.92062	6.08276
25.31715	-8.92062	6.08276
25.32135	-8.92062	6.08276
25.32554	-8.89865	6.08276
25.32973	-8.89865	6.08276
25.33427	-8.89865	6.08276
25.33848	-8.89865	6.08276
25.34267	-8.89865	6.08276
25.34686	-8.89865	6.08276
25.35105	-8.87668	6.08276
25.35524	-8.87668	6.08276
25.35943	-8.87668	6.08276
25.36370	-8.85470	6.08276
25.36798	-8.85470	6.08276
25.37218	-8.83273	6.08276
25.37637	-8.83273	6.08276
25.38055	-8.83273	6.08276
25.38474	-8.83273	6.08276
25.38893	-8.83273	6.08276
25.39319	-8.83273	6.08276
25.39747	-8.83273	6.08276
25.40167	-8.81076	6.08276
25.40586	-8.81076	6.08276
25.41005	-8.81076	6.08276
25.41424	-8.81076	6.08276
25.41843	-8.78879	6.08276
25.42265	-8.78879	6.08276
25.42697	-8.78879	6.08276
25.43120	-8.78879	6.08276
25.43550	-8.78879	6.08276
25.43969	-8.78879	6.08276
25.44388	-8.76681	6.08276
25.44810	-8.76681	6.08276
25.45229	-8.76681	6.08276
25.45673	-8.76681	6.08276
25.46094	-8.76681	6.08276
25.46513	-8.76681	6.08276
25.46933	-8.76681	6.08276
25.47352	-8.74484	6.08276
25.47770	-8.76681	6.08276
25.48189	-8.76681	6.08276
25.48618	-8.74484	6.08276
25.49044	-8.74484	6.08276
25.49463	-8.74484	6.08276
25.49882	-8.74484	6.08276
25.50301	-8.72287	6.08276
25.50719	-8.72287	6.08276
25.51138	-8.72287	6.08276
25.51564	-8.72287	6.08276
25.51992	-8.72287	6.08276
25.52414	-8.72287	6.08276
25.52833	-8.72287	6.08276
25.53252	-8.72287	6.08276
25.53681	-8.72287	6.08276
25.54099	-8.72287	6.08276
25.54518	-8.72287	6.08276
25.54947	-8.72287	6.08276
25.55368	-8.70089	6.08276
25.55786	-8.70089	6.08276
25.56206	-8.72287	6.08276
25.56624	-8.70089	6.08276
25.57044	-8.70089	6.08276
25.57462	-8.72287	6.08276
25.57901	-8.70089	6.08276
25.58322	-8.70089	6.08276
25.58741	-8.70089	6.08276
25.59160	-8.70089	6.08276
25.59578	-8.70089	6.08276
25.59997	-8.70089	6.08276
25.60415	-8.70089	6.08276
25.60842	-8.70089	6.08276
25.61267	-8.70089	6.08276
25.61687	-8.70089	6.08276
25.62105	-8.70089	6.08276
25.62525	-8.72287	6.08276
25.62946	-8.70089	6.08276
25.63365	-8.72287	6.08276
25.63802	-8.72287	6.08276
25.64230	-8.72287	6.08276
25.64650	-8.72287	6.08276
25.65069	-8.70089	6.08276
25.65487	-8.72287	6.08276
25.65906	-8.72287	6.08276
25.66324	-8.72287	6.08276
25.66743	-8.72287	6.08276
25.67173	-8.72287	6.08276
25.67593	-8.72287	6.08276
25.68011	-8.72287	6.08276
25.68430	-8.72287	6.08276
25.68849	-8.72287	6.08276
25.69267	-8.72287	6.08276
25.69686	-8.72287	6.08276
25.70125	-8.72287	6.08276
25.70545	-8.74484	6.08276
25.70964	-8.74484	6.08276
25.71383	-8.74484	6.08276
25.71802	-8.74484	6.08276
25.72222	-8.74484	6.08276
25.72642	-8.74484	6.08276
25.73070	-8.76681	6.08276
25.73496	-8.76681	6.08276
25.73926	-8.76681	6.08276
25.74345	-8.76681	6.08276
25.74763	-8.76681	6.08276
25.75182	-8.76681	6.08276
25.75600	-8.78879	6.08276
25.76025	-8.78879	6.08276
25.76453	-8.78879	6.08276
25.76873	-8.78879	6.08276
25.77294	-8.78879	6.08276
25.77714	-8.81076	6.08276
25.78134	-8.81076	6.08276
25.78552	-8.81076	6.08276
25.78971	-8.83273	6.08276
25.79402	-8.83273	6.08276
25.79823	-8.83273	6.08276
25.80242	-8.83273	6.08276
25.80660	-8.85470	6.08276
25.81079	-8.85470	6.08276
25.81497	-8.85470	6.08276
25.81916	-8.87668	6.08276
25.82359	-8.87668	6.08276
25.82781	-8.87668	6.08276
25.83201	-8.89865	6.08276
25.83619	-8.89865	6.08276
25.84048	-8.89865	6.08276
25.84467	-8.92062	6.08276
25.84885	-8.94259	6.08276
25.85312	-8.94259	6.08276
25.85738	-8.94259	6.08276
25.86158	-8.94259	6.08276
25.86577	-8.96457	6.08276
25.86997	-8.96457	6.08276
25.87415	-8.96457	6.08276
25.87834	-8.96457	6.08276
25.88260	-8.98654	6.08276
25.88687	-8.98654	6.08276
25.89107	-9.00851	6.08276
25.89526	-9.03048	6.08276
25.89944	-9.03048	6.08276
25.90363	-9.03048	6.08276
25.90781	-9.05246	6.08276
25.91200	-9.05246	6.08276
25.91629	-9.05246	6.08276
25.92050	-9.07443	6.08276
25.92470	-9.09640	6.08276
25.92890	-9.09640	6.08276
25.93309	-9.09640	6.08276
25.93727	-9.11838	6.08276
25.94156	-9.14035	6.08276
25.94597	-9.14035	6.08276
25.95018	-9.16232	6.08276
25.95437	-9.16232	6.08276
25.95855	-9.18429	6.08276
25.96274	-9.18429	6.08276
25.96692	-9.18429	6.08276
25.97111	-9.20627	6.08276
25.97537	-9.20627	6.08276
25.97963	-9.22824	6.08276
25.98383	-9.22824	6.08276
25.98802	-9.22824	6.08276
25.99220	-9.25021	6.08276
25.99639	-9.27218	6.08276
26.00058	-9.27218	6.08276
26.00483	-9.29416	6.08276
26.00911	-9.29416	6.08276
26.01331	-9.29416	6.08276
26.01750	-9.31613	6.08276
26.02168	-9.31613	6.08276
26.02589	-9.33810	6.08276
26.03008	-9.36007	6.08276
26.03426	-9.36007	6.08276
26.03856	-9.38205	6.08276
26.04288	-9.38205	6.08276
26.04707	-9.40402	6.08276
26.05125	-9.40402	6.08276
26.05544	-9.42599	6.08276
26.05963	-9.42599	6.08276
26.06381	-9.42599	6.08276
26.06821	-9.44797	6.08276
26.07241	-9.46994	6.08276
26.07660	-9.46994	6.08276
26.08079	-9.46994	6.08276
26.08498	-9.49191	6.08276
26.08916	-9.49191	6.08276
26.09335	-9.51388	6.08276
26.09761	-9.53586	6.08276
26.10187	-9.53586	6.08276
26.10606	-9.55783	6.08276
26.11025	-9.57980	6.08276
26.11444	-9.57980	6.08276
26.11863	-9.57980	6.08276
26.12283	-9.60177	6.08276
26.12709	-9.60177	6.08276
26.13138	-9.62375	6.08276
26.13558	-9.64572	6.08276
26.13977	-9.64572	6.08276
26.14406	-9.64572	6.08276
26.14824	-9.66769	6.08276
26.15243	-9.66769	6.08276
26.15661	-9.68966	6.08276
26.16090	-9.73361	6.08276
26.16511	-9.71164	6.08276
26.16930	-9.71164	6.08276
26.17350	-9.73361	6.08276
26.17770	-9.73361	6.08276
26.18188	-9.75558	6.08276
26.18607	-9.77756	6.08276
26.19047	-9.77756	6.08276
26.19468	-9.77756	6.08276
26.19887	-9.79953	6.08276
26.20305	-9.82150	6.08276
26.20724	-9.82150	6.08276
26.21142	-9.84347	6.08276
26.21561	-9.84347	6.08276
26.21987	-9.86545	6.08276
26.22415	-9.86545	6.08276
26.22836	-9.88742	6.08276
26.23256	-9.88742	6.08276
26.23674	-9.90939	6.08276
26.24093	-9.90939	6.08276
26.24522	-9.93136	6.08276
26.24949	-9.93136	6.08276
26.25378	-9.95334	6.08276
26.25799	-9.97531	6.08276
26.26217	-9.97531	6.08276
26.26636	-9.97531	6.08276
26.27054	-9.97531	6.08276
26.27473	-10.01925	6.08276
26.27892	-10.01925	6.08276
26.28322	-10.01925	6.08276
26.28742	-10.04123	6.08276
26.29160	-10.04123	6.08276
26.29579	-10.06320	6.08276
26.29997	-10.06320	6.08276
26.30416	-10.06320	6.08276
26.30834	-10.08517	6.08276
26.31272	-10.10714	6.08276
26.31694	-10.12912	6.08276
26.32112	-10.12912	6.08276
26.32533	-10.12912	6.08276
26.32953	-10.12912	6.08276
26.33372	-10.15109	6.08276
26.33792	-10.17306	6.08276
26.34219	-10.17306	6.08276
26.34657	-10.19504	6.08276
26.35077	-10.19504	6.08276
26.35496	-10.19504	6.08276
26.35914	-10.21701	6.08276
26.36333	-10.23898	6.08276
26.36752	-10.23898	6.08276
26.37178	-10.26095	6.08276
26.37607	-10.26095	6.08276
26.38028	-10.28293	6.08276
26.38447	-10.28293	6.08276
26.38865	-10.28293	6.08276
26.39284	-10.30490	6.08276
26.39704	-10.30490	6.08276
26.40124	-10.32687	6.08276
26.40555	-10.32687	6.08276
26.40975	-10.32687	6.08276
26.41395	-10.34884	6.08276
26.41814	-10.34884	6.08276
26.42233	-10.37082	6.08276
26.42654	-10.37082	6.08276
26.43074	-10.39279	6.08276
26.43518	-10.39279	6.08276
26.43939	-10.39279	6.08276
26.44358	-10.41476	6.08276
26.44788	-10.43673	6.08276
26.45208	-10.43673	6.08276
26.45628	-10.43673	6.08276
26.46047	-10.43673	6.08276
26.46474	-10.43673	6.08276
26.46901	-10.45871	6.08276
26.47321	-10.45871	6.08276
26.47739	-10.48068	6.08276
26.48158	-10.48068	6.08276
26.48577	-10.50265	6.08276
26.48996	-10.50265	6.08276
26.49422	-10.50265	6.08276
26.49851	-10.50265	6.08276
26.50271	-10.52463	6.08276
26.50690	-10.54660	6.08276
26.51108	-10.54660	6.08276
26.51527	-10.54660	6.08276
26.51945	-10.56857	6.08276
26.52366	-10.56857	6.08276
26.52796	-10.56857	6.08276
26.53219	-10.56857	6.08276
26.53639	-10.56857	6.08276
26.54057	-10.59054	6.08276
26.54476	-10.59054	6.08276
26.54905	-10.59054	6.08276
26.55323	-10.59054	6.08276
26.55767	-10.61252	6.08276
26.56188	-10.61252	6.08276
26.56607	-10.61252	6.08276
26.57026	-10.61252	6.08276
26.57444	-10.63449	6.08276
26.57863	-10.63449	6.08276
26.58282	-10.63449	6.08276
26.58710	-10.63449	6.08276
26.59137	-10.65646	6.08276
26.59557	-10.65646	6.08276
26.59976	-10.65646	6.08276
26.60395	-10.65646	6.08276
26.60813	-10.65646	6.08276
26.61232	-10.65646	6.08276
26.61656	-10.65646	6.08276
26.62085	-10.65646	6.08276
26.62507	-10.67843	6.08276
26.62927	-10.67843	6.08276
26.63346	-10.67843	6.08276
26.63765	-10.70041	6.08276
26.64184	-10.67843	6.08276
26.64603	-10.67843	6.08276
26.65044	-10.67843	6.08276
26.65463	-10.67843	6.08276
26.65882	-10.70041	6.08276
26.66301	-10.70041	6.08276
26.66719	-10.70041	6.08276
26.67137	-10.70041	6.08276
26.67556	-10.70041	6.08276
26.67998	-10.70041	6.08276
26.68418	-10.70041	6.08276
26.68837	-10.70041	6.08276
26.69255	-10.70041	6.08276
26.69674	-10.70041	6.08276
26.70092	-10.70041	6.08276
26.70511	-10.70041	6.08276
26.70937	-10.70041	6.08276
26.71364	-10.70041	6.08276
26.71784	-10.67843	6.08276
26.72203	-10.70041	6.08276
26.72623	-10.70041	6.08276
26.73042	-10.67843	6.08276
26.73461	-10.67843	6.08276
26.73887	-10.67843	6.08276
26.74315	-10.67843	6.08276
26.74736	-10.67843	6.08276
26.75166	-10.67843	6.08276
26.75585	-10.67843	6.08276
26.76003	-10.67843	6.08276
26.76422	-10.65646	6.08276
26.76840	-10.65646	6.08276
26.77270	-10.65646	6.08276
26.77691	-10.65646	6.08276
26.78110	-10.65646	6.08276
26.78528	-10.63449	6.08276
26.78947	-10.63449	6.08276
26.79365	-10.63449	6.08276
26.79784	-10.63449	6.08276
26.80229	-10.63449	6.08276
26.80650	-10.63449	6.08276
26.81068	-10.61252	6.08276
26.81488	-10.61252	6.08276
26.81907	-10.61252	6.08276
26.82327	-10.59054	6.08276
26.82747	-10.59054	6.08276
26.83173	-10.59054	6.08276
26.83600	-10.59054	6.08276
26.84020	-10.56857	6.08276
26.84439	-10.56857	6.08276
26.84858	-10.54660	6.08276
26.85287	-10.54660	6.08276
26.85706	-10.54660	6.08276
26.86132	-10.54660	6.08276
26.86560	-10.54660	6.08276
26.86980	-10.52463	6.08276
26.87400	-10.52463	6.08276
26.87818	-10.50265	6.08276
26.88237	-10.50265	6.08276
26.88656	-10.50265	6.08276
26.89074	-10.48068	6.08276
26.89504	-10.48068	6.08276
26.89925	-10.45871	6.08276
26.90343	-10.45871	6.08276
26.90762	-10.45871	6.08276
26.91181	-10.43673	6.08276
26.91599	-10.43673	6.08276
26.92018	-10.41476	6.08276
26.92462	-10.41476	6.08276
26.92883	-10.39279	6.08276
26.93303	-10.39279	6.08276
26.93722	-10.39279	6.08276
26.94140	-10.37082	6.08276
26.94559	-10.37082	6.08276
26.94977	-10.34884	6.08276
26.95417	-10.32687	6.08276
26.95843	-10.32687	6.08276
26.96262	-10.32687	6.08276
26.96681	-10.30490	6.08276
26.97100	-10.30490	6.08276
26.97520	-10.28293	6.08276
26.97940	-10.28293	6.08276
26.98366	-10.26095	6.08276
26.98795	-10.23898	6.08276
26.99215	-10.23898	6.08276
26.99636	-10.23898	6.08276
27.00056	-10.21701	6.08276
27.00476	-10.19504	6.08276
27.00895	-10.19504	6.08276
27.01314	-10.17306	6.08276
27.01745	-10.17306	6.08276
27.02165	-10.17306	6.08276
27.02587	-10.15109	6.08276
27.03007	-10.12912	6.08276
27.03427	-10.10714	6.08276
27.03846	-10.10714	6.08276
27.04265	-10.10714	6.08276
27.04705	-10.08517	6.08276
27.05126	-10.06320	6.08276
27.05556	-10.04123	6.08276
27.05975	-10.04123	6.08276
27.06395	-10.01925	6.08276
27.06814	-10.01925	6.08276
27.07233	-9.99728	6.08276
27.07662	-9.99728	6.08276
27.08090	-9.97531	6.08276
27.08510	-9.95334	6.08276
27.08928	-9.93136	6.08276
27.09347	-9.93136	6.08276
27.09765	-9.93136	6.08276
27.10184	-9.90939	6.08276
27.10611	-9.88742	6.08276
27.11039	-9.88742	6.08276
27.11459	-9.86545	6.08276
27.11878	-9.84347	6.08276
27.12296	-9.84347	6.08276
27.12716	-9.84347	6.08276
27.13135	-9.82150	6.08276
27.13554	-9.79953	6.08276
27.13984	-9.77756	6.08276
27.14405	-9.77756	6.08276
27.14824	-9.77756	6.08276
27.15243	-9.75558	6.08276
27.15672	-9.73361	6.08276
27.16090	-9.73361	6.08276
27.16509	-9.71164	6.08276
27.16948	-9.68966	6.08276
27.17368	-9.68966	6.08276
27.17787	-9.66769	6.08276
27.18207	-9.66769	6.08276
27.18625	-9.64572	6.08276
27.19044	-9.62375	6.08276
27.19462	-9.60177	6.08276
27.19888	-9.60177	6.08276
27.20314	-9.60177	6.08276
27.20734	-9.57980	6.08276
27.21152	-9.55783	6.08276
27.21571	-9.55783	6.08276
27.21989	-9.53586	6.08276
27.22410	-9.51388	6.08276
27.22840	-9.51388	6.08276
27.23269	-9.51388	6.08276
27.23690	-9.49191	6.08276
27.24109	-9.46994	6.08276
27.24528	-9.44797	6.08276
27.24946	-9.42599	6.08276
27.25366	-9.42599	6.08276
27.25796	-9.42599	6.08276
27.26227	-9.42599	6.08276
27.26647	-9.40402	6.08276
27.27066	-9.38205	6.08276
27.27485	-9.36007	6.08276
27.27903	-9.36007	6.08276
27.28323	-9.33810	6.08276
27.28741	-9.31613	6.08276
27.29181	-9.31613	6.08276
27.29602	-9.29416	6.08276
27.30021	-9.27218	6.08276
27.30440	-9.27218	6.08276
27.30858	-9.27218	6.08276
27.31277	-9.25021	6.08276
27.31695	-9.22824	6.08276
27.32121	-9.22824	6.08276
27.32549	-9.20627	6.08276
27.32968	-9.18429	6.08276
27.33388	-9.18429	6.08276
27.33807	-9.18429	6.08276
27.34226	-9.16232	6.08276
27.34645	-9.14035	6.08276
27.35071	-9.14035	6.08276
27.35501	-9.14035	6.08276
27.35931	-9.11838	6.08276
27.36350	-9.11838	6.08276
27.36771	-9.09640	6.08276
27.37191	-9.07443	6.08276
27.37610	-9.05246	6.08276
27.38029	-9.05246	6.08276
27.38460	-9.05246	6.08276
27.38881	-9.03048	6.08276
27.39300	-9.03048	6.08276
27.39721	-9.00851	6.08276
27.40142	-8.98654	6.08276
27.40561	-8.98654	6.08276
27.40980	-8.96457	6.08276
27.41423	-8.96457	6.08276
27.41844	-8.96457	6.08276
27.42263	-8.94259	6.08276
27.42685	-8.92062	6.08276
27.43106	-8.92062	6.08276
27.43527	-8.89865	6.08276
27.43946	-8.89865	6.08276
27.44377	-8.87668	6.08276
27.44804	-8.87668	6.08276
27.45225	-8.85470	6.08276
27.45644	-8.85470	6.08276
27.46073	-8.83273	6.08276
27.46492	-8.81076	6.08276
27.46910	-8.81076	6.08276
27.47336	-8.81076	6.08276
27.47765	-8.78879	6.08276
27.48186	-8.78879	6.08276
27.48606	-8.76681	6.08276
27.49024	-8.76681	6.08276
27.49443	-8.76681	6.08276
27.49862	-8.74484	6.08276
27.50281	-8.72287	6.08276
27.50711	-8.72287	6.08276
27.51131	-8.70089	6.08276
27.51550	-8.67892	6.08276
27.51968	-8.67892	6.08276
27.52387	-8.67892	6.08276
27.52807	-8.65695	6.08276
27.53227	-8.65695	6.08276
27.53669	-8.63498	6.08276
27.54090	-8.63498	6.08276
27.54509	-8.63498	6.08276
27.54927	-8.61300	6.08276
27.55346	-8.61300	6.08276
27.55765	-8.59103	6.08276
27.56193	-8.56906	6.08276
27.56621	-8.56906	6.08276
27.57048	-8.56906	6.08276
27.57467	-8.54709	6.08276
27.57886	-8.54709	6.08276
27.58305	-8.52511	6.08276
27.58724	-8.50314	6.08276
27.59143	-8.48117	6.08276
27.59569	-8.48117	6.08276
27.59998	-8.48117	6.08276
27.60418	-8.45920	6.08276
27.60837	-8.45920	6.08276
27.61255	-8.43722	6.08276
27.61674	-8.43722	6.08276
27.62092	-8.41525	6.08276
27.62513	-8.41525	6.08276
27.62943	-8.39328	6.08276
27.63365	-8.39328	6.08276
27.63784	-8.39328	6.08276
27.64204	-8.37131	6.08276
27.64622	-8.34933	6.08276
27.65041	-8.34933	6.08276
27.65459	-8.34933	6.08276
27.65899	-8.32736	6.08276
27.66331	-8.32736	6.08276
27.66749	-8.30539	6.08276
27.67168	-8.30539	6.08276
27.67586	-8.28341	6.08276
27.68005	-8.28341	6.08276
27.68424	-8.26144	6.08276
27.68851	-8.26144	6.08276
27.69278	-8.23947	6.08276
27.69698	-8.23947	6.08276
27.70117	-8.23947	6.08276
27.70535	-8.23947	6.08276
27.70954	-8.21750	6.08276
27.71372	-8.19552	6.08276
27.71799	-8.19552	6.08276
27.72227	-8.17355	6.08276
27.72649	-8.15158	6.08276
27.73068	-8.15158	6.08276
27.73487	-8.15158	6.08276
27.73906	-8.15158	6.08276
27.74324	-8.12961	6.08276
27.74743	-8.12961	6.08276
27.75173	-8.10763	6.08276
27.75593	-8.08566	6.08276
27.76012	-8.08566	6.08276
27.76441	-8.08566	6.08276
27.76859	-8.08566	6.08276
27.77278	-8.06369	6.08276
27.77696	-8.06369	6.08276
27.78137	-8.04172	6.08276
27.78557	-8.04172	6.08276
27.78977	-8.04172	6.08276
27.79397	-8.01974	6.08276
27.79816	-7.99777	6.08276
27.80234	-7.99777	6.08276
27.80653	-7.99777	6.08276
27.81078	-7.99777	6.08276
27.81504	-7.97580	6.08276
27.81924	-7.97580	6.08276
27.82342	-7.97580	6.08276
27.82762	-7.95382	6.08276
27.83181	-7.95382	6.08276
27.83600	-7.95382	6.08276
27.84025	-7.93185	6.08276
27.84453	-7.93185	6.08276
27.84874	-7.93185	6.08276
27.85292	-7.90988	6.08276
27.85711	-7.88791	6.08276
27.86129	-7.88791	6.08276
27.86558	-7.88791	6.08276
27.86977	-7.88791	6.08276
27.87408	-7.86593	6.08276
27.87829	-7.86593	6.08276
27.88248	-7.84396	6.08276
27.88666	-7.84396	6.08276
27.89085	-7.84396	6.08276
27.89503	-7.82199	6.08276
27.89922	-7.82199	6.08276
27.90362	-7.82199	6.08276
27.90783	-7.80002	6.08276
27.91202	-7.80002	6.08276
27.91620	-7.80002	6.08276
27.92039	-7.80002	6.08276
27.92462	-7.77804	6.08276
27.92882	-7.77804	6.08276
27.93309	-7.77804	6.08276
27.93736	-7.75607	6.08276
27.94155	-7.75607	6.08276
27.94574	-7.75607	6.08276
27.94993	-7.75607	6.08276
27.95408	-7.75607	6.08276
27.95827	-7.73410	6.08276
27.96252	-7.71213	6.08276
27.96691	-7.73410	6.08276
27.97110	-7.73410	6.08276
27.97529	-7.71213	6.08276
27.97947	-7.71213	6.08276
27.98366	-7.69015	6.08276
27.98785	-7.69015	6.08276
27.99204	-7.69015	6.08276
27.99635	-7.69015	6.08276
28.00055	-7.66818	6.08276
28.00474	-7.66818	6.08276
28.00893	-7.66818	6.08276
28.01311	-7.64621	6.08276
28.01730	-7.64621	6.08276
28.02149	-7.64621	6.08276
28.02592	-7.64621	6.08276
28.03011	-7.62423	6.08276
28.03430	-7.62423	6.08276
28.03849	-7.62423	6.08276
28.04268	-7.62423	6.08276
28.04687	-7.62423	6.08276
28.05106	-7.62423	6.08276
28.05532	-7.60226	6.08276
28.05959	-7.60226	6.08276
28.06379	-7.60226	6.08276
28.06808	-7.60226	6.08276
28.07226	-7.60226	6.08276
28.07645	-7.58029	6.08276
28.08063	-7.58029	6.08276
28.08488	-7.58029	6.08276
28.08916	-7.58029	6.08276
28.09337	-7.55832	6.08276
28.09756	-7.55832	6.08276
28.10175	-7.55832	6.08276
28.10593	-7.55832	6.08276
28.11007	-7.53634	6.08276
28.11426	-7.53634	6.08276
28.11855	-7.53634	6.08276
28.12275	-7.53634	6.08276
28.12696	-7.53634	6.08276
28.13115	-7.53634	6.08276
28.13533	-7.53634	6.08276
28.13952	-7.53634	6.08276
28.14371	-7.51437	6.08276
28.14811	-7.51437	6.08276
28.15232	-7.51437	6.08276
28.15650	-7.51437	6.08276
28.16069	-7.51437	6.08276
28.16488	-7.51437	6.08276
28.16916	-7.51437	6.08276
28.17335	-7.49240	6.08276
28.17761	-7.49240	6.08276
28.18188	-7.49240	6.08276
28.18608	-7.49240	6.08276
28.19026	-7.49240	6.08276
28.19445	-7.49240	6.08276
28.19863	-7.49240	6.08276
28.20282	-7.49240	6.08276
28.20708	-7.49240	6.08276
28.21136	-7.49240	6.08276
28.21556	-7.47043	6.08276
28.21975	-7.49240	6.08276
28.22394	-7.47043	6.08276
28.22814	-7.47043	6.08276
28.23233	-7.47043	6.08276
28.23652	-7.47043	6.08276
28.24083	-7.47043	6.08276
28.24503	-7.44845	6.08276
28.24922	-7.47043	6.08276
28.25340	-7.47043	6.08276
28.25759	-7.44845	6.08276
28.26178	-7.44845	6.08276
28.26597	-7.47043	6.08276
28.27049	-7.44845	6.08276
28.27468	-7.47043	6.08276
28.27887	-7.47043	6.08276
28.28306	-7.44845	6.08276
28.28724	-7.44845	6.08276
28.29143	-7.47043	6.08276
28.29561	-7.44845	6.08276
28.29987	-7.44845	6.08276
28.30414	-7.44845	6.08276
28.30833	-7.44845	6.08276
28.31252	-7.44845	6.08276
28.31670	-7.44845	6.08276
28.32089	-7.44845	6.08276
28.32512	-7.44845	6.08276
28.32938	-7.47043	6.08276
28.33368	-7.47043	6.08276
28.33789	-7.47043	6.08276
28.34209	-7.47043	6.08276
28.34628	-7.44845	6.08276
28.35048	-7.47043	6.08276
28.35467	-7.47043	6.08276
28.35886	-7.47043	6.08276
28.36316	-7.47043	6.08276
28.36737	-7.44845	6.08276
28.37167	-7.47043	6.08276
28.37585	-7.47043	6.08276
28.38004	-7.47043	6.08276
28.38423	-7.47043	6.08276
28.38841	-7.47043	6.08276
28.39286	-7.47043	6.08276
28.39709	-7.47043	6.08276
28.40128	-7.47043	6.08276
28.40547	-7.47043	6.08276
28.40966	-7.47043	6.08276
28.41385	-7.47043	6.08276
28.41804	-7.47043	6.08276
28.42231	-7.47043	6.08276
28.42659	-7.47043	6.08276
28.43081	-7.47043	6.08276
28.43500	-7.47043	6.08276
28.43920	-7.47043	6.08276
28.44338	-7.47043	6.08276
28.44757	-7.49240	6.08276
28.45187	-7.49240	6.08276
28.45617	-7.49240	6.08276
28.46037	-7.49240	6.08276
28.46457	-7.49240	6.08276
28.46876	-7.49240	6.08276
28.47305	-7.49240	6.08276
28.47723	-7.49240	6.08276
28.48142	-7.49240	6.08276
28.48572	-7.49240	6.08276
28.48993	-7.49240	6.08276
28.49408	-7.51437	6.08276
28.49827	-7.51437	6.08276
28.50246	-7.49240	6.08276
28.50665	-7.51437	6.08276
28.51083	-7.51437	6.08276
28.51526	-7.51437	6.08276
28.51947	-7.51437	6.08276
28.52365	-7.51437	6.08276
28.52787	-7.51437	6.08276
28.53206	-7.51437	6.08276
28.53625	-7.51437	6.08276
28.54044	-7.51437	6.08276
28.54470	-7.51437	6.08276
28.54897	-7.51437	6.08276
28.55316	-7.53634	6.08276
28.55735	-7.53634	6.08276
28.56153	-7.53634	6.08276
28.56572	-7.53634	6.08276
28.56990	-7.53634	6.08276
28.57426	-7.53634	6.08276
28.57854	-7.53634	6.08276
28.58274	-7.55832	6.08276
28.58693	-7.55832	6.08276
28.59112	-7.55832	6.08276
28.59531	-7.55832	6.08276
28.59949	-7.55832	6.08276
28.60368	-7.55832	6.08276
28.60797	-7.55832	6.08276
28.61217	-7.58029	6.08276
28.61636	-7.58029	6.08276
28.62054	-7.58029	6.08276
28.62473	-7.58029	6.08276
28.62893	-7.58029	6.08276
28.63312	-7.58029	6.08276
28.63753	-7.58029	6.08276
28.64176	-7.60226	6.08276
28.64598	-7.60226	6.08276
28.65018	-7.60226	6.08276
28.65437	-7.60226	6.08276
28.65855	-7.60226	6.08276
28.66274	-7.60226	6.08276
28.66702	-7.62423	6.08276
28.67130	-7.62423	6.08276
28.67560	-7.62423	6.08276
28.67979	-7.62423	6.08276
28.68398	-7.62423	6.08276
28.68816	-7.62423	6.08276
28.69235	-7.64621	6.08276
28.69660	-7.64621	6.08276
28.70089	-7.64621	6.08276
28.70509	-7.64621	6.08276
28.70927	-7.64621	6.08276
28.71346	-7.66818	6.08276
28.71765	-7.66818	6.08276
28.72183	-7.66818	6.08276
28.72604	-7.69015	6.08276
28.73035	-7.69015	6.08276
28.73455	-7.69015	6.08276
28.73874	-7.69015	6.08276
28.74292	-7.71213	6.08276
28.74711	-7.71213	6.08276
28.75130	-7.71213	6.08276
28.75548	-7.71213	6.08276
28.75988	-7.71213	6.08276
28.76409	-7.73410	6.08276
28.76828	-7.73410	6.08276
28.77246	-7.73410	6.08276
28.77675	-7.75607	6.08276
28.78094	-7.75607	6.08276
28.78512	-7.75607	6.08276
28.78939	-7.75607	6.08276
28.79364	-7.75607	6.08276
28.79784	-7.77804	6.08276
28.80203	-7.80002	6.08276
28.80622	-7.77804	6.08276
28.81040	-7.80002	6.08276
28.81459	-7.80002	6.08276
28.81884	-7.80002	6.08276
28.82312	-7.82199	6.08276
28.82733	-7.82199	6.08276
28.83153	-7.82199	6.08276
28.83572	-7.82199	6.08276
28.83990	-7.84396	6.08276
28.84409	-7.84396	6.08276
28.84827	-7.84396	6.08276
28.85257	-7.84396	6.08276
28.85677	-7.86593	6.08276
28.86096	-7.86593	6.08276
28.86515	-7.86593	6.08276
28.86933	-7.86593	6.08276
28.87352	-7.88791	6.08276
28.87780	-7.88791	6.08276
28.88222	-7.90988	6.08276
28.88642	-7.90988	6.08276
28.89060	-7.90988	6.08276
28.89479	-7.90988	6.08276
28.89897	-7.93185	6.08276
28.90316	-7.93185	6.08276
28.90735	-7.93185	6.08276
28.91161	-7.95382	6.08276
28.91587	-7.95382	6.08276
28.92006	-7.95382	6.08276
28.92424	-7.97580	6.08276
28.92845	-7.97580	6.08276
28.93264	-7.97580	6.08276
28.93683	-7.97580	6.08276
28.94109	-7.99777	6.08276
28.94538	-7.99777	6.08276
28.94959	-7.99777	6.08276
28.95377	-8.01974	6.08276
28.95797	-8.01974	6.08276
28.96216	-8.04172	6.08276
28.96635	-8.04172	6.08276
28.97053	-8.04172	6.08276
28.97483	-8.04172	6.08276
28.97913	-8.04172	6.08276
28.98333	-8.06369	6.08276
28.98752	-8.06369	6.08276
28.99171	-8.08566	6.08276
28.99589	-8.08566	6.08276
29.00008	-8.08566	6.08276
29.00450	-8.08566	6.08276
29.00871	-8.10763	6.08276
29.01290	-8.10763	6.08276
29.01708	-8.12961	6.08276
29.02127	-8.12961	6.08276
29.02546	-8.12961	6.08276
29.02965	-8.12961	6.08276
29.03392	-8.12961	6.08276
29.03815	-8.15158	6.08276
29.04235	-8.15158	6.08276
29.04654	-8.15158	6.08276
29.05072	-8.15158	6.08276
29.05491	-8.17355	6.08276
29.05909	-8.17355	6.08276
29.06335	-8.17355	6.08276
29.06763	-8.17355	6.08276
29.07183	-8.19552	6.08276
29.07601	-8.19552	6.08276
29.08030	-8.21750	6.08276
29.08449	-8.21750	6.08276
29.08867	-8.21750	6.08276
29.09286	-8.21750	6.08276
29.09716	-8.21750	6.08276
29.10140	-8.21750	6.08276
29.10560	-8.21750	6.08276
29.10979	-8.23947	6.08276
29.11398	-8.23947	6.08276
29.11817	-8.23947	6.08276
29.12235	-8.26144	6.08276
29.12679	-8.26144	6.08276
29.13101	-8.26144	6.08276
29.13520	-8.26144	6.08276
29.13939	-8.28341	6.08276
29.14358	-8.28341	6.08276
29.14776	-8.28341	6.08276
29.15195	-8.28341	6.08276
29.15620	-8.28341	6.08276
29.16048	-8.30539	6.08276
29.16468	-8.30539	6.08276
29.16886	-8.30539	6.08276
29.17305	-8.32736	6.08276
29.17724	-8.32736	6.08276
29.18152	-8.32736	6.08276
29.18578	-8.32736	6.08276
29.19007	-8.34933	6.08276
29.19427	-8.32736	6.08276
29.19845	-8.34933	6.08276
29.20264	-8.34933	6.08276
29.20682	-8.34933	6.08276
29.21102	-8.34933	6.08276
29.21520	-8.34933	6.08276
29.21950	-8.37131	6.08276
29.22370	-8.37131	6.08276
29.22791	-8.37131	6.08276
29.23211	-8.37131	6.08276
29.23631	-8.39328	6.08276
29.24050	-8.39328	6.08276
29.24468	-8.39328	6.08276
29.24911	-8.39328	6.08276
29.25332	-8.39328	6.08276
29.25751	-8.41525	6.08276
29.26169	-8.41525	6.08276
29.26588	-8.41525	6.08276
29.27007	-8.41525	6.08276
29.27425	-8.41525	6.08276
29.27851	-8.43722	6.08276
29.28289	-8.43722	6.08276
29.28708	-8.43722	6.08276
29.29126	-8.43722	6.08276
29.29545	-8.43722	6.08276
29.29963	-8.43722	6.08276
29.30382	-8.45920	6.08276
29.30807	-8.45920	6.08276
29.31235	-8.45920	6.08276
29.31655	-8.45920	6.08276
29.32074	-8.45920	6.08276
29.32492	-8.45920	6.08276
29.32913	-8.48117	6.08276
29.33333	-8.48117	6.08276
29.33753	-8.48117	6.08276
29.34184	-8.48117	6.08276
29.34605	-8.48117	6.08276
29.35025	-8.48117	6.08276
29.35443	-8.48117	6.08276
29.35862	-8.50314	6.08276
29.36281	-8.50314	6.08276
29.36699	-8.50314	6.08276
29.37140	-8.50314	6.08276
29.37561	-8.50314	6.08276
29.37980	-8.50314	6.08276
29.38409	-8.50314	6.08276
29.38828	-8.50314	6.08276
29.39247	-8.50314	6.08276
29.39666	-8.50314	6.08276
29.40093	-8.52511	6.08276
29.40525	-8.52511	6.08276
29.40947	-8.52511	6.08276
29.41367	-8.52511	6.08276
29.41787	-8.52511	6.08276
29.42206	-8.52511	6.08276
29.42625	-8.52511	6.08276
29.43057	-8.54709	6.08276
29.43487	-8.52511	6.08276
29.43907	-8.52511	6.08276
29.44326	-8.54709	6.08276
29.44745	-8.54709	6.08276
29.45168	-8.54709	6.08276
29.45587	-8.54709	6.08276
29.46006	-8.54709	6.08276
29.46436	-8.54709	6.08276
29.46856	-8.54709	6.08276
29.47275	-8.54709	6.08276
29.47694	-8.54709	6.08276
29.48112	-8.54709	6.08276
29.48541	-8.54709	6.08276
29.48960	-8.56906	6.08276
29.49403	-8.54709	6.08276
29.49824	-8.56906	6.08276
29.50243	-8.56906	6.08276
29.50663	-8.56906	6.08276
29.51081	-8.56906	6.08276
29.51500	-8.54709	6.08276
29.51918	-8.56906	6.08276
29.52344	-8.56906	6.08276
29.52772	-8.56906	6.08276
29.53193	-8.56906	6.08276
29.53612	-8.56906	6.08276
29.54031	-8.56906	6.08276
29.54450	-8.56906	6.08276
29.54868	-8.56906	6.08276
29.55294	-8.56906	6.08276
29.55722	-8.56906	6.08276
29.56142	-8.56906	6.08276
29.56560	-8.56906	6.08276
29.56979	-8.56906	6.08276
29.57398	-8.56906	6.08276
29.57817	-8.56906	6.08276
29.58235	-8.56906	6.08276
29.58676	-8.56906	6.08276
29.59095	-8.56906	6.08276
29.59514	-8.56906	6.08276
29.59933	-8.56906	6.08276
29.60352	-8.56906	6.08276
29.60771	-8.56906	6.08276
29.61189	-8.56906	6.08276
29.61630	-8.56906	6.08276
29.62050	-8.56906	6.08276
29.62469	-8.56906	6.08276
29.62890	-8.56906	6.08276
29.63310	-8.56906	6.08276
29.63729	-8.56906	6.08276
29.64148	-8.54709	6.08276
29.64575	-8.54709	6.08276
29.65003	-8.54709	6.08276
29.65424	-8.54709	6.08276
29.65843	-8.54709	6.08276
29.66262	-8.54709	6.08276
29.66682	-8.54709	6.08276
29.67101	-8.54709	6.08276
29.67526	-8.54709	6.08276
29.67954	-8.52511	6.08276
29.68373	-8.52511	6.08276
29.68804	-8.54709	6.08276
29.69223	-8.52511	6.08276
29.69642	-8.54709	6.08276
29.70062	-8.52511	6.08276
29.70481	-8.52511	6.08276
29.70911	-8.52511	6.08276
29.71332	-8.52511	6.08276
29.71752	-8.52511	6.08276
29.72171	-8.52511	6.08276
29.72590	-8.52511	6.08276
29.73010	-8.52511	6.08276
29.73430	-8.50314	6.08276
29.73870	-8.50314	6.08276
29.74291	-8.50314	6.08276
29.74710	-8.50314	6.08276
29.75130	-8.50314	6.08276
29.75549	-8.50314	6.08276
29.75968	-8.50314	6.08276
29.76387	-8.48117	6.08276
29.76817	-8.48117	6.08276
29.77243	-8.48117	6.08276
29.77663	-8.48117	6.08276
29.78082	-8.48117	6.08276
29.78502	-8.45920	6.08276
29.78932	-8.45920	6.08276
29.79351	-8.45920	6.08276
29.79777	-8.45920	6.08276
29.80208	-8.45920	6.08276
29.80628	-8.45920	6.08276
29.81048	-8.45920	6.08276
29.81467	-8.43722	6.08276
29.81886	-8.43722	6.08276
29.82306	-8.43722	6.08276
29.82727	-8.43722	6.08276
29.83159	-8.43722	6.08276
29.83579	-8.43722	6.08276
29.83999	-8.41525	6.08276
29.84418	-8.41525	6.08276
29.84838	-8.41525	6.08276
29.85258	-8.41525	6.08276
29.85677	-8.41525	6.08276
29.86115	-8.41525	6.08276
29.86536	-8.39328	6.08276
29.86956	-8.39328	6.08276
29.87375	-8.39328	6.08276
29.87795	-8.39328	6.08276
29.88214	-8.39328	6.08276
29.88633	-8.39328	6.08276
29.89079	-8.37131	6.08276
29.89505	-8.37131	6.08276
29.89925	-8.37131	6.08276
29.90346	-8.37131	6.08276
29.90765	-8.37131	6.08276
29.91184	-8.37131	6.08276
29.91603	-8.37131	6.08276
29.92029	-8.34933	6.08276
29.92458	-8.34933	6.08276
29.92882	-8.34933	6.08276
29.93302	-8.34933	6.08276
29.93722	-8.34933	6.08276
29.94142	-8.32736	6.08276
29.94561	-8.32736	6.08276
29.94980	-8.32736	6.08276
29.95411	-8.32736	6.08276
29.95832	-8.30539	6.08276
29.96251	-8.30539	6.08276
29.96670	-8.30539	6.08276
29.97088	-8.30539	6.08276
29.97507	-8.30539	6.08276
29.97925	-8.30539	6.08276
29.98367	-8.30539	6.08276
29.98788	-8.28341	6.08276
29.99217	-8.28341	6.08276
29.99635	-8.28341	6.08276
