Time (s)   roll (deg)   Delta
0.00034	-5.95431	11.27051
0.00440	-5.95431	11.27051
0.00846	-5.95431	11.27051
0.01251	-5.93234	11.27051
0.01657	-5.93234	11.27051
0.02062	-5.93234	11.27051
0.02469	-5.91037	11.27051
0.02875	-5.91037	11.27051
0.03280	-5.91037	11.27051
0.03686	-5.91037	11.27051
0.04091	-5.88839	11.27051
0.04497	-5.88839	11.27051
0.04902	-5.88839	11.27051
0.05307	-5.88839	11.27051
0.05713	-5.88839	11.27051
0.06119	-5.88839	11.27051
0.06524	-5.88839	11.27051
0.06929	-5.86642	11.27051
0.07335	-5.86642	11.27051
0.07740	-5.86642	11.27051
0.08146	-5.86642	11.27051
0.08551	-5.86642	11.27051
0.08957	-5.86642	11.27051
0.09362	-5.86642	11.27051
0.09768	-5.86642	11.27051
0.10191	-5.86642	11.27051
0.10596	-5.86642	11.27051
0.11002	-5.86642	11.27051
0.11407	-5.84445	11.27051
0.11813	-5.86642	11.27051
0.12218	-5.86642	11.27051
0.12624	-5.86642	11.27051
0.13030	-5.86642	11.27051
0.13435	-5.86642	11.27051
0.13841	-5.86642	11.27051
0.14246	-5.86642	11.27051
0.14652	-5.86642	11.27051
0.15057	-5.86642	11.27051
0.15463	-5.88839	11.27051
0.15868	-5.88839	11.27051
0.16273	-5.88839	11.27051
0.16679	-5.88839	11.27051
0.17084	-5.88839	11.27051
0.17490	-5.91037	11.27051
0.17895	-5.91037	11.27051
0.18301	-5.93234	11.27051
0.18706	-5.93234	11.27051
0.19112	-5.93234	11.27051
0.19517	-5.95431	11.27051
0.19923	-5.95431	11.27051
0.20346	-5.97629	11.27051
0.20752	-5.97629	11.27051
0.21157	-5.99826	11.27051
0.21563	-5.99826	11.27051
0.21969	-5.99826	11.27051
0.22374	-6.04220	11.27051
0.22779	-6.04220	11.27051
0.23186	-6.06418	11.27051
0.23592	-6.06418	11.27051
0.23997	-6.08615	11.27051
0.24403	-6.10812	11.27051
0.24809	-6.13009	11.27051
0.25214	-6.15207	11.27051
0.25620	-6.15207	11.27051
0.26025	-6.15207	11.27051
0.26431	-6.19601	11.27051
0.26837	-6.21798	11.27051
0.27242	-6.23996	11.27051
0.27647	-6.23996	11.27051
0.28053	-6.26193	11.27051
0.28459	-6.28390	11.27051
0.28864	-6.30588	11.27051
0.29270	-6.32785	11.27051
0.29676	-6.37179	11.27051
0.30081	-6.37179	11.27051
0.30504	-6.39377	11.27051
0.30909	-6.43771	11.27051
0.31314	-6.45968	11.27051
0.31720	-6.48166	11.27051
0.32125	-6.48166	11.27051
0.32531	-6.52560	11.27051
0.32936	-6.56955	11.27051
0.33342	-6.59152	11.27051
0.33748	-6.61349	11.27051
0.34153	-6.65744	11.27051
0.34559	-6.65744	11.27051
0.34965	-6.70138	11.27051
0.35370	-6.74533	11.27051
0.35776	-6.76730	11.27051
0.36181	-6.81125	11.27051
0.36587	-6.81125	11.27051
0.36992	-6.85519	11.27051
0.37398	-6.87716	11.27051
0.37804	-6.92111	11.27051
0.38209	-6.96506	11.27051
0.38615	-6.96506	11.27051
0.39020	-7.00900	11.27051
0.39426	-7.05295	11.27051
0.39831	-7.11886	11.27051
0.40237	-7.14084	11.27051
0.40659	-7.14084	11.27051
0.41064	-7.18478	11.27051
0.41470	-7.25070	11.27051
0.41875	-7.29464	11.27051
0.42281	-7.33859	11.27051
0.42686	-7.33859	11.27051
0.43092	-7.38254	11.27051
0.43498	-7.44845	11.27051
0.43903	-7.49240	11.27051
0.44309	-7.53634	11.27051
0.44714	-7.53634	11.27051
0.45119	-7.60226	11.27051
0.45525	-7.64621	11.27051
0.45930	-7.69015	11.27051
0.46336	-7.73410	11.27051
0.46741	-7.80002	11.27051
0.47147	-7.80002	11.27051
0.47552	-7.84396	11.27051
0.47958	-7.90988	11.27051
0.48363	-7.95382	11.27051
0.48769	-7.95382	11.27051
0.49174	-8.01974	11.27051
0.49580	-8.06369	11.27051
0.49985	-8.10763	11.27051
0.50391	-8.17355	11.27051
0.50813	-8.23947	11.27051
0.51219	-8.23947	11.27051
0.51624	-8.28341	11.27051
0.52030	-8.34933	11.27051
0.52436	-8.41525	11.27051
0.52841	-8.48117	11.27051
0.53247	-8.48117	11.27051
0.53653	-8.54709	11.27051
0.54059	-8.61300	11.27051
0.54464	-8.65695	11.27051
0.54870	-8.72287	11.27051
0.55275	-8.76681	11.27051
0.55681	-8.76681	11.27051
0.56086	-8.83273	11.27051
0.56492	-8.89865	11.27051
0.56897	-8.98654	11.27051
0.57303	-9.03048	11.27051
0.57708	-9.03048	11.27051
0.58113	-9.11838	11.27051
0.58519	-9.16232	11.27051
0.58924	-9.22824	11.27051
0.59330	-9.29416	11.27051
0.59735	-9.36007	11.27051
0.60141	-9.36007	11.27051
0.60546	-9.42599	11.27051
0.60969	-9.49191	11.27051
0.61375	-9.55783	11.27051
0.61780	-9.55783	11.27051
0.62186	-9.62375	11.27051
0.62591	-9.71164	11.27051
0.62997	-9.75558	11.27051
0.63403	-9.82150	11.27051
0.63809	-9.90939	11.27051
0.64215	-9.90939	11.27051
0.64620	-9.95334	11.27051
0.65026	-10.04123	11.27051
0.65431	-10.10714	11.27051
0.65837	-10.17306	11.27051
0.66242	-10.17306	11.27051
0.66648	-10.26095	11.27051
0.67054	-10.32687	11.27051
0.67459	-10.39279	11.27051
0.67865	-10.48068	11.27051
0.68271	-10.48068	11.27051
0.68677	-10.54660	11.27051
0.69082	-10.61252	11.27051
0.69488	-10.70041	11.27051
0.69894	-10.76632	11.27051
0.70299	-10.76632	11.27051
0.70705	-10.85422	11.27051
0.71127	-10.92013	11.27051
0.71532	-10.98605	11.27051
0.71938	-11.05197	11.27051
0.72344	-11.11789	11.27051
0.72749	-11.11789	11.27051
0.73155	-11.20578	11.27051
0.73561	-11.27170	11.27051
0.73966	-11.33761	11.27051
0.74372	-11.33761	11.27051
0.74778	-11.42550	11.27051
0.75183	-11.49142	11.27051
0.75589	-11.55734	11.27051
0.75995	-11.62326	11.27051
0.76400	-11.68918	11.27051
0.76806	-11.68918	11.27051
0.77211	-11.77707	11.27051
0.77617	-11.86496	11.27051
0.78023	-11.93088	11.27051
0.78428	-11.99679	11.27051
0.78834	-11.99679	11.27051
0.79239	-12.08468	11.27051
0.79645	-12.15060	11.27051
0.80050	-12.21652	11.27051
0.80456	-12.30441	11.27051
0.80862	-12.37033	11.27051
0.81284	-12.37033	11.27051
0.81690	-12.45822	11.27051
0.82095	-12.52414	11.27051
0.82501	-12.59006	11.27051
0.82906	-12.65597	11.27051
0.83312	-12.65597	11.27051
0.83714	-12.74386	11.27051
0.84119	-12.80978	11.27051
0.84525	-12.87570	11.27051
0.84930	-12.94162	11.27051
0.85336	-13.02951	11.27051
0.85741	-13.02951	11.27051
0.86147	-13.09543	11.27051
0.86552	-13.16134	11.27051
0.86958	-13.24923	11.27051
0.87363	-13.24923	11.27051
0.87769	-13.33713	11.27051
0.88174	-13.38107	11.27051
0.88580	-13.44699	11.27051
0.88985	-13.51291	11.27051
0.89390	-13.60080	11.27051
0.89796	-13.60080	11.27051
0.90201	-13.66672	11.27051
0.90607	-13.75461	11.27051
0.91012	-13.82052	11.27051
0.91435	-13.88644	11.27051
0.91841	-13.88644	11.27051
0.92246	-13.95236	11.27051
0.92652	-14.01828	11.27051
0.93057	-14.10617	11.27051
0.93463	-14.17209	11.27051
0.93868	-14.17209	11.27051
0.94274	-14.23800	11.27051
0.94679	-14.30392	11.27051
0.95085	-14.39181	11.27051
0.95490	-14.45773	11.27051
0.95896	-14.45773	11.27051
0.96301	-14.52365	11.27051
0.96707	-14.58957	11.27051
0.97112	-14.65548	11.27051
0.97518	-14.72140	11.27051
0.97923	-14.72140	11.27051
0.98329	-14.78732	11.27051
0.98734	-14.87521	11.27051
0.99140	-14.94113	11.27051
0.99545	-15.00705	11.27051
0.99950	-15.00705	11.27051
1.00356	-15.09494	11.27051
1.00762	-15.13888	11.27051
1.01167	-15.20480	11.27051
1.01589	-15.27072	11.27051
1.01995	-15.33664	11.27051
1.02400	-15.33664	11.27051
1.02806	-15.40256	11.27051
1.03212	-15.46847	11.27051
1.03617	-15.53439	11.27051
1.04023	-15.60031	11.27051
1.04428	-15.60031	11.27051
1.04834	-15.66623	11.27051
1.05240	-15.73214	11.27051
1.05646	-15.79806	11.27051
1.06051	-15.84201	11.27051
1.06457	-15.90793	11.27051
1.06863	-15.90793	11.27051
1.07268	-15.97384	11.27051
1.07673	-16.03976	11.27051
1.08079	-16.10568	11.27051
1.08485	-16.17160	11.27051
1.08890	-16.17160	11.27051
1.09296	-16.23752	11.27051
1.09702	-16.28146	11.27051
1.10107	-16.34738	11.27051
1.10513	-16.39132	11.27051
1.10919	-16.39132	11.27051
1.11325	-16.45724	11.27051
1.11747	-16.52316	11.27051
1.12153	-16.58908	11.27051
1.12558	-16.63302	11.27051
1.12964	-16.63302	11.27051
1.13370	-16.67697	11.27051
1.13775	-16.76486	11.27051
1.14180	-16.78683	11.27051
1.14588	-16.85275	11.27051
1.14993	-16.89670	11.27051
1.15400	-16.89670	11.27051
1.15805	-16.96261	11.27051
1.16211	-17.02853	11.27051
1.16617	-17.07248	11.27051
1.17022	-17.13839	11.27051
1.17428	-17.13839	11.27051
1.17834	-17.18234	11.27051
1.18240	-17.22629	11.27051
1.18646	-17.29220	11.27051
1.19051	-17.33615	11.27051
1.19457	-17.33615	11.27051
1.19863	-17.38009	11.27051
1.20269	-17.42404	11.27051
1.20674	-17.48996	11.27051
1.21080	-17.53390	11.27051
1.21486	-17.53390	11.27051
1.21909	-17.57785	11.27051
1.22315	-17.62179	11.27051
1.22721	-17.66574	11.27051
1.23127	-17.70968	11.27051
1.23533	-17.75363	11.27051
1.23939	-17.75363	11.27051
1.24344	-17.79757	11.27051
1.24779	-17.84152	11.27051
1.25186	-17.88547	11.27051
1.25592	-17.92941	11.27051
1.25998	-17.92941	11.27051
1.26403	-17.97336	11.27051
1.26809	-17.99533	11.27051
1.27215	-18.03927	11.27051
1.27621	-18.08322	11.27051
1.28027	-18.08322	11.27051
1.28443	-18.12716	11.27051
1.28849	-18.17111	11.27051
1.29255	-18.21506	11.27051
1.29660	-18.23703	11.27051
1.30065	-18.23703	11.27051
1.30472	-18.28097	11.27051
1.30877	-18.30295	11.27051
1.31283	-18.34689	11.27051
1.31688	-18.36886	11.27051
1.32111	-18.41281	11.27051
1.32513	-18.41281	11.27051
1.32919	-18.45675	11.27051
1.33324	-18.47873	11.27051
1.33730	-18.50070	11.27051
1.34136	-18.54464	11.27051
1.34541	-18.54464	11.27051
1.34949	-18.56662	11.27051
1.35355	-18.58859	11.27051
1.35760	-18.61056	11.27051
1.36166	-18.65451	11.27051
1.36571	-18.67648	11.27051
1.36977	-18.67648	11.27051
1.37382	-18.69845	11.27051
1.37788	-18.72043	11.27051
1.38193	-18.74240	11.27051
1.38598	-18.78634	11.27051
1.39004	-18.78634	11.27051
1.39409	-18.78634	11.27051
1.39815	-18.83029	11.27051
1.40220	-18.83029	11.27051
1.40626	-18.85226	11.27051
1.41031	-18.85226	11.27051
1.41437	-18.87423	11.27051
1.41842	-18.89621	11.27051
1.42266	-18.91818	11.27051
1.42671	-18.94015	11.27051
1.43077	-18.94015	11.27051
1.43482	-18.94015	11.27051
1.43888	-18.96213	11.27051
1.44293	-18.98410	11.27051
1.44699	-18.98410	11.27051
1.45106	-18.98410	11.27051
1.45511	-19.00607	11.27051
1.45918	-19.02804	11.27051
1.46323	-19.02804	11.27051
1.46729	-19.05002	11.27051
1.47134	-19.05002	11.27051
1.47540	-19.05002	11.27051
1.47945	-19.07199	11.27051
1.48351	-19.07199	11.27051
1.48756	-19.07199	11.27051
1.49162	-19.07199	11.27051
1.49567	-19.07199	11.27051
1.49973	-19.07199	11.27051
1.50378	-19.09396	11.27051
1.50784	-19.09396	11.27051
1.51189	-19.09396	11.27051
1.51595	-19.09396	11.27051
1.52000	-19.09396	11.27051
1.52422	-19.11593	11.27051
1.52828	-19.09396	11.27051
1.53233	-19.11593	11.27051
1.53639	-19.11593	11.27051
1.54044	-19.09396	11.27051
1.54450	-19.09396	11.27051
1.54855	-19.09396	11.27051
1.55262	-19.09396	11.27051
1.55668	-19.09396	11.27051
1.56074	-19.09396	11.27051
1.56479	-19.09396	11.27051
1.56885	-19.07199	11.27051
1.57291	-19.09396	11.27051
1.57696	-19.07199	11.27051
1.58102	-19.07199	11.27051
1.58507	-19.05002	11.27051
1.58913	-19.07199	11.27051
1.59319	-19.05002	11.27051
1.59724	-19.05002	11.27051
1.60129	-19.05002	11.27051
1.60535	-19.02804	11.27051
1.60940	-19.00607	11.27051
1.61346	-19.00607	11.27051
1.61751	-19.00607	11.27051
1.62157	-18.98410	11.27051
1.62580	-18.98410	11.27051
1.62986	-18.98410	11.27051
1.63391	-18.94015	11.27051
1.63797	-18.94015	11.27051
1.64202	-18.91818	11.27051
1.64609	-18.91818	11.27051
1.65014	-18.91818	11.27051
1.65422	-18.89621	11.27051
1.65827	-18.87423	11.27051
1.66233	-18.85226	11.27051
1.66638	-18.85226	11.27051
1.67044	-18.83029	11.27051
1.67450	-18.83029	11.27051
1.67855	-18.78634	11.27051
1.68261	-18.76437	11.27051
1.68666	-18.76437	11.27051
1.69072	-18.76437	11.27051
1.69477	-18.72043	11.27051
1.69883	-18.72043	11.27051
1.70288	-18.67648	11.27051
1.70693	-18.67648	11.27051
1.71099	-18.67648	11.27051
1.71504	-18.63254	11.27051
1.71910	-18.61056	11.27051
1.72315	-18.61056	11.27051
1.72739	-18.61056	11.27051
1.73144	-18.56662	11.27051
1.73550	-18.52267	11.27051
1.73955	-18.52267	11.27051
1.74361	-18.47873	11.27051
1.74766	-18.45675	11.27051
1.75172	-18.45675	11.27051
1.75579	-18.43478	11.27051
1.75985	-18.41281	11.27051
1.76390	-18.36886	11.27051
1.76796	-18.34689	11.27051
1.77202	-18.34689	11.27051
1.77607	-18.32492	11.27051
1.78013	-18.30295	11.27051
1.78418	-18.25900	11.27051
1.78824	-18.23703	11.27051
1.79229	-18.23703	11.27051
1.79635	-18.21506	11.27051
1.80040	-18.17111	11.27051
1.80445	-18.14914	11.27051
1.80851	-18.10519	11.27051
1.81256	-18.10519	11.27051
1.81662	-18.08322	11.27051
1.82067	-18.06125	11.27051
1.82473	-18.03927	11.27051
1.82896	-17.99533	11.27051
1.83302	-17.95138	11.27051
1.83707	-17.95138	11.27051
1.84112	-17.92941	11.27051
1.84518	-17.90744	11.27051
1.84923	-17.86349	11.27051
1.85329	-17.81955	11.27051
1.85736	-17.81955	11.27051
1.86142	-17.79757	11.27051
1.86548	-17.77560	11.27051
1.86954	-17.73166	11.27051
1.87359	-17.70968	11.27051
1.87765	-17.66574	11.27051
1.88170	-17.66574	11.27051
1.88576	-17.62179	11.27051
1.88982	-17.57785	11.27051
1.89387	-17.55588	11.27051
1.89793	-17.51193	11.27051
1.90199	-17.51193	11.27051
1.90605	-17.46798	11.27051
1.91010	-17.44601	11.27051
1.91416	-17.42404	11.27051
1.91822	-17.38009	11.27051
1.92228	-17.38009	11.27051
1.92633	-17.33615	11.27051
1.93056	-17.31418	11.27051
1.93462	-17.27023	11.27051
1.93868	-17.22629	11.27051
1.94273	-17.22629	11.27051
1.94679	-17.20431	11.27051
1.95085	-17.16037	11.27051
1.95491	-17.11642	11.27051
1.95897	-17.07248	11.27051
1.96304	-17.07248	11.27051
1.96709	-17.05050	11.27051
1.97115	-17.00656	11.27051
1.97521	-16.96261	11.27051
1.97926	-16.91867	11.27051
1.98332	-16.91867	11.27051
1.98738	-16.89670	11.27051
1.99143	-16.85275	11.27051
1.99549	-16.83078	11.27051
1.99955	-16.78683	11.27051
2.00360	-16.74289	11.27051
2.00766	-16.74289	11.27051
2.01171	-16.69894	11.27051
2.01577	-16.67697	11.27051
2.01982	-16.63302	11.27051
2.02388	-16.58908	11.27051
2.02793	-16.58908	11.27051
2.03216	-16.54513	11.27051
2.03622	-16.52316	11.27051
2.04028	-16.47922	11.27051
2.04433	-16.43527	11.27051
2.04839	-16.43527	11.27051
2.05244	-16.41330	11.27051
2.05650	-16.34738	11.27051
2.06057	-16.32541	11.27051
2.06462	-16.28146	11.27051
2.06868	-16.28146	11.27051
2.07273	-16.23752	11.27051
2.07679	-16.19357	11.27051
2.08084	-16.17160	11.27051
2.08490	-16.14963	11.27051
2.08896	-16.10568	11.27051
2.09301	-16.10568	11.27051
2.09706	-16.06173	11.27051
2.10112	-16.01779	11.27051
2.10513	-15.97384	11.27051
2.10919	-15.95187	11.27051
2.11325	-15.95187	11.27051
2.11730	-15.90793	11.27051
2.12136	-15.88595	11.27051
2.12541	-15.84201	11.27051
2.12947	-15.79806	11.27051
2.13370	-15.75412	11.27051
2.13776	-15.75412	11.27051
2.14182	-15.71017	11.27051
2.14587	-15.68820	11.27051
2.14994	-15.64425	11.27051
2.15400	-15.60031	11.27051
2.15806	-15.60031	11.27051
2.16212	-15.57834	11.27051
2.16618	-15.53439	11.27051
2.17024	-15.49045	11.27051
2.17429	-15.46847	11.27051
2.17834	-15.46847	11.27051
2.18240	-15.42453	11.27051
2.18646	-15.40256	11.27051
2.19051	-15.35861	11.27051
2.19457	-15.31466	11.27051
2.19862	-15.31466	11.27051
2.20268	-15.27072	11.27051
2.20673	-15.24875	11.27051
2.21079	-15.20480	11.27051
2.21484	-15.18283	11.27051
2.21890	-15.18283	11.27051
2.22296	-15.13888	11.27051
2.22701	-15.09494	11.27051
2.23107	-15.07297	11.27051
2.23530	-15.02902	11.27051
2.23936	-15.02902	11.27051
2.24341	-14.98507	11.27051
2.24747	-14.96310	11.27051
2.25153	-14.94113	11.27051
2.25558	-14.89718	11.27051
2.25964	-14.87521	11.27051
2.26370	-14.87521	11.27051
2.26776	-14.83127	11.27051
2.27182	-14.80929	11.27051
2.27587	-14.76535	11.27051
2.27993	-14.74338	11.27051
2.28399	-14.74338	11.27051
2.28805	-14.69943	11.27051
2.29210	-14.67746	11.27051
2.29620	-14.65548	11.27051
2.30026	-14.61154	11.27051
2.30432	-14.61154	11.27051
2.30837	-14.58957	11.27051
2.31243	-14.54562	11.27051
2.31649	-14.52365	11.27051
2.32054	-14.47970	11.27051
2.32460	-14.47970	11.27051
2.32866	-14.45773	11.27051
2.33271	-14.43576	11.27051
2.33694	-14.39181	11.27051
2.34100	-14.36984	11.27051
2.34506	-14.34787	11.27051
2.34911	-14.34787	11.27051
2.35313	-14.30392	11.27051
2.35719	-14.28195	11.27051
2.36125	-14.25998	11.27051
2.36531	-14.21603	11.27051
2.36937	-14.21603	11.27051
2.37342	-14.19406	11.27051
2.37748	-14.17209	11.27051
2.38154	-14.15011	11.27051
2.38560	-14.10617	11.27051
2.38965	-14.08420	11.27051
2.39371	-14.08420	11.27051
2.39776	-14.06222	11.27051
2.40182	-14.04025	11.27051
2.40587	-14.01828	11.27051
2.40994	-13.97433	11.27051
2.41400	-13.97433	11.27051
2.41805	-13.95236	11.27051
2.42211	-13.93039	11.27051
2.42617	-13.90841	11.27051
2.43022	-13.88644	11.27051
2.43428	-13.88644	11.27051
2.43850	-13.86447	11.27051
2.44256	-13.84250	11.27051
2.44662	-13.82052	11.27051
2.45067	-13.77658	11.27051
2.45473	-13.77658	11.27051
2.45879	-13.75461	11.27051
2.46284	-13.73263	11.27051
2.46691	-13.71066	11.27051
2.47097	-13.68869	11.27051
2.47503	-13.68869	11.27051
2.47909	-13.66672	11.27051
2.48315	-13.64474	11.27051
2.48720	-13.62277	11.27051
2.49126	-13.60080	11.27051
2.49532	-13.60080	11.27051
2.49937	-13.57882	11.27051
2.50343	-13.55685	11.27051
2.50749	-13.53488	11.27051
2.51154	-13.51291	11.27051
2.51560	-13.51291	11.27051
2.51966	-13.51291	11.27051
2.52372	-13.49093	11.27051
2.52777	-13.46896	11.27051
2.53183	-13.44699	11.27051
2.53589	-13.42502	11.27051
2.54012	-13.42502	11.27051
2.54417	-13.40304	11.27051
2.54823	-13.38107	11.27051
2.55229	-13.38107	11.27051
2.55634	-13.35910	11.27051
2.56040	-13.35910	11.27051
2.56445	-13.33713	11.27051
2.56853	-13.31515	11.27051
2.57259	-13.31515	11.27051
2.57664	-13.29318	11.27051
2.58070	-13.29318	11.27051
2.58476	-13.27121	11.27051
2.58882	-13.24923	11.27051
2.59287	-13.24923	11.27051
2.59693	-13.22726	11.27051
2.60099	-13.22726	11.27051
2.60505	-13.22726	11.27051
2.60910	-13.20529	11.27051
2.61313	-13.18332	11.27051
2.61724	-13.18332	11.27051
2.62129	-13.16134	11.27051
2.62535	-13.16134	11.27051
2.62940	-13.13937	11.27051
2.63346	-13.13937	11.27051
2.63751	-13.11740	11.27051
2.64174	-13.11740	11.27051
2.64579	-13.09543	11.27051
2.64985	-13.09543	11.27051
2.65390	-13.09543	11.27051
2.65796	-13.07345	11.27051
2.66201	-13.05148	11.27051
2.66607	-13.05148	11.27051
2.67015	-13.05148	11.27051
2.67420	-13.02951	11.27051
2.67826	-13.02951	11.27051
2.68231	-13.02951	11.27051
2.68637	-13.02951	11.27051
2.69043	-13.02951	11.27051
2.69448	-13.00754	11.27051
2.69854	-13.00754	11.27051
2.70259	-12.98556	11.27051
2.70665	-12.98556	11.27051
2.71070	-12.98556	11.27051
2.71477	-12.98556	11.27051
2.71883	-12.96359	11.27051
2.72288	-12.96359	11.27051
2.72694	-12.96359	11.27051
2.73100	-12.96359	11.27051
2.73506	-12.94162	11.27051
2.73911	-12.96359	11.27051
2.74334	-12.94162	11.27051
2.74739	-12.94162	11.27051
2.75145	-12.94162	11.27051
2.75550	-12.91964	11.27051
2.75955	-12.91964	11.27051
2.76361	-12.91964	11.27051
2.76766	-12.91964	11.27051
2.77174	-12.89767	11.27051
2.77579	-12.89767	11.27051
2.77985	-12.91964	11.27051
2.78391	-12.89767	11.27051
2.78797	-12.91964	11.27051
2.79202	-12.91964	11.27051
2.79607	-12.91964	11.27051
2.80013	-12.89767	11.27051
2.80418	-12.91964	11.27051
2.80824	-12.89767	11.27051
2.81229	-12.91964	11.27051
2.81635	-12.91964	11.27051
2.82040	-12.89767	11.27051
2.82446	-12.91964	11.27051
2.82851	-12.91964	11.27051
2.83256	-12.89767	11.27051
2.83662	-12.89767	11.27051
2.84067	-12.89767	11.27051
2.84491	-12.91964	11.27051
2.84896	-12.91964	11.27051
2.85302	-12.89767	11.27051
2.85707	-12.91964	11.27051
2.86113	-12.91964	11.27051
2.86518	-12.91964	11.27051
2.86924	-12.89767	11.27051
2.87331	-12.94162	11.27051
2.87737	-12.91964	11.27051
2.88142	-12.91964	11.27051
2.88548	-12.91964	11.27051
2.88953	-12.91964	11.27051
2.89359	-12.91964	11.27051
2.89764	-12.94162	11.27051
2.90170	-12.91964	11.27051
2.90575	-12.91964	11.27051
2.90981	-12.94162	11.27051
2.91386	-12.94162	11.27051
2.91792	-12.94162	11.27051
2.92197	-12.94162	11.27051
2.92602	-12.94162	11.27051
2.93008	-12.96359	11.27051
2.93413	-12.96359	11.27051
2.93819	-12.96359	11.27051
2.94224	-12.98556	11.27051
2.94648	-12.98556	11.27051
2.95053	-12.98556	11.27051
2.95459	-12.98556	11.27051
2.95864	-12.98556	11.27051
2.96269	-13.00754	11.27051
2.96675	-13.00754	11.27051
2.97080	-13.00754	11.27051
2.97487	-13.00754	11.27051
2.97893	-13.02951	11.27051
2.98299	-13.05148	11.27051
2.98704	-13.05148	11.27051
2.99110	-13.02951	11.27051
2.99515	-13.05148	11.27051
2.99921	-13.05148	11.27051
3.00326	-13.05148	11.27051
3.00732	-13.05148	11.27051
3.01137	-13.07345	11.27051
3.01543	-13.07345	11.27051
3.01948	-13.09543	11.27051
3.02354	-13.11740	11.27051
3.02759	-13.09543	11.27051
3.03164	-13.09543	11.27051
3.03570	-13.11740	11.27051
3.03975	-13.11740	11.27051
3.04381	-13.13937	11.27051
3.04804	-13.16134	11.27051
3.05210	-13.16134	11.27051
3.05615	-13.13937	11.27051
3.06021	-13.16134	11.27051
3.06426	-13.18332	11.27051
3.06832	-13.18332	11.27051
3.07237	-13.18332	11.27051
3.07644	-13.18332	11.27051
3.08050	-13.20529	11.27051
3.08456	-13.22726	11.27051
3.08862	-13.22726	11.27051
3.09267	-13.22726	11.27051
3.09673	-13.22726	11.27051
3.10078	-13.24923	11.27051
3.10484	-13.27121	11.27051
3.10889	-13.27121	11.27051
3.11295	-13.29318	11.27051
3.11700	-13.29318	11.27051
3.12105	-13.29318	11.27051
3.12511	-13.31515	11.27051
3.12913	-13.31515	11.27051
3.13319	-13.33713	11.27051
3.13724	-13.33713	11.27051
3.14130	-13.33713	11.27051
3.14535	-13.35910	11.27051
3.14959	-13.35910	11.27051
3.15364	-13.38107	11.27051
3.15770	-13.40304	11.27051
3.16176	-13.40304	11.27051
3.16581	-13.40304	11.27051
3.16987	-13.42502	11.27051
3.17392	-13.42502	11.27051
3.17799	-13.44699	11.27051
3.18205	-13.44699	11.27051
3.18611	-13.46896	11.27051
3.19017	-13.46896	11.27051
3.19422	-13.49093	11.27051
3.19828	-13.49093	11.27051
3.20233	-13.49093	11.27051
3.20638	-13.51291	11.27051
3.21044	-13.51291	11.27051
3.21450	-13.53488	11.27051
3.21855	-13.53488	11.27051
3.22261	-13.53488	11.27051
3.22666	-13.55685	11.27051
3.23072	-13.57882	11.27051
3.23477	-13.60080	11.27051
3.23883	-13.60080	11.27051
3.24288	-13.60080	11.27051
3.24694	-13.62277	11.27051
3.25117	-13.62277	11.27051
3.25522	-13.64474	11.27051
3.25928	-13.66672	11.27051
3.26333	-13.66672	11.27051
3.26739	-13.68869	11.27051
3.27144	-13.68869	11.27051
3.27550	-13.68869	11.27051
3.27957	-13.71066	11.27051
3.28363	-13.73263	11.27051
3.28768	-13.73263	11.27051
3.29174	-13.73263	11.27051
3.29579	-13.75461	11.27051
3.29985	-13.75461	11.27051
3.30390	-13.75461	11.27051
3.30796	-13.77658	11.27051
3.31201	-13.79855	11.27051
3.31606	-13.82052	11.27051
3.32012	-13.82052	11.27051
3.32417	-13.84250	11.27051
3.32823	-13.84250	11.27051
3.33228	-13.84250	11.27051
3.33634	-13.86447	11.27051
3.34039	-13.88644	11.27051
3.34445	-13.88644	11.27051
3.34850	-13.88644	11.27051
3.35273	-13.90841	11.27051
3.35679	-13.90841	11.27051
3.36084	-13.93039	11.27051
3.36490	-13.95236	11.27051
3.36895	-13.95236	11.27051
3.37301	-13.95236	11.27051
3.37706	-13.97433	11.27051
3.38112	-13.97433	11.27051
3.38513	-13.99631	11.27051
3.38919	-14.01828	11.27051
3.39324	-14.01828	11.27051
3.39730	-14.01828	11.27051
3.40135	-14.04025	11.27051
3.40541	-14.06222	11.27051
3.40946	-14.06222	11.27051
3.41352	-14.08420	11.27051
3.41758	-14.08420	11.27051
3.42163	-14.10617	11.27051
3.42569	-14.10617	11.27051
3.42974	-14.12814	11.27051
3.43379	-14.12814	11.27051
3.43785	-14.12814	11.27051
3.44190	-14.15011	11.27051
3.44596	-14.15011	11.27051
3.45001	-14.17209	11.27051
3.45424	-14.17209	11.27051
3.45830	-14.17209	11.27051
3.46235	-14.21603	11.27051
3.46641	-14.21603	11.27051
3.47046	-14.21603	11.27051
3.47452	-14.23800	11.27051
3.47857	-14.23800	11.27051
3.48263	-14.25998	11.27051
3.48669	-14.28195	11.27051
3.49075	-14.28195	11.27051
3.49480	-14.28195	11.27051
3.49885	-14.28195	11.27051
3.50291	-14.30392	11.27051
3.50696	-14.32589	11.27051
3.51102	-14.32589	11.27051
3.51507	-14.34787	11.27051
3.51913	-14.34787	11.27051
3.52318	-14.34787	11.27051
3.52724	-14.36984	11.27051
3.53129	-14.36984	11.27051
3.53535	-14.39181	11.27051
3.53940	-14.39181	11.27051
3.54345	-14.39181	11.27051
3.54751	-14.41379	11.27051
3.55156	-14.41379	11.27051
3.55580	-14.43576	11.27051
3.55985	-14.43576	11.27051
3.56391	-14.43576	11.27051
3.56796	-14.45773	11.27051
3.57202	-14.47970	11.27051
3.57607	-14.47970	11.27051
3.58013	-14.47970	11.27051
3.58419	-14.47970	11.27051
3.58824	-14.50168	11.27051
3.59230	-14.50168	11.27051
3.59635	-14.52365	11.27051
3.60041	-14.52365	11.27051
3.60446	-14.52365	11.27051
3.60852	-14.52365	11.27051
3.61257	-14.54562	11.27051
3.61663	-14.54562	11.27051
3.62068	-14.56759	11.27051
3.62473	-14.56759	11.27051
3.62879	-14.56759	11.27051
3.63284	-14.56759	11.27051
3.63690	-14.58957	11.27051
3.64095	-14.61154	11.27051
3.64501	-14.61154	11.27051
3.64906	-14.61154	11.27051
3.65311	-14.61154	11.27051
3.65732	-14.61154	11.27051
3.66137	-14.63351	11.27051
3.66543	-14.63351	11.27051
3.66948	-14.63351	11.27051
3.67354	-14.63351	11.27051
3.67759	-14.65548	11.27051
3.68165	-14.65548	11.27051
3.68571	-14.65548	11.27051
3.68976	-14.65548	11.27051
3.69382	-14.67746	11.27051
3.69787	-14.67746	11.27051
3.70193	-14.67746	11.27051
3.70598	-14.69943	11.27051
3.71007	-14.69943	11.27051
3.71413	-14.69943	11.27051
3.71818	-14.69943	11.27051
3.72224	-14.72140	11.27051
3.72629	-14.72140	11.27051
3.73035	-14.72140	11.27051
3.73440	-14.72140	11.27051
3.73846	-14.74338	11.27051
3.74251	-14.74338	11.27051
3.74656	-14.74338	11.27051
3.75062	-14.74338	11.27051
3.75467	-14.74338	11.27051
3.75890	-14.74338	11.27051
3.76296	-14.76535	11.27051
3.76701	-14.76535	11.27051
3.77107	-14.76535	11.27051
3.77512	-14.76535	11.27051
3.77917	-14.76535	11.27051
3.78323	-14.78732	11.27051
3.78729	-14.78732	11.27051
3.79135	-14.78732	11.27051
3.79540	-14.78732	11.27051
3.79945	-14.78732	11.27051
3.80351	-14.78732	11.27051
3.80756	-14.78732	11.27051
3.81162	-14.78732	11.27051
3.81567	-14.78732	11.27051
3.81973	-14.80929	11.27051
3.82378	-14.80929	11.27051
3.82784	-14.80929	11.27051
3.83189	-14.80929	11.27051
3.83594	-14.78732	11.27051
3.84000	-14.78732	11.27051
3.84405	-14.80929	11.27051
3.84811	-14.80929	11.27051
3.85216	-14.80929	11.27051
3.85622	-14.83127	11.27051
3.86045	-14.83127	11.27051
3.86450	-14.80929	11.27051
3.86856	-14.80929	11.27051
3.87261	-14.80929	11.27051
3.87667	-14.83127	11.27051
3.88072	-14.83127	11.27051
3.88478	-14.83127	11.27051
3.88884	-14.83127	11.27051
3.89289	-14.83127	11.27051
3.89695	-14.83127	11.27051
3.90100	-14.83127	11.27051
3.90506	-14.83127	11.27051
3.90911	-14.83127	11.27051
3.91313	-14.83127	11.27051
3.91719	-14.83127	11.27051
3.92124	-14.83127	11.27051
3.92530	-14.83127	11.27051
3.92935	-14.80929	11.27051
3.93340	-14.80929	11.27051
3.93746	-14.83127	11.27051
3.94151	-14.80929	11.27051
3.94557	-14.80929	11.27051
3.94962	-14.80929	11.27051
3.95368	-14.83127	11.27051
3.95773	-14.80929	11.27051
3.96197	-14.80929	11.27051
3.96602	-14.83127	11.27051
3.97008	-14.83127	11.27051
3.97413	-14.80929	11.27051
3.97819	-14.80929	11.27051
3.98224	-14.80929	11.27051
3.98630	-14.80929	11.27051
3.99036	-14.80929	11.27051
3.99441	-14.80929	11.27051
3.99847	-14.80929	11.27051
4.00252	-14.80929	11.27051
4.00658	-14.80929	11.27051
4.01063	-14.80929	11.27051
4.01469	-14.78732	11.27051
4.01874	-14.80929	11.27051
4.02279	-14.78732	11.27051
4.02685	-14.78732	11.27051
4.03090	-14.78732	11.27051
4.03496	-14.78732	11.27051
4.03901	-14.78732	11.27051
4.04307	-14.78732	11.27051
4.04712	-14.78732	11.27051
4.05118	-14.78732	11.27051
4.05523	-14.78732	11.27051
4.05929	-14.78732	11.27051
4.06351	-14.78732	11.27051
4.06757	-14.76535	11.27051
4.07162	-14.76535	11.27051
4.07568	-14.76535	11.27051
4.08002	-14.76535	11.27051
4.08407	-14.76535	11.27051
4.08813	-14.76535	11.27051
4.09219	-14.74338	11.27051
4.09624	-14.74338	11.27051
4.10030	-14.76535	11.27051
4.10435	-14.76535	11.27051
4.10841	-14.74338	11.27051
4.11246	-14.74338	11.27051
4.11652	-14.74338	11.27051
4.12057	-14.74338	11.27051
4.12463	-14.74338	11.27051
4.12868	-14.74338	11.27051
4.13273	-14.74338	11.27051
4.13679	-14.74338	11.27051
4.14084	-14.74338	11.27051
4.14490	-14.72140	11.27051
4.14895	-14.72140	11.27051
4.15301	-14.72140	11.27051
4.15706	-14.72140	11.27051
4.16112	-14.72140	11.27051
4.16532	-14.69943	11.27051
4.16937	-14.72140	11.27051
4.17343	-14.72140	11.27051
4.17748	-14.69943	11.27051
4.18154	-14.69943	11.27051
4.18559	-14.69943	11.27051
4.18965	-14.69943	11.27051
4.19371	-14.69943	11.27051
4.19776	-14.69943	11.27051
4.20182	-14.69943	11.27051
4.20587	-14.69943	11.27051
4.20992	-14.67746	11.27051
4.21398	-14.67746	11.27051
4.21803	-14.67746	11.27051
4.22209	-14.67746	11.27051
4.22614	-14.67746	11.27051
4.23020	-14.65548	11.27051
4.23425	-14.65548	11.27051
4.23831	-14.65548	11.27051
4.24236	-14.65548	11.27051
4.24642	-14.65548	11.27051
4.25047	-14.65548	11.27051
4.25453	-14.65548	11.27051
4.25858	-14.65548	11.27051
4.26263	-14.63351	11.27051
4.26686	-14.63351	11.27051
4.27091	-14.63351	11.27051
4.27497	-14.63351	11.27051
4.27902	-14.63351	11.27051
4.28308	-14.61154	11.27051
4.28713	-14.61154	11.27051
4.29119	-14.63351	11.27051
4.29525	-14.61154	11.27051
4.29930	-14.61154	11.27051
4.30336	-14.61154	11.27051
4.30741	-14.61154	11.27051
4.31147	-14.61154	11.27051
4.31552	-14.58957	11.27051
4.31958	-14.61154	11.27051
4.32363	-14.58957	11.27051
4.32769	-14.58957	11.27051
4.33174	-14.58957	11.27051
4.33580	-14.58957	11.27051
4.33985	-14.58957	11.27051
4.34390	-14.58957	11.27051
4.34796	-14.56759	11.27051
4.35201	-14.56759	11.27051
4.35607	-14.56759	11.27051
4.36012	-14.56759	11.27051
4.36418	-14.56759	11.27051
4.36841	-14.54562	11.27051
4.37246	-14.54562	11.27051
4.37652	-14.56759	11.27051
4.38057	-14.54562	11.27051
4.38462	-14.54562	11.27051
4.38868	-14.54562	11.27051
4.39273	-14.54562	11.27051
4.39679	-14.54562	11.27051
4.40085	-14.54562	11.27051
4.40490	-14.52365	11.27051
4.40896	-14.52365	11.27051
4.41301	-14.52365	11.27051
4.41707	-14.52365	11.27051
4.42112	-14.50168	11.27051
4.42513	-14.50168	11.27051
4.42919	-14.52365	11.27051
4.43324	-14.50168	11.27051
4.43730	-14.50168	11.27051
4.44136	-14.50168	11.27051
4.44542	-14.47970	11.27051
4.44947	-14.47970	11.27051
4.45353	-14.47970	11.27051
4.45759	-14.47970	11.27051
4.46164	-14.47970	11.27051
4.46570	-14.47970	11.27051
4.46999	-14.47970	11.27051
4.47405	-14.47970	11.27051
4.47811	-14.45773	11.27051
4.48216	-14.45773	11.27051
4.48622	-14.45773	11.27051
4.49028	-14.45773	11.27051
4.49433	-14.45773	11.27051
4.49840	-14.43576	11.27051
4.50246	-14.43576	11.27051
4.50652	-14.43576	11.27051
4.51057	-14.43576	11.27051
4.51463	-14.41379	11.27051
4.51869	-14.41379	11.27051
4.52274	-14.41379	11.27051
4.52680	-14.41379	11.27051
4.53087	-14.41379	11.27051
4.53492	-14.41379	11.27051
4.53898	-14.39181	11.27051
4.54304	-14.39181	11.27051
4.54709	-14.41379	11.27051
4.55115	-14.39181	11.27051
4.55521	-14.39181	11.27051
4.55927	-14.39181	11.27051
4.56332	-14.39181	11.27051
4.56738	-14.39181	11.27051
4.57166	-14.36984	11.27051
4.57572	-14.36984	11.27051
4.57978	-14.36984	11.27051
4.58384	-14.36984	11.27051
4.58790	-14.34787	11.27051
4.59196	-14.36984	11.27051
4.59602	-14.34787	11.27051
4.60010	-14.34787	11.27051
4.60417	-14.34787	11.27051
4.60822	-14.34787	11.27051
4.61228	-14.34787	11.27051
4.61637	-14.32589	11.27051
4.62044	-14.30392	11.27051
4.62450	-14.32589	11.27051
4.62855	-14.32589	11.27051
4.63262	-14.32589	11.27051
4.63668	-14.30392	11.27051
4.64074	-14.30392	11.27051
4.64480	-14.30392	11.27051
4.64885	-14.30392	11.27051
4.65292	-14.30392	11.27051
4.65698	-14.30392	11.27051
4.66104	-14.28195	11.27051
4.66509	-14.28195	11.27051
4.66914	-14.28195	11.27051
4.67344	-14.28195	11.27051
4.67749	-14.28195	11.27051
4.68155	-14.28195	11.27051
4.68561	-14.28195	11.27051
4.68966	-14.25998	11.27051
4.69372	-14.25998	11.27051
4.69778	-14.25998	11.27051
4.70186	-14.25998	11.27051
4.70592	-14.23800	11.27051
4.70998	-14.23800	11.27051
4.71403	-14.23800	11.27051
4.71810	-14.23800	11.27051
4.72216	-14.23800	11.27051
4.72621	-14.23800	11.27051
4.73027	-14.21603	11.27051
4.73433	-14.21603	11.27051
4.73838	-14.21603	11.27051
4.74244	-14.21603	11.27051
4.74650	-14.21603	11.27051
4.75055	-14.21603	11.27051
4.75461	-14.19406	11.27051
4.75867	-14.19406	11.27051
4.76272	-14.19406	11.27051
4.76678	-14.19406	11.27051
4.77084	-14.19406	11.27051
4.77512	-14.19406	11.27051
4.77918	-14.19406	11.27051
4.78324	-14.17209	11.27051
4.78729	-14.17209	11.27051
4.79135	-14.17209	11.27051
4.79541	-14.15011	11.27051
4.79946	-14.15011	11.27051
4.80354	-14.15011	11.27051
4.80760	-14.15011	11.27051
4.81166	-14.15011	11.27051
4.81572	-14.15011	11.27051
4.81978	-14.15011	11.27051
4.82383	-14.15011	11.27051
4.82789	-14.12814	11.27051
4.83195	-14.12814	11.27051
4.83601	-14.12814	11.27051
4.84006	-14.12814	11.27051
4.84412	-14.12814	11.27051
4.84818	-14.12814	11.27051
4.85223	-14.12814	11.27051
4.85629	-14.10617	11.27051
4.86035	-14.12814	11.27051
4.86440	-14.12814	11.27051
4.86846	-14.10617	11.27051
4.87252	-14.10617	11.27051
4.87682	-14.10617	11.27051
4.88087	-14.10617	11.27051
4.88493	-14.10617	11.27051
4.88899	-14.10617	11.27051
4.89305	-14.08420	11.27051
4.89710	-14.08420	11.27051
4.90114	-14.08420	11.27051
4.90521	-14.08420	11.27051
4.90927	-14.08420	11.27051
4.91333	-14.08420	11.27051
4.91739	-14.08420	11.27051
4.92145	-14.06222	11.27051
4.92551	-14.06222	11.27051
4.92956	-14.06222	11.27051
4.93362	-14.06222	11.27051
4.93768	-14.06222	11.27051
4.94174	-14.06222	11.27051
4.94579	-14.06222	11.27051
4.94985	-14.04025	11.27051
4.95391	-14.04025	11.27051
4.95796	-14.04025	11.27051
4.96202	-14.04025	11.27051
4.96608	-14.04025	11.27051
4.97013	-14.04025	11.27051
4.97419	-14.04025	11.27051
4.97849	-14.04025	11.27051
4.98255	-14.04025	11.27051
4.98660	-14.04025	11.27051
4.99066	-14.01828	11.27051
4.99472	-14.04025	11.27051
4.99877	-14.04025	11.27051
5.00283	-14.01828	11.27051
5.00690	-14.01828	11.27051
5.01096	-14.01828	11.27051
5.01502	-14.01828	11.27051
5.01908	-14.01828	11.27051
5.02314	-14.01828	11.27051
5.02720	-13.99631	11.27051
5.03125	-14.01828	11.27051
5.03531	-14.01828	11.27051
5.03937	-14.01828	11.27051
5.04343	-13.99631	11.27051
5.04748	-14.01828	11.27051
5.05154	-13.99631	11.27051
5.05560	-13.99631	11.27051
5.05965	-13.99631	11.27051
5.06371	-14.01828	11.27051
5.06777	-13.99631	11.27051
5.07182	-13.99631	11.27051
5.07588	-13.99631	11.27051
5.08018	-13.99631	11.27051
5.08423	-13.99631	11.27051
5.08829	-13.99631	11.27051
5.09235	-13.99631	11.27051
5.09640	-13.99631	11.27051
5.10046	-13.99631	11.27051
5.10452	-13.99631	11.27051
5.10858	-13.99631	11.27051
5.11264	-13.97433	11.27051
5.11669	-13.99631	11.27051
5.12075	-13.99631	11.27051
5.12481	-13.99631	11.27051
5.12887	-13.97433	11.27051
5.13292	-13.97433	11.27051
5.13698	-13.97433	11.27051
5.14104	-13.97433	11.27051
5.14509	-13.97433	11.27051
5.14914	-13.97433	11.27051
5.15319	-13.97433	11.27051
5.15725	-13.97433	11.27051
5.16131	-13.97433	11.27051
5.16536	-13.97433	11.27051
5.16942	-13.97433	11.27051
5.17348	-13.97433	11.27051
5.17753	-13.95236	11.27051
5.18183	-13.97433	11.27051
5.18588	-13.97433	11.27051
5.18994	-13.97433	11.27051
5.19400	-13.95236	11.27051
5.19806	-13.97433	11.27051
5.20211	-13.97433	11.27051
5.20617	-13.95236	11.27051
5.21023	-13.95236	11.27051
5.21429	-13.95236	11.27051
5.21835	-13.95236	11.27051
5.22240	-13.97433	11.27051
5.22646	-13.95236	11.27051
5.23052	-13.95236	11.27051
5.23458	-13.95236	11.27051
5.23864	-13.95236	11.27051
5.24269	-13.95236	11.27051
5.24675	-13.95236	11.27051
5.25081	-13.97433	11.27051
5.25486	-13.97433	11.27051
5.25892	-13.95236	11.27051
5.26298	-13.95236	11.27051
5.26703	-13.97433	11.27051
5.27109	-13.97433	11.27051
5.27515	-13.97433	11.27051
5.27920	-13.95236	11.27051
5.28349	-13.97433	11.27051
5.28755	-13.95236	11.27051
5.29161	-13.97433	11.27051
5.29566	-13.97433	11.27051
5.29972	-13.97433	11.27051
5.30378	-13.95236	11.27051
5.30783	-13.97433	11.27051
5.31190	-13.97433	11.27051
5.31596	-13.95236	11.27051
5.32001	-13.97433	11.27051
5.32407	-13.97433	11.27051
5.32813	-13.95236	11.27051
5.33218	-13.97433	11.27051
5.33625	-13.97433	11.27051
5.34031	-13.97433	11.27051
5.34436	-13.95236	11.27051
5.34842	-13.97433	11.27051
5.35248	-13.95236	11.27051
5.35654	-13.95236	11.27051
5.36060	-13.97433	11.27051
5.36465	-13.97433	11.27051
5.36871	-13.97433	11.27051
5.37277	-13.97433	11.27051
5.37683	-13.97433	11.27051
5.38088	-13.97433	11.27051
5.38518	-13.97433	11.27051
5.38924	-13.97433	11.27051
5.39330	-13.97433	11.27051
5.39735	-13.97433	11.27051
5.40141	-13.97433	11.27051
5.40547	-13.97433	11.27051
5.40952	-13.97433	11.27051
5.41359	-13.97433	11.27051
5.41764	-13.97433	11.27051
5.42170	-13.97433	11.27051
5.42576	-13.97433	11.27051
5.42981	-13.97433	11.27051
5.43387	-13.97433	11.27051
5.43793	-13.97433	11.27051
5.44199	-13.97433	11.27051
5.44604	-13.97433	11.27051
5.45010	-13.97433	11.27051
5.45416	-13.97433	11.27051
5.45821	-13.97433	11.27051
5.46227	-13.97433	11.27051
5.46633	-13.97433	11.27051
5.47038	-13.97433	11.27051
5.47444	-13.97433	11.27051
5.47850	-13.97433	11.27051
5.48255	-13.97433	11.27051
5.48685	-13.97433	11.27051
5.49091	-13.97433	11.27051
5.49496	-13.97433	11.27051
5.49902	-13.97433	11.27051
5.50308	-13.97433	11.27051
5.50713	-13.97433	11.27051
5.51119	-13.97433	11.27051
5.51525	-13.97433	11.27051
5.51931	-13.97433	11.27051
5.52337	-13.97433	11.27051
5.52743	-13.97433	11.27051
5.53148	-13.97433	11.27051
5.53554	-13.97433	11.27051
5.53961	-13.97433	11.27051
5.54366	-13.97433	11.27051
5.54772	-13.97433	11.27051
5.55178	-13.97433	11.27051
5.55583	-13.97433	11.27051
5.55989	-13.97433	11.27051
5.56395	-13.97433	11.27051
5.56801	-13.97433	11.27051
5.57206	-13.97433	11.27051
5.57612	-13.97433	11.27051
5.58018	-13.97433	11.27051
5.58423	-13.97433	11.27051
5.58853	-13.97433	11.27051
5.59259	-13.97433	11.27051
5.59664	-13.97433	11.27051
5.60070	-13.97433	11.27051
5.60476	-13.97433	11.27051
5.60881	-13.97433	11.27051
5.61287	-13.97433	11.27051
5.61693	-13.97433	11.27051
5.62099	-13.97433	11.27051
5.62505	-13.97433	11.27051
5.62911	-13.97433	11.27051
5.63314	-13.97433	11.27051
5.63719	-13.97433	11.27051
5.64125	-13.97433	11.27051
5.64531	-13.99631	11.27051
5.64937	-13.97433	11.27051
5.65343	-13.97433	11.27051
5.65749	-13.97433	11.27051
5.66154	-13.99631	11.27051
5.66560	-13.99631	11.27051
5.66966	-13.99631	11.27051
5.67371	-13.99631	11.27051
5.67777	-13.99631	11.27051
5.68183	-13.99631	11.27051
5.68588	-13.99631	11.27051
5.69017	-13.99631	11.27051
5.69423	-13.99631	11.27051
5.69828	-13.99631	11.27051
5.70234	-13.99631	11.27051
5.70640	-13.99631	11.27051
5.71046	-13.99631	11.27051
5.71452	-13.99631	11.27051
5.71858	-13.99631	11.27051
5.72265	-13.99631	11.27051
5.72670	-13.99631	11.27051
5.73076	-14.01828	11.27051
5.73482	-13.99631	11.27051
5.73888	-13.99631	11.27051
5.74294	-13.99631	11.27051
5.74699	-14.01828	11.27051
5.75105	-14.01828	11.27051
5.75511	-14.01828	11.27051
5.75917	-14.01828	11.27051
5.76323	-14.01828	11.27051
5.76728	-14.01828	11.27051
5.77134	-14.01828	11.27051
5.77540	-14.01828	11.27051
5.77946	-14.01828	11.27051
5.78352	-14.01828	11.27051
5.78757	-14.01828	11.27051
5.79185	-14.04025	11.27051
5.79591	-14.04025	11.27051
5.79997	-14.01828	11.27051
5.80403	-14.04025	11.27051
5.80809	-14.04025	11.27051
5.81214	-14.04025	11.27051
5.81620	-14.04025	11.27051
5.82027	-14.04025	11.27051
5.82433	-14.04025	11.27051
5.82839	-14.04025	11.27051
5.83245	-14.04025	11.27051
5.83651	-14.04025	11.27051
5.84056	-14.06222	11.27051
5.84462	-14.04025	11.27051
5.84868	-14.06222	11.27051
5.85274	-14.06222	11.27051
5.85680	-14.06222	11.27051
5.86085	-14.06222	11.27051
5.86491	-14.06222	11.27051
5.86897	-14.06222	11.27051
5.87303	-14.06222	11.27051
5.87709	-14.06222	11.27051
5.88114	-14.06222	11.27051
5.88519	-14.06222	11.27051
5.88925	-14.08420	11.27051
5.89354	-14.08420	11.27051
5.89760	-14.06222	11.27051
5.90165	-14.06222	11.27051
5.90571	-14.08420	11.27051
5.90977	-14.06222	11.27051
5.91383	-14.06222	11.27051
5.91788	-14.08420	11.27051
5.92195	-14.08420	11.27051
5.92601	-14.08420	11.27051
5.93006	-14.08420	11.27051
5.93412	-14.08420	11.27051
5.93818	-14.08420	11.27051
5.94224	-14.10617	11.27051
5.94630	-14.10617	11.27051
5.95036	-14.08420	11.27051
5.95442	-14.10617	11.27051
5.95848	-14.10617	11.27051
5.96254	-14.10617	11.27051
5.96659	-14.10617	11.27051
5.97065	-14.10617	11.27051
5.97471	-14.10617	11.27051
5.97877	-14.10617	11.27051
5.98282	-14.10617	11.27051
5.98688	-14.10617	11.27051
5.99094	-14.12814	11.27051
5.99523	-14.10617	11.27051
5.99928	-14.10617	11.27051
6.00334	-14.10617	11.27051
6.00740	-14.10617	11.27051
6.01146	-14.10617	11.27051
6.01552	-14.12814	11.27051
6.01958	-14.10617	11.27051
6.02365	-14.10617	11.27051
6.02771	-14.12814	11.27051
6.03176	-14.12814	11.27051
6.03582	-14.10617	11.27051
6.03988	-14.12814	11.27051
6.04394	-14.12814	11.27051
6.04800	-14.12814	11.27051
6.05206	-14.12814	11.27051
6.05612	-14.12814	11.27051
6.06018	-14.12814	11.27051
6.06423	-14.12814	11.27051
6.06829	-14.15011	11.27051
6.07235	-14.12814	11.27051
6.07641	-14.12814	11.27051
6.08047	-14.15011	11.27051
6.08453	-14.15011	11.27051
6.08858	-14.12814	11.27051
6.09264	-14.15011	11.27051
6.09693	-14.15011	11.27051
6.10099	-14.12814	11.27051
6.10504	-14.15011	11.27051
6.10910	-14.15011	11.27051
6.11314	-14.15011	11.27051
6.11720	-14.15011	11.27051
6.12126	-14.15011	11.27051
6.12532	-14.15011	11.27051
6.12938	-14.15011	11.27051
6.13345	-14.15011	11.27051
6.13750	-14.15011	11.27051
6.14156	-14.15011	11.27051
6.14562	-14.15011	11.27051
6.14968	-14.15011	11.27051
6.15374	-14.15011	11.27051
6.15780	-14.15011	11.27051
6.16186	-14.15011	11.27051
6.16591	-14.15011	11.27051
6.16997	-14.15011	11.27051
6.17403	-14.15011	11.27051
6.17809	-14.17209	11.27051
6.18214	-14.17209	11.27051
6.18620	-14.15011	11.27051
6.19026	-14.17209	11.27051
6.19431	-14.17209	11.27051
6.19859	-14.15011	11.27051
6.20265	-14.17209	11.27051
6.20671	-14.17209	11.27051
6.21077	-14.15011	11.27051
6.21483	-14.17209	11.27051
6.21888	-14.17209	11.27051
6.22294	-14.15011	11.27051
6.22702	-14.17209	11.27051
6.23108	-14.17209	11.27051
6.23513	-14.17209	11.27051
6.23919	-14.17209	11.27051
6.24325	-14.17209	11.27051
6.24731	-14.17209	11.27051
6.25136	-14.17209	11.27051
6.25542	-14.17209	11.27051
6.25948	-14.17209	11.27051
6.26353	-14.17209	11.27051
6.26759	-14.17209	11.27051
6.27165	-14.15011	11.27051
6.27571	-14.17209	11.27051
6.27976	-14.17209	11.27051
6.28383	-14.15011	11.27051
6.28788	-14.17209	11.27051
6.29194	-14.15011	11.27051
6.29600	-14.17209	11.27051
6.30028	-14.17209	11.27051
6.30435	-14.17209	11.27051
6.30841	-14.17209	11.27051
6.31247	-14.17209	11.27051
6.31653	-14.17209	11.27051
6.32059	-14.17209	11.27051
6.32465	-14.17209	11.27051
6.32872	-14.17209	11.27051
6.33278	-14.17209	11.27051
6.33684	-14.15011	11.27051
6.34090	-14.15011	11.27051
6.34496	-14.17209	11.27051
6.34902	-14.15011	11.27051
6.35308	-14.17209	11.27051
6.35716	-14.17209	11.27051
6.36122	-14.15011	11.27051
6.36528	-14.15011	11.27051
6.36934	-14.17209	11.27051
6.37340	-14.15011	11.27051
6.37745	-14.17209	11.27051
6.38151	-14.17209	11.27051
6.38557	-14.15011	11.27051
6.38963	-14.15011	11.27051
6.39369	-14.15011	11.27051
6.39774	-14.15011	11.27051
6.40203	-14.15011	11.27051
6.40609	-14.15011	11.27051
6.41014	-14.15011	11.27051
6.41420	-14.15011	11.27051
6.41826	-14.17209	11.27051
6.42232	-14.15011	11.27051
6.42638	-14.15011	11.27051
6.43045	-14.15011	11.27051
6.43451	-14.15011	11.27051
6.43857	-14.15011	11.27051
6.44262	-14.15011	11.27051
6.44669	-14.15011	11.27051
6.45074	-14.15011	11.27051
6.45480	-14.15011	11.27051
6.45886	-14.15011	11.27051
6.46291	-14.15011	11.27051
6.46697	-14.15011	11.27051
6.47103	-14.15011	11.27051
6.47508	-14.15011	11.27051
6.47914	-14.15011	11.27051
6.48320	-14.15011	11.27051
6.48726	-14.15011	11.27051
6.49131	-14.12814	11.27051
6.49537	-14.12814	11.27051
6.49943	-14.12814	11.27051
6.50372	-14.15011	11.27051
6.50777	-14.12814	11.27051
6.51183	-14.12814	11.27051
6.51589	-14.12814	11.27051
6.51995	-14.12814	11.27051
6.52400	-14.12814	11.27051
6.52806	-14.12814	11.27051
6.53213	-14.12814	11.27051
6.53620	-14.12814	11.27051
6.54025	-14.12814	11.27051
6.54431	-14.12814	11.27051
6.54838	-14.12814	11.27051
6.55244	-14.12814	11.27051
6.55649	-14.12814	11.27051
6.56055	-14.12814	11.27051
6.56461	-14.12814	11.27051
6.56867	-14.12814	11.27051
6.57272	-14.10617	11.27051
6.57678	-14.10617	11.27051
6.58084	-14.10617	11.27051
6.58489	-14.10617	11.27051
6.58895	-14.10617	11.27051
6.59301	-14.10617	11.27051
6.59707	-14.10617	11.27051
6.60112	-14.10617	11.27051
6.60537	-14.10617	11.27051
6.60943	-14.08420	11.27051
6.61348	-14.10617	11.27051
6.61754	-14.10617	11.27051
6.62160	-14.10617	11.27051
6.62569	-14.10617	11.27051
6.62975	-14.10617	11.27051
6.63381	-14.08420	11.27051
6.63788	-14.08420	11.27051
6.64193	-14.08420	11.27051
6.64599	-14.08420	11.27051
6.65005	-14.08420	11.27051
6.65411	-14.10617	11.27051
6.65817	-14.08420	11.27051
6.66223	-14.10617	11.27051
6.66629	-14.10617	11.27051
6.67035	-14.08420	11.27051
6.67440	-14.08420	11.27051
6.67846	-14.08420	11.27051
6.68252	-14.06222	11.27051
6.68657	-14.08420	11.27051
6.69063	-14.08420	11.27051
6.69469	-14.08420	11.27051
6.69875	-14.06222	11.27051
6.70280	-14.06222	11.27051
6.70708	-14.06222	11.27051
6.71114	-14.06222	11.27051
6.71520	-14.06222	11.27051
6.71926	-14.06222	11.27051
6.72331	-14.06222	11.27051
6.72738	-14.06222	11.27051
6.73143	-14.06222	11.27051
6.73550	-14.06222	11.27051
6.73956	-14.06222	11.27051
6.74362	-14.04025	11.27051
6.74768	-14.06222	11.27051
6.75174	-14.06222	11.27051
6.75580	-14.04025	11.27051
6.75986	-14.06222	11.27051
6.76392	-14.06222	11.27051
6.76798	-14.04025	11.27051
6.77204	-14.06222	11.27051
6.77609	-14.06222	11.27051
6.78015	-14.04025	11.27051
6.78421	-14.04025	11.27051
6.78827	-14.04025	11.27051
6.79233	-14.04025	11.27051
6.79638	-14.04025	11.27051
6.80044	-14.04025	11.27051
6.80450	-14.06222	11.27051
6.80878	-14.04025	11.27051
6.81284	-14.04025	11.27051
6.81690	-14.04025	11.27051
6.82096	-14.04025	11.27051
6.82502	-14.04025	11.27051
6.82908	-14.04025	11.27051
6.83314	-14.04025	11.27051
6.83721	-14.04025	11.27051
6.84127	-14.04025	11.27051
6.84533	-14.04025	11.27051
6.84946	-14.04025	11.27051
6.85353	-14.04025	11.27051
6.85759	-14.04025	11.27051
6.86164	-14.04025	11.27051
6.86571	-14.04025	11.27051
6.86977	-14.04025	11.27051
6.87383	-14.04025	11.27051
6.87788	-14.01828	11.27051
6.88194	-14.01828	11.27051
6.88600	-14.04025	11.27051
6.89006	-14.04025	11.27051
6.89411	-14.01828	11.27051
6.89817	-14.04025	11.27051
6.90223	-14.04025	11.27051
6.90629	-14.04025	11.27051
6.91059	-14.04025	11.27051
6.91465	-14.04025	11.27051
6.91871	-14.04025	11.27051
6.92277	-14.04025	11.27051
6.92683	-14.04025	11.27051
6.93089	-14.01828	11.27051
6.93494	-14.04025	11.27051
6.93902	-14.04025	11.27051
6.94309	-14.04025	11.27051
6.94714	-14.04025	11.27051
6.95121	-14.04025	11.27051
6.95527	-14.04025	11.27051
6.95932	-14.04025	11.27051
6.96338	-14.04025	11.27051
6.96744	-14.04025	11.27051
6.97150	-14.04025	11.27051
6.97556	-14.04025	11.27051
6.97962	-14.04025	11.27051
6.98367	-14.06222	11.27051
6.98773	-14.04025	11.27051
6.99179	-14.04025	11.27051
6.99584	-14.04025	11.27051
6.99990	-14.04025	11.27051
7.00396	-14.04025	11.27051
7.00801	-14.06222	11.27051
7.01231	-14.06222	11.27051
7.01637	-14.04025	11.27051
7.02043	-14.06222	11.27051
7.02449	-14.04025	11.27051
7.02855	-14.04025	11.27051
7.03261	-14.06222	11.27051
7.03666	-14.06222	11.27051
7.04074	-14.04025	11.27051
7.04480	-14.04025	11.27051
7.04886	-14.06222	11.27051
7.05292	-14.06222	11.27051
7.05698	-14.04025	11.27051
7.06103	-14.06222	11.27051
7.06517	-14.04025	11.27051
7.06925	-14.04025	11.27051
7.07371	-14.06222	11.27051
7.07777	-14.06222	11.27051
7.08183	-14.04025	11.27051
7.08594	-14.06222	11.27051
7.09001	-14.06222	11.27051
7.09407	-14.06222	11.27051
7.09813	-14.06222	11.27051
7.10221	-14.06222	11.27051
7.10629	-14.06222	11.27051
7.11036	-14.06222	11.27051
7.11469	-14.04025	11.27051
7.11877	-14.06222	11.27051
7.12286	-14.06222	11.27051
7.12693	-14.04025	11.27051
7.13100	-14.06222	11.27051
7.13509	-14.06222	11.27051
7.13920	-14.06222	11.27051
7.14328	-14.06222	11.27051
7.14734	-14.06222	11.27051
7.15150	-14.06222	11.27051
7.15557	-14.06222	11.27051
7.15964	-14.06222	11.27051
7.16381	-14.04025	11.27051
7.16794	-14.04025	11.27051
7.17215	-14.06222	11.27051
7.17624	-14.06222	11.27051
7.18035	-14.06222	11.27051
7.18519	-14.06222	11.27051
7.18927	-14.06222	11.27051
7.19332	-14.06222	11.27051
7.19742	-14.06222	11.27051
7.20151	-14.06222	11.27051
7.20568	-14.06222	11.27051
7.20975	-14.06222	11.27051
7.21383	-14.06222	11.27051
7.21828	-14.06222	11.27051
7.22235	-14.06222	11.27051
7.22641	-14.06222	11.27051
7.23048	-14.06222	11.27051
7.23458	-14.06222	11.27051
7.23873	-14.06222	11.27051
7.24280	-14.06222	11.27051
7.24687	-14.06222	11.27051
7.25094	-14.06222	11.27051
7.25504	-14.06222	11.27051
7.25910	-14.06222	11.27051
7.26325	-14.06222	11.27051
7.26737	-14.06222	11.27051
7.27153	-14.06222	11.27051
7.27560	-14.06222	11.27051
7.27968	-14.08420	11.27051
7.28376	-14.06222	11.27051
7.28782	-14.06222	11.27051
7.29188	-14.08420	11.27051
7.29596	-14.08420	11.27051
7.30005	-14.06222	11.27051
7.30413	-14.08420	11.27051
7.30820	-14.08420	11.27051
7.31227	-14.08420	11.27051
7.31634	-14.06222	11.27051
7.32060	-14.08420	11.27051
7.32466	-14.06222	11.27051
7.32873	-14.06222	11.27051
7.33282	-14.08420	11.27051
7.33692	-14.08420	11.27051
7.34099	-14.06222	11.27051
7.34505	-14.08420	11.27051
7.34911	-14.08420	11.27051
7.35316	-14.08420	11.27051
7.35722	-14.08420	11.27051
7.36131	-14.08420	11.27051
7.36540	-14.06222	11.27051
7.36947	-14.08420	11.27051
7.37354	-14.08420	11.27051
7.37760	-14.08420	11.27051
7.38165	-14.08420	11.27051
7.38571	-14.08420	11.27051
7.38977	-14.08420	11.27051
7.39385	-14.08420	11.27051
7.39793	-14.08420	11.27051
7.40201	-14.08420	11.27051
7.40608	-14.10617	11.27051
7.41014	-14.08420	11.27051
7.41420	-14.08420	11.27051
7.41826	-14.10617	11.27051
7.42250	-14.08420	11.27051
7.42655	-14.08420	11.27051
7.43061	-14.10617	11.27051
7.43467	-14.10617	11.27051
7.43873	-14.10617	11.27051
7.44278	-14.10617	11.27051
7.44684	-14.10617	11.27051
7.45091	-14.10617	11.27051
7.45497	-14.10617	11.27051
7.45902	-14.10617	11.27051
7.46308	-14.10617	11.27051
7.46714	-14.10617	11.27051
7.47120	-14.10617	11.27051
7.47526	-14.10617	11.27051
7.47931	-14.10617	11.27051
7.48338	-14.12814	11.27051
7.48743	-14.10617	11.27051
7.49149	-14.10617	11.27051
7.49554	-14.12814	11.27051
7.49960	-14.10617	11.27051
7.50366	-14.10617	11.27051
7.50771	-14.12814	11.27051
7.51177	-14.12814	11.27051
7.51583	-14.12814	11.27051
7.51988	-14.12814	11.27051
7.52411	-14.12814	11.27051
7.52816	-14.12814	11.27051
7.53222	-14.12814	11.27051
7.53628	-14.12814	11.27051
7.54033	-14.12814	11.27051
7.54439	-14.12814	11.27051
7.54845	-14.12814	11.27051
7.55251	-14.15011	11.27051
7.55658	-14.15011	11.27051
7.56064	-14.12814	11.27051
7.56469	-14.12814	11.27051
7.56875	-14.15011	11.27051
7.57281	-14.12814	11.27051
7.57687	-14.15011	11.27051
7.58092	-14.15011	11.27051
7.58499	-14.15011	11.27051
7.58904	-14.15011	11.27051
7.59310	-14.15011	11.27051
7.59713	-14.15011	11.27051
7.60119	-14.15011	11.27051
7.60524	-14.15011	11.27051
7.60930	-14.15011	11.27051
7.61335	-14.15011	11.27051
7.61741	-14.17209	11.27051
7.62147	-14.15011	11.27051
7.62648	-14.17209	11.27051
7.63056	-14.17209	11.27051
7.63463	-14.17209	11.27051
7.63870	-14.17209	11.27051
7.64286	-14.17209	11.27051
7.64693	-14.17209	11.27051
7.65098	-14.17209	11.27051
7.65506	-14.17209	11.27051
7.65912	-14.17209	11.27051
7.66317	-14.17209	11.27051
7.66723	-14.17209	11.27051
7.67129	-14.17209	11.27051
7.67534	-14.17209	11.27051
7.67940	-14.17209	11.27051
7.68346	-14.17209	11.27051
7.68751	-14.17209	11.27051
7.69157	-14.17209	11.27051
7.69562	-14.17209	11.27051
7.69968	-14.17209	11.27051
7.70373	-14.19406	11.27051
7.70779	-14.19406	11.27051
7.71184	-14.19406	11.27051
7.71589	-14.19406	11.27051
7.71995	-14.19406	11.27051
7.72400	-14.17209	11.27051
7.72824	-14.19406	11.27051
7.73230	-14.19406	11.27051
7.73636	-14.19406	11.27051
7.74042	-14.19406	11.27051
7.74448	-14.19406	11.27051
7.74853	-14.19406	11.27051
7.75259	-14.19406	11.27051
7.75666	-14.19406	11.27051
7.76072	-14.21603	11.27051
7.76478	-14.21603	11.27051
7.76884	-14.21603	11.27051
7.77290	-14.19406	11.27051
7.77695	-14.19406	11.27051
7.78101	-14.19406	11.27051
7.78507	-14.21603	11.27051
7.78912	-14.21603	11.27051
7.79313	-14.21603	11.27051
7.79719	-14.21603	11.27051
7.80124	-14.21603	11.27051
7.80530	-14.21603	11.27051
7.80935	-14.21603	11.27051
7.81341	-14.21603	11.27051
7.81746	-14.21603	11.27051
7.82152	-14.21603	11.27051
7.82557	-14.21603	11.27051
7.82980	-14.21603	11.27051
7.83386	-14.21603	11.27051
7.83792	-14.23800	11.27051
7.84198	-14.21603	11.27051
7.84603	-14.21603	11.27051
7.85009	-14.21603	11.27051
7.85414	-14.23800	11.27051
7.85821	-14.21603	11.27051
7.86227	-14.23800	11.27051
7.86633	-14.23800	11.27051
7.87039	-14.23800	11.27051
7.87444	-14.21603	11.27051
7.87850	-14.25998	11.27051
7.88255	-14.23800	11.27051
7.88661	-14.25998	11.27051
7.89067	-14.25998	11.27051
7.89472	-14.23800	11.27051
7.89878	-14.23800	11.27051
7.90283	-14.25998	11.27051
7.90689	-14.25998	11.27051
7.91094	-14.23800	11.27051
7.91500	-14.25998	11.27051
7.91905	-14.25998	11.27051
7.92311	-14.25998	11.27051
7.92716	-14.25998	11.27051
7.93140	-14.25998	11.27051
7.93546	-14.25998	11.27051
7.93951	-14.25998	11.27051
7.94357	-14.25998	11.27051
7.94763	-14.25998	11.27051
7.95168	-14.25998	11.27051
7.95574	-14.25998	11.27051
7.95981	-14.25998	11.27051
7.96387	-14.28195	11.27051
7.96793	-14.28195	11.27051
7.97198	-14.28195	11.27051
7.97604	-14.28195	11.27051
7.98009	-14.28195	11.27051
7.98415	-14.28195	11.27051
7.98821	-14.30392	11.27051
7.99226	-14.28195	11.27051
7.99632	-14.28195	11.27051
8.00037	-14.28195	11.27051
8.00443	-14.30392	11.27051
8.00848	-14.28195	11.27051
8.01254	-14.30392	11.27051
8.01659	-14.30392	11.27051
8.02065	-14.30392	11.27051
8.02470	-14.30392	11.27051
8.02876	-14.30392	11.27051
8.03300	-14.30392	11.27051
8.03705	-14.30392	11.27051
8.04111	-14.30392	11.27051
8.04514	-14.30392	11.27051
8.04920	-14.30392	11.27051
8.05325	-14.30392	11.27051
8.05731	-14.30392	11.27051
8.06138	-14.30392	11.27051
8.06544	-14.30392	11.27051
8.06950	-14.30392	11.27051
8.07359	-14.32589	11.27051
8.07767	-14.30392	11.27051
8.08173	-14.30392	11.27051
8.08579	-14.32589	11.27051
8.08985	-14.30392	11.27051
8.09391	-14.30392	11.27051
8.09796	-14.32589	11.27051
8.10209	-14.32589	11.27051
8.10616	-14.30392	11.27051
8.11022	-14.32589	11.27051
8.11428	-14.32589	11.27051
8.11840	-14.32589	11.27051
8.12247	-14.32589	11.27051
8.12653	-14.32589	11.27051
8.13059	-14.30392	11.27051
8.13484	-14.32589	11.27051
8.13889	-14.32589	11.27051
8.14295	-14.30392	11.27051
8.14701	-14.30392	11.27051
8.15107	-14.32589	11.27051
8.15519	-14.32589	11.27051
8.15927	-14.32589	11.27051
8.16339	-14.32589	11.27051
8.16747	-14.32589	11.27051
8.17152	-14.32589	11.27051
8.17558	-14.32589	11.27051
8.17963	-14.32589	11.27051
8.18369	-14.32589	11.27051
8.18780	-14.32589	11.27051
8.19186	-14.32589	11.27051
8.19592	-14.32589	11.27051
8.19998	-14.32589	11.27051
8.20404	-14.30392	11.27051
8.20809	-14.30392	11.27051
8.21215	-14.32589	11.27051
8.21620	-14.32589	11.27051
8.22026	-14.32589	11.27051
8.22431	-14.32589	11.27051
8.22835	-14.30392	11.27051
8.23241	-14.30392	11.27051
8.23664	-14.32589	11.27051
8.24070	-14.30392	11.27051
8.24475	-14.30392	11.27051
8.24881	-14.32589	11.27051
8.25286	-14.32589	11.27051
8.25692	-14.30392	11.27051
8.26097	-14.30392	11.27051
8.26504	-14.30392	11.27051
8.26909	-14.30392	11.27051
8.27313	-14.32589	11.27051
8.27719	-14.32589	11.27051
8.28124	-14.30392	11.27051
8.28530	-14.30392	11.27051
8.28935	-14.30392	11.27051
8.29340	-14.30392	11.27051
8.29746	-14.30392	11.27051
8.30151	-14.30392	11.27051
8.30557	-14.30392	11.27051
8.30962	-14.30392	11.27051
8.31368	-14.30392	11.27051
8.31773	-14.30392	11.27051
8.32179	-14.30392	11.27051
8.32584	-14.30392	11.27051
8.32990	-14.30392	11.27051
8.33396	-14.30392	11.27051
8.33819	-14.30392	11.27051
8.34224	-14.30392	11.27051
8.34630	-14.30392	11.27051
8.35035	-14.30392	11.27051
8.35441	-14.28195	11.27051
8.35848	-14.28195	11.27051
8.36253	-14.28195	11.27051
8.36660	-14.28195	11.27051
8.37065	-14.28195	11.27051
8.37471	-14.28195	11.27051
8.37876	-14.28195	11.27051
8.38282	-14.28195	11.27051
8.38687	-14.28195	11.27051
8.39093	-14.28195	11.27051
8.39498	-14.28195	11.27051
8.39904	-14.28195	11.27051
8.40309	-14.28195	11.27051
8.40714	-14.25998	11.27051
8.41120	-14.28195	11.27051
8.41525	-14.25998	11.27051
8.41931	-14.25998	11.27051
8.42336	-14.25998	11.27051
8.42742	-14.28195	11.27051
8.43148	-14.25998	11.27051
8.43553	-14.25998	11.27051
8.43976	-14.25998	11.27051
8.44381	-14.25998	11.27051
8.44787	-14.25998	11.27051
8.45192	-14.25998	11.27051
8.45598	-14.25998	11.27051
8.46003	-14.25998	11.27051
8.46409	-14.25998	11.27051
8.46815	-14.25998	11.27051
8.47221	-14.25998	11.27051
8.47626	-14.25998	11.27051
8.48032	-14.25998	11.27051
8.48437	-14.25998	11.27051
8.48843	-14.25998	11.27051
8.49248	-14.25998	11.27051
8.49654	-14.25998	11.27051
8.50059	-14.25998	11.27051
8.50465	-14.25998	11.27051
8.50870	-14.25998	11.27051
8.51275	-14.25998	11.27051
8.51681	-14.23800	11.27051
8.52086	-14.25998	11.27051
8.52492	-14.23800	11.27051
8.52898	-14.23800	11.27051
8.53303	-14.23800	11.27051
8.53711	-14.25998	11.27051
8.54150	-14.23800	11.27051
8.54556	-14.23800	11.27051
8.54963	-14.25998	11.27051
8.55369	-14.25998	11.27051
8.55774	-14.23800	11.27051
8.56180	-14.23800	11.27051
8.56585	-14.23800	11.27051
8.56992	-14.23800	11.27051
8.57401	-14.25998	11.27051
8.57807	-14.25998	11.27051
8.58213	-14.23800	11.27051
8.58626	-14.23800	11.27051
8.59033	-14.23800	11.27051
8.59439	-14.23800	11.27051
8.59848	-14.23800	11.27051
8.60254	-14.23800	11.27051
8.60659	-14.23800	11.27051
8.61065	-14.23800	11.27051
8.61470	-14.23800	11.27051
8.61883	-14.23800	11.27051
8.62290	-14.23800	11.27051
8.62696	-14.23800	11.27051
8.63102	-14.23800	11.27051
8.63508	-14.23800	11.27051
8.63914	-14.23800	11.27051
8.64336	-14.23800	11.27051
8.64742	-14.25998	11.27051
8.65148	-14.23800	11.27051
8.65554	-14.23800	11.27051
8.65960	-14.23800	11.27051
8.66366	-14.23800	11.27051
8.66772	-14.23800	11.27051
8.67180	-14.23800	11.27051
8.67586	-14.23800	11.27051
8.67991	-14.23800	11.27051
8.68397	-14.23800	11.27051
8.68803	-14.23800	11.27051
8.69208	-14.23800	11.27051
8.69614	-14.23800	11.27051
8.70019	-14.23800	11.27051
8.70425	-14.23800	11.27051
8.70830	-14.23800	11.27051
8.71236	-14.23800	11.27051
8.71641	-14.23800	11.27051
8.72047	-14.23800	11.27051
8.72452	-14.23800	11.27051
8.72860	-14.23800	11.27051
8.73265	-14.23800	11.27051
8.73671	-14.23800	11.27051
8.74076	-14.23800	11.27051
8.74500	-14.23800	11.27051
8.74906	-14.23800	11.27051
8.75312	-14.25998	11.27051
8.75713	-14.23800	11.27051
8.76119	-14.23800	11.27051
8.76524	-14.23800	11.27051
8.76930	-14.23800	11.27051
8.77335	-14.23800	11.27051
8.77742	-14.23800	11.27051
8.78147	-14.23800	11.27051
8.78553	-14.23800	11.27051
8.78958	-14.23800	11.27051
8.79364	-14.23800	11.27051
8.79769	-14.23800	11.27051
8.80175	-14.23800	11.27051
8.80580	-14.23800	11.27051
8.80986	-14.23800	11.27051
8.81391	-14.23800	11.27051
8.81797	-14.23800	11.27051
8.82202	-14.23800	11.27051
8.82607	-14.23800	11.27051
8.83013	-14.23800	11.27051
8.83418	-14.23800	11.27051
8.83824	-14.23800	11.27051
8.84229	-14.23800	11.27051
8.84653	-14.23800	11.27051
8.85058	-14.23800	11.27051
8.85464	-14.23800	11.27051
8.85869	-14.23800	11.27051
8.86275	-14.23800	11.27051
8.86680	-14.23800	11.27051
8.87086	-14.23800	11.27051
8.87492	-14.23800	11.27051
8.87897	-14.23800	11.27051
8.88303	-14.23800	11.27051
8.88708	-14.23800	11.27051
8.89114	-14.23800	11.27051
8.89519	-14.23800	11.27051
8.89925	-14.21603	11.27051
8.90330	-14.23800	11.27051
8.90735	-14.23800	11.27051
8.91141	-14.21603	11.27051
8.91546	-14.21603	11.27051
8.91952	-14.23800	11.27051
8.92357	-14.21603	11.27051
8.92763	-14.21603	11.27051
8.93168	-14.23800	11.27051
8.93573	-14.23800	11.27051
8.93979	-14.21603	11.27051
8.94384	-14.23800	11.27051
8.94808	-14.21603	11.27051
8.95214	-14.21603	11.27051
8.95619	-14.21603	11.27051
8.96025	-14.21603	11.27051
8.96430	-14.21603	11.27051
8.96836	-14.21603	11.27051
8.97241	-14.21603	11.27051
8.97647	-14.21603	11.27051
8.98052	-14.21603	11.27051
8.98458	-14.21603	11.27051
8.98863	-14.21603	11.27051
8.99269	-14.21603	11.27051
8.99674	-14.21603	11.27051
9.00080	-14.21603	11.27051
9.00485	-14.21603	11.27051
9.00890	-14.21603	11.27051
9.01296	-14.21603	11.27051
9.01701	-14.21603	11.27051
9.02107	-14.21603	11.27051
9.02512	-14.19406	11.27051
9.02913	-14.19406	11.27051
9.03319	-14.19406	11.27051
9.03724	-14.19406	11.27051
9.04130	-14.19406	11.27051
9.04535	-14.19406	11.27051
9.04959	-14.19406	11.27051
9.05364	-14.19406	11.27051
9.05770	-14.19406	11.27051
9.06175	-14.17209	11.27051
9.06581	-14.17209	11.27051
9.06986	-14.19406	11.27051
9.07392	-14.17209	11.27051
9.07797	-14.17209	11.27051
9.08204	-14.17209	11.27051
9.08610	-14.17209	11.27051
9.09015	-14.17209	11.27051
9.09421	-14.17209	11.27051
9.09826	-14.17209	11.27051
9.10232	-14.17209	11.27051
9.10637	-14.17209	11.27051
9.11043	-14.17209	11.27051
9.11448	-14.15011	11.27051
9.11854	-14.17209	11.27051
9.12259	-14.15011	11.27051
9.12665	-14.15011	11.27051
9.13071	-14.15011	11.27051
9.13476	-14.15011	11.27051
9.13882	-14.15011	11.27051
9.14287	-14.15011	11.27051
9.14693	-14.15011	11.27051
9.15115	-14.15011	11.27051
9.15521	-14.12814	11.27051
9.15926	-14.12814	11.27051
9.16332	-14.12814	11.27051
9.16738	-14.12814	11.27051
9.17143	-14.12814	11.27051
9.17549	-14.12814	11.27051
9.17956	-14.12814	11.27051
9.18362	-14.10617	11.27051
9.18768	-14.12814	11.27051
9.19173	-14.12814	11.27051
9.19579	-14.12814	11.27051
9.19985	-14.10617	11.27051
9.20390	-14.10617	11.27051
9.20796	-14.10617	11.27051
9.21201	-14.08420	11.27051
9.21607	-14.08420	11.27051
9.22012	-14.10617	11.27051
9.22418	-14.08420	11.27051
9.22823	-14.08420	11.27051
9.23229	-14.08420	11.27051
9.23634	-14.08420	11.27051
9.24040	-14.06222	11.27051
9.24445	-14.08420	11.27051
9.24851	-14.06222	11.27051
9.25273	-14.06222	11.27051
9.25679	-14.06222	11.27051
9.26084	-14.06222	11.27051
9.26490	-14.04025	11.27051
9.26895	-14.04025	11.27051
9.27301	-14.04025	11.27051
9.27707	-14.04025	11.27051
9.28113	-14.04025	11.27051
9.28519	-14.04025	11.27051
9.28925	-14.01828	11.27051
9.29331	-14.01828	11.27051
9.29736	-14.01828	11.27051
9.30142	-14.01828	11.27051
9.30547	-14.01828	11.27051
9.30953	-13.99631	11.27051
9.31358	-14.01828	11.27051
9.31764	-13.99631	11.27051
9.32170	-13.99631	11.27051
9.32575	-13.99631	11.27051
9.32981	-13.97433	11.27051
9.33386	-13.97433	11.27051
9.33792	-13.97433	11.27051
9.34198	-13.97433	11.27051
9.34603	-13.97433	11.27051
9.35009	-13.95236	11.27051
9.35432	-13.95236	11.27051
9.35837	-13.95236	11.27051
9.36243	-13.93039	11.27051
9.36648	-13.93039	11.27051
9.37054	-13.93039	11.27051
9.37460	-13.90841	11.27051
9.37865	-13.90841	11.27051
9.38271	-13.90841	11.27051
9.38678	-13.90841	11.27051
9.39083	-13.90841	11.27051
9.39489	-13.90841	11.27051
9.39894	-13.88644	11.27051
9.40300	-13.88644	11.27051
9.40706	-13.88644	11.27051
9.41111	-13.88644	11.27051
9.41517	-13.86447	11.27051
9.41923	-13.86447	11.27051
9.42328	-13.86447	11.27051
9.42734	-13.86447	11.27051
9.43139	-13.84250	11.27051
9.43545	-13.84250	11.27051
9.43951	-13.82052	11.27051
9.44356	-13.82052	11.27051
9.44762	-13.82052	11.27051
9.45168	-13.82052	11.27051
9.45590	-13.82052	11.27051
9.45996	-13.79855	11.27051
9.46401	-13.79855	11.27051
9.46807	-13.79855	11.27051
9.47212	-13.79855	11.27051
9.47618	-13.79855	11.27051
9.48023	-13.77658	11.27051
9.48430	-13.77658	11.27051
9.48835	-13.77658	11.27051
9.49241	-13.77658	11.27051
9.49667	-13.75461	11.27051
9.50073	-13.73263	11.27051
9.50478	-13.75461	11.27051
9.50884	-13.73263	11.27051
9.51290	-13.71066	11.27051
9.51695	-13.71066	11.27051
9.52101	-13.73263	11.27051
9.52507	-13.71066	11.27051
9.52913	-13.71066	11.27051
9.53319	-13.71066	11.27051
9.53724	-13.71066	11.27051
9.54130	-13.68869	11.27051
9.54536	-13.71066	11.27051
9.54941	-13.66672	11.27051
9.55347	-13.66672	11.27051
9.55769	-13.66672	11.27051
9.56175	-13.66672	11.27051
9.56581	-13.64474	11.27051
9.56986	-13.66672	11.27051
9.57392	-13.64474	11.27051
9.57797	-13.64474	11.27051
9.58203	-13.64474	11.27051
9.58609	-13.64474	11.27051
9.59014	-13.62277	11.27051
9.59420	-13.62277	11.27051
9.59825	-13.60080	11.27051
9.60231	-13.60080	11.27051
9.60636	-13.60080	11.27051
9.61041	-13.60080	11.27051
9.61447	-13.57882	11.27051
9.61852	-13.57882	11.27051
9.62258	-13.57882	11.27051
9.62663	-13.57882	11.27051
9.63069	-13.57882	11.27051
9.63474	-13.55685	11.27051
9.63880	-13.55685	11.27051
9.64285	-13.55685	11.27051
9.64690	-13.55685	11.27051
9.65096	-13.53488	11.27051
9.65501	-13.53488	11.27051
9.65926	-13.53488	11.27051
9.66332	-13.53488	11.27051
9.66737	-13.51291	11.27051
9.67143	-13.53488	11.27051
9.67549	-13.51291	11.27051
9.67954	-13.51291	11.27051
9.68359	-13.51291	11.27051
9.68765	-13.49093	11.27051
9.69171	-13.49093	11.27051
9.69576	-13.49093	11.27051
9.69982	-13.46896	11.27051
9.70388	-13.46896	11.27051
9.70793	-13.49093	11.27051
9.71199	-13.49093	11.27051
9.71604	-13.46896	11.27051
9.72010	-13.46896	11.27051
9.72415	-13.46896	11.27051
9.72821	-13.46896	11.27051
9.73227	-13.46896	11.27051
9.73633	-13.44699	11.27051
9.74038	-13.44699	11.27051
9.74444	-13.44699	11.27051
9.74849	-13.44699	11.27051
9.75256	-13.42502	11.27051
9.75662	-13.42502	11.27051
9.76084	-13.42502	11.27051
9.76490	-13.42502	11.27051
9.76896	-13.40304	11.27051
9.77322	-13.42502	11.27051
9.77728	-13.42502	11.27051
9.78134	-13.42502	11.27051
9.78542	-13.40304	11.27051
9.78949	-13.40304	11.27051
9.79355	-13.40304	11.27051
9.79761	-13.38107	11.27051
9.80174	-13.38107	11.27051
9.80585	-13.40304	11.27051
9.80991	-13.38107	11.27051
9.81397	-13.38107	11.27051
9.81804	-13.38107	11.27051
9.82209	-13.38107	11.27051
9.82615	-13.38107	11.27051
9.83020	-13.38107	11.27051
9.83426	-13.38107	11.27051
9.83831	-13.35910	11.27051
9.84237	-13.38107	11.27051
9.84642	-13.38107	11.27051
9.85057	-13.35910	11.27051
9.85468	-13.35910	11.27051
9.85874	-13.35910	11.27051
9.86322	-13.35910	11.27051
9.86729	-13.35910	11.27051
9.87134	-13.35910	11.27051
9.87540	-13.33713	11.27051
9.87946	-13.35910	11.27051
9.88363	-13.35910	11.27051
9.88771	-13.35910	11.27051
9.89190	-13.35910	11.27051
9.89598	-13.35910	11.27051
9.90005	-13.33713	11.27051
9.90411	-13.33713	11.27051
9.90816	-13.33713	11.27051
9.91221	-13.33713	11.27051
9.91627	-13.33713	11.27051
9.92033	-13.33713	11.27051
9.92439	-13.33713	11.27051
9.92844	-13.33713	11.27051
9.93250	-13.33713	11.27051
9.93656	-13.33713	11.27051
9.94061	-13.33713	11.27051
9.94467	-13.33713	11.27051
9.94872	-13.33713	11.27051
9.95278	-13.33713	11.27051
9.95683	-13.33713	11.27051
9.96089	-13.33713	11.27051
9.96511	-13.33713	11.27051
9.96913	-13.33713	11.27051
9.97319	-13.33713	11.27051
9.97725	-13.33713	11.27051
9.98131	-13.33713	11.27051
9.98536	-13.33713	11.27051
9.98941	-13.33713	11.27051
9.99349	-13.35910	11.27051
9.99755	-13.33713	11.27051
10.00161	-13.33713	11.27051
10.00566	-13.33713	11.27051
10.00972	-13.33713	11.27051
10.01377	-13.33713	11.27051
10.01783	-13.35910	11.27051
10.02189	-13.33713	11.27051
10.02594	-13.35910	11.27051
10.03000	-13.35910	11.27051
10.03405	-13.35910	11.27051
10.03811	-13.35910	11.27051
10.04216	-13.35910	11.27051
10.04622	-13.33713	11.27051
10.05027	-13.33713	11.27051
10.05432	-13.35910	11.27051
10.05838	-13.35910	11.27051
10.06244	-13.35910	11.27051
10.06667	-13.38107	11.27051
10.07073	-13.35910	11.27051
10.07479	-13.35910	11.27051
10.07884	-13.38107	11.27051
10.08290	-13.35910	11.27051
10.08696	-13.35910	11.27051
10.09101	-13.38107	11.27051
10.09509	-13.38107	11.27051
10.09914	-13.38107	11.27051
10.10320	-13.38107	11.27051
10.10725	-13.38107	11.27051
10.11131	-13.38107	11.27051
10.11536	-13.40304	11.27051
10.11942	-13.40304	11.27051
10.12348	-13.38107	11.27051
10.12753	-13.40304	11.27051
10.13159	-13.40304	11.27051
10.13564	-13.40304	11.27051
10.13969	-13.40304	11.27051
10.14375	-13.42502	11.27051
10.14780	-13.40304	11.27051
10.15186	-13.42502	11.27051
10.15591	-13.42502	11.27051
10.15997	-13.42502	11.27051
10.16403	-13.42502	11.27051
10.16827	-13.44699	11.27051
10.17233	-13.42502	11.27051
10.17639	-13.42502	11.27051
10.18045	-13.42502	11.27051
10.18450	-13.44699	11.27051
10.18856	-13.44699	11.27051
10.19261	-13.46896	11.27051
10.19669	-13.46896	11.27051
10.20074	-13.46896	11.27051
10.20480	-13.46896	11.27051
10.20885	-13.46896	11.27051
10.21291	-13.46896	11.27051
10.21696	-13.49093	11.27051
10.22102	-13.49093	11.27051
10.22508	-13.49093	11.27051
10.22913	-13.51291	11.27051
10.23319	-13.49093	11.27051
10.23724	-13.51291	11.27051
10.24130	-13.51291	11.27051
10.24535	-13.51291	11.27051
10.24941	-13.51291	11.27051
10.25346	-13.53488	11.27051
10.25751	-13.51291	11.27051
10.26157	-13.53488	11.27051
10.26563	-13.53488	11.27051
10.26987	-13.53488	11.27051
10.27393	-13.53488	11.27051
10.27798	-13.55685	11.27051
10.28204	-13.55685	11.27051
10.28610	-13.55685	11.27051
10.29016	-13.55685	11.27051
10.29421	-13.55685	11.27051
10.29841	-13.55685	11.27051
10.30251	-13.57882	11.27051
10.30657	-13.57882	11.27051
10.31064	-13.60080	11.27051
10.31470	-13.60080	11.27051
10.31880	-13.60080	11.27051
10.32286	-13.60080	11.27051
10.32692	-13.62277	11.27051
10.33098	-13.60080	11.27051
10.33504	-13.60080	11.27051
10.33909	-13.62277	11.27051
10.34315	-13.62277	11.27051
10.34727	-13.62277	11.27051
10.35134	-13.62277	11.27051
10.35539	-13.64474	11.27051
10.35946	-13.62277	11.27051
10.36351	-13.66672	11.27051
10.36757	-13.64474	11.27051
10.37181	-13.64474	11.27051
10.37587	-13.64474	11.27051
10.37992	-13.66672	11.27051
10.38398	-13.66672	11.27051
10.38803	-13.68869	11.27051
10.39209	-13.66672	11.27051
10.39614	-13.66672	11.27051
10.40020	-13.68869	11.27051
10.40426	-13.68869	11.27051
10.40831	-13.68869	11.27051
10.41237	-13.71066	11.27051
10.41642	-13.71066	11.27051
10.42048	-13.71066	11.27051
10.42453	-13.71066	11.27051
10.42859	-13.73263	11.27051
10.43264	-13.71066	11.27051
10.43669	-13.71066	11.27051
10.44075	-13.73263	11.27051
10.44480	-13.73263	11.27051
10.44886	-13.73263	11.27051
10.45291	-13.75461	11.27051
10.45697	-13.73263	11.27051
10.46102	-13.73263	11.27051
10.46508	-13.75461	11.27051
10.46913	-13.75461	11.27051
10.47339	-13.75461	11.27051
10.47744	-13.75461	11.27051
10.48150	-13.75461	11.27051
10.48555	-13.75461	11.27051
10.48961	-13.77658	11.27051
10.49366	-13.75461	11.27051
10.49772	-13.79855	11.27051
10.50178	-13.79855	11.27051
10.50583	-13.77658	11.27051
10.50989	-13.77658	11.27051
10.51394	-13.79855	11.27051
10.51800	-13.79855	11.27051
10.52205	-13.79855	11.27051
10.52611	-13.79855	11.27051
10.53016	-13.79855	11.27051
10.53421	-13.79855	11.27051
10.53827	-13.82052	11.27051
10.54232	-13.79855	11.27051
10.54638	-13.79855	11.27051
10.55043	-13.82052	11.27051
10.55449	-13.82052	11.27051
10.55854	-13.82052	11.27051
10.56260	-13.82052	11.27051
10.56665	-13.82052	11.27051
10.57070	-13.82052	11.27051
10.57495	-13.84250	11.27051
10.57900	-13.84250	11.27051
10.58306	-13.84250	11.27051
10.58712	-13.86447	11.27051
10.59117	-13.86447	11.27051
10.59522	-13.84250	11.27051
10.59928	-13.86447	11.27051
10.60334	-13.86447	11.27051
10.60739	-13.86447	11.27051
10.61145	-13.86447	11.27051
10.61550	-13.86447	11.27051
10.61956	-13.86447	11.27051
10.62361	-13.86447	11.27051
10.62767	-13.86447	11.27051
10.63172	-13.86447	11.27051
10.63578	-13.88644	11.27051
10.63983	-13.88644	11.27051
10.64389	-13.86447	11.27051
10.64794	-13.88644	11.27051
10.65208	-13.88644	11.27051
10.65615	-13.86447	11.27051
10.66021	-13.88644	11.27051
10.66427	-13.88644	11.27051
10.66833	-13.88644	11.27051
10.67239	-13.88644	11.27051
10.67663	-13.90841	11.27051
10.68068	-13.88644	11.27051
10.68481	-13.90841	11.27051
10.68888	-13.90841	11.27051
10.69294	-13.90841	11.27051
10.69700	-13.88644	11.27051
10.70111	-13.90841	11.27051
10.70519	-13.90841	11.27051
10.70926	-13.90841	11.27051
10.71332	-13.90841	11.27051
10.71742	-13.90841	11.27051
10.72149	-13.90841	11.27051
10.72555	-13.90841	11.27051
10.72961	-13.90841	11.27051
10.73367	-13.90841	11.27051
10.73772	-13.90841	11.27051
10.74178	-13.90841	11.27051
10.74587	-13.93039	11.27051
10.74995	-13.90841	11.27051
10.75402	-13.90841	11.27051
10.75808	-13.93039	11.27051
10.76214	-13.93039	11.27051
10.76619	-13.90841	11.27051
10.77024	-13.93039	11.27051
10.77430	-13.93039	11.27051
10.77854	-13.90841	11.27051
10.78259	-13.93039	11.27051
10.78665	-13.93039	11.27051
10.79070	-13.90841	11.27051
10.79476	-13.93039	11.27051
10.79881	-13.93039	11.27051
10.80287	-13.93039	11.27051
10.80693	-13.93039	11.27051
10.81098	-13.93039	11.27051
10.81504	-13.90841	11.27051
10.81909	-13.93039	11.27051
10.82315	-13.93039	11.27051
10.82720	-13.93039	11.27051
10.83126	-13.93039	11.27051
10.83531	-13.90841	11.27051
10.83937	-13.93039	11.27051
10.84342	-13.93039	11.27051
10.84748	-13.93039	11.27051
10.85153	-13.90841	11.27051
10.85559	-13.93039	11.27051
10.85964	-13.90841	11.27051
10.86369	-13.90841	11.27051
10.86775	-13.90841	11.27051
10.87180	-13.90841	11.27051
10.87586	-13.90841	11.27051
10.88010	-13.90841	11.27051
10.88415	-13.90841	11.27051
10.88821	-13.90841	11.27051
10.89226	-13.90841	11.27051
10.89632	-13.90841	11.27051
10.90037	-13.88644	11.27051
10.90443	-13.90841	11.27051
10.90849	-13.90841	11.27051
10.91254	-13.90841	11.27051
10.91660	-13.88644	11.27051
10.92065	-13.90841	11.27051
10.92471	-13.88644	11.27051
10.92876	-13.88644	11.27051
10.93282	-13.88644	11.27051
10.93688	-13.88644	11.27051
10.94093	-13.88644	11.27051
10.94499	-13.88644	11.27051
10.94904	-13.88644	11.27051
10.95310	-13.88644	11.27051
10.95714	-13.86447	11.27051
10.96119	-13.88644	11.27051
10.96525	-13.88644	11.27051
10.96930	-13.86447	11.27051
10.97335	-13.86447	11.27051
10.97741	-13.86447	11.27051
10.98164	-13.86447	11.27051
10.98570	-13.86447	11.27051
10.98975	-13.86447	11.27051
10.99381	-13.86447	11.27051
10.99786	-13.86447	11.27051
11.00192	-13.86447	11.27051
11.00597	-13.86447	11.27051
11.01003	-13.84250	11.27051
11.01409	-13.86447	11.27051
11.01814	-13.86447	11.27051
11.02220	-13.84250	11.27051
11.02625	-13.84250	11.27051
11.03030	-13.84250	11.27051
11.03436	-13.84250	11.27051
11.03842	-13.82052	11.27051
11.04247	-13.84250	11.27051
11.04653	-13.82052	11.27051
11.05058	-13.82052	11.27051
11.05464	-13.82052	11.27051
11.05869	-13.82052	11.27051
11.06275	-13.82052	11.27051
11.06680	-13.82052	11.27051
11.07086	-13.79855	11.27051
11.07491	-13.79855	11.27051
11.07897	-13.79855	11.27051
11.08320	-13.79855	11.27051
11.08726	-13.79855	11.27051
11.09131	-13.79855	11.27051
11.09537	-13.79855	11.27051
11.09942	-13.79855	11.27051
11.10348	-13.79855	11.27051
11.10753	-13.77658	11.27051
11.11159	-13.77658	11.27051
11.11565	-13.77658	11.27051
11.11970	-13.75461	11.27051
11.12376	-13.77658	11.27051
11.12781	-13.77658	11.27051
11.13189	-13.77658	11.27051
11.13595	-13.77658	11.27051
11.14001	-13.75461	11.27051
11.14406	-13.75461	11.27051
11.14812	-13.75461	11.27051
11.15217	-13.75461	11.27051
11.15623	-13.73263	11.27051
11.16028	-13.73263	11.27051
11.16434	-13.73263	11.27051
11.16839	-13.73263	11.27051
11.17245	-13.71066	11.27051
11.17651	-13.73263	11.27051
11.18056	-13.73263	11.27051
11.18479	-13.73263	11.27051
11.18885	-13.73263	11.27051
11.19290	-13.71066	11.27051
11.19696	-13.71066	11.27051
11.20101	-13.71066	11.27051
11.20507	-13.71066	11.27051
11.20912	-13.68869	11.27051
11.21315	-13.71066	11.27051
11.21720	-13.68869	11.27051
11.22126	-13.68869	11.27051
11.22531	-13.66672	11.27051
11.22937	-13.66672	11.27051
11.23342	-13.66672	11.27051
11.23748	-13.66672	11.27051
11.24153	-13.66672	11.27051
11.24559	-13.66672	11.27051
11.24964	-13.66672	11.27051
11.25370	-13.66672	11.27051
11.25775	-13.64474	11.27051
11.26181	-13.66672	11.27051
11.26586	-13.64474	11.27051
11.26992	-13.64474	11.27051
11.27397	-13.64474	11.27051
11.27803	-13.64474	11.27051
11.28208	-13.62277	11.27051
11.28632	-13.64474	11.27051
11.29038	-13.64474	11.27051
11.29443	-13.62277	11.27051
11.29848	-13.62277	11.27051
11.30254	-13.62277	11.27051
11.30659	-13.60080	11.27051
11.31065	-13.60080	11.27051
11.31471	-13.60080	11.27051
11.31876	-13.60080	11.27051
11.32282	-13.57882	11.27051
11.32687	-13.57882	11.27051
11.33093	-13.57882	11.27051
11.33498	-13.57882	11.27051
11.33904	-13.57882	11.27051
11.34309	-13.55685	11.27051
11.34715	-13.57882	11.27051
11.35120	-13.55685	11.27051
11.35526	-13.55685	11.27051
11.35931	-13.55685	11.27051
11.36337	-13.53488	11.27051
11.36742	-13.53488	11.27051
11.37148	-13.53488	11.27051
11.37553	-13.51291	11.27051
11.37959	-13.51291	11.27051
11.38364	-13.53488	11.27051
11.38788	-13.53488	11.27051
11.39194	-13.51291	11.27051
11.39599	-13.51291	11.27051
11.40005	-13.51291	11.27051
11.40410	-13.51291	11.27051
11.40816	-13.51291	11.27051
11.41221	-13.49093	11.27051
11.41628	-13.49093	11.27051
11.42034	-13.49093	11.27051
11.42440	-13.49093	11.27051
11.42845	-13.46896	11.27051
11.43251	-13.46896	11.27051
11.43657	-13.46896	11.27051
11.44062	-13.46896	11.27051
11.44468	-13.46896	11.27051
11.44873	-13.46896	11.27051
11.45279	-13.46896	11.27051
11.45684	-13.46896	11.27051
11.46090	-13.46896	11.27051
11.46495	-13.44699	11.27051
11.46901	-13.44699	11.27051
11.47306	-13.44699	11.27051
11.47711	-13.42502	11.27051
11.48114	-13.42502	11.27051
11.48520	-13.42502	11.27051
11.48943	-13.42502	11.27051
11.49349	-13.42502	11.27051
11.49754	-13.42502	11.27051
11.50160	-13.40304	11.27051
11.50565	-13.42502	11.27051
11.50971	-13.42502	11.27051
11.51376	-13.40304	11.27051
11.51784	-13.40304	11.27051
11.52189	-13.40304	11.27051
11.52595	-13.40304	11.27051
11.53000	-13.40304	11.27051
11.53406	-13.40304	11.27051
11.53812	-13.38107	11.27051
11.54217	-13.40304	11.27051
11.54623	-13.40304	11.27051
11.55028	-13.38107	11.27051
11.55434	-13.38107	11.27051
11.55839	-13.38107	11.27051
11.56244	-13.35910	11.27051
11.56650	-13.35910	11.27051
11.57055	-13.35910	11.27051
11.57461	-13.35910	11.27051
11.57877	-13.38107	11.27051
11.58287	-13.35910	11.27051
11.58693	-13.35910	11.27051
11.59135	-13.35910	11.27051
11.59540	-13.35910	11.27051
11.59954	-13.35910	11.27051
11.60363	-13.35910	11.27051
11.60769	-13.35910	11.27051
11.61175	-13.35910	11.27051
11.61581	-13.35910	11.27051
11.61987	-13.35910	11.27051
11.62393	-13.33713	11.27051
11.62798	-13.35910	11.27051
11.63204	-13.33713	11.27051
11.63609	-13.33713	11.27051
11.64015	-13.33713	11.27051
11.64420	-13.35910	11.27051
11.64826	-13.33713	11.27051
11.65231	-13.33713	11.27051
11.65636	-13.33713	11.27051
11.66042	-13.33713	11.27051
11.66447	-13.33713	11.27051
11.66853	-13.33713	11.27051
11.67258	-13.33713	11.27051
11.67664	-13.33713	11.27051
11.68069	-13.33713	11.27051
11.68475	-13.33713	11.27051
11.68880	-13.33713	11.27051
11.69304	-13.33713	11.27051
11.69709	-13.33713	11.27051
11.70113	-13.33713	11.27051
11.70519	-13.33713	11.27051
11.70924	-13.33713	11.27051
11.71330	-13.33713	11.27051
11.71735	-13.33713	11.27051
11.72142	-13.33713	11.27051
11.72548	-13.33713	11.27051
11.72953	-13.35910	11.27051
11.73359	-13.33713	11.27051
11.73764	-13.35910	11.27051
11.74170	-13.35910	11.27051
11.74575	-13.35910	11.27051
11.74981	-13.33713	11.27051
11.75386	-13.35910	11.27051
11.75791	-13.35910	11.27051
11.76197	-13.35910	11.27051
11.76602	-13.35910	11.27051
11.77008	-13.35910	11.27051
11.77413	-13.35910	11.27051
11.77819	-13.38107	11.27051
11.78224	-13.35910	11.27051
11.78630	-13.35910	11.27051
11.79035	-13.35910	11.27051
11.79459	-13.38107	11.27051
11.79864	-13.35910	11.27051
11.80270	-13.38107	11.27051
11.80675	-13.38107	11.27051
11.81081	-13.38107	11.27051
11.81486	-13.38107	11.27051
11.81892	-13.38107	11.27051
11.82298	-13.38107	11.27051
11.82703	-13.38107	11.27051
11.83109	-13.38107	11.27051
11.83514	-13.40304	11.27051
11.83920	-13.38107	11.27051
11.84325	-13.40304	11.27051
11.84731	-13.40304	11.27051
11.85136	-13.40304	11.27051
11.85542	-13.40304	11.27051
11.85947	-13.40304	11.27051
11.86352	-13.42502	11.27051
11.86758	-13.40304	11.27051
11.87163	-13.40304	11.27051
11.87569	-13.42502	11.27051
11.87974	-13.42502	11.27051
11.88380	-13.42502	11.27051
11.88785	-13.42502	11.27051
11.89191	-13.42502	11.27051
11.89614	-13.42502	11.27051
11.90019	-13.44699	11.27051
11.90425	-13.44699	11.27051
11.90830	-13.44699	11.27051
11.91236	-13.46896	11.27051
11.91641	-13.46896	11.27051
11.92047	-13.44699	11.27051
11.92453	-13.46896	11.27051
11.92858	-13.46896	11.27051
11.93264	-13.46896	11.27051
11.93669	-13.46896	11.27051
11.94075	-13.46896	11.27051
11.94480	-13.49093	11.27051
11.94886	-13.49093	11.27051
11.95292	-13.49093	11.27051
11.95697	-13.49093	11.27051
11.96103	-13.51291	11.27051
11.96508	-13.51291	11.27051
11.96913	-13.51291	11.27051
11.97319	-13.51291	11.27051
11.97725	-13.51291	11.27051
11.98134	-13.51291	11.27051
11.98540	-13.53488	11.27051
11.98945	-13.53488	11.27051
11.99354	-13.53488	11.27051
11.99818	-13.55685	11.27051
12.00224	-13.55685	11.27051
12.00630	-13.53488	11.27051
12.01036	-13.55685	11.27051
12.01442	-13.55685	11.27051
12.01853	-13.55685	11.27051
12.02259	-13.55685	11.27051
12.02666	-13.57882	11.27051
12.03072	-13.55685	11.27051
12.03478	-13.57882	11.27051
12.03884	-13.57882	11.27051
12.04296	-13.60080	11.27051
12.04703	-13.60080	11.27051
12.05110	-13.60080	11.27051
12.05516	-13.60080	11.27051
12.05922	-13.60080	11.27051
12.06327	-13.62277	11.27051
12.06733	-13.62277	11.27051
12.07138	-13.62277	11.27051
12.07545	-13.62277	11.27051
12.07952	-13.64474	11.27051
12.08358	-13.64474	11.27051
12.08765	-13.64474	11.27051
12.09170	-13.64474	11.27051
12.09576	-13.66672	11.27051
12.09999	-13.66672	11.27051
12.10405	-13.66672	11.27051
12.10816	-13.66672	11.27051
12.11222	-13.66672	11.27051
12.11628	-13.68869	11.27051
12.12035	-13.68869	11.27051
12.12440	-13.68869	11.27051
12.12847	-13.71066	11.27051
12.13252	-13.71066	11.27051
12.13658	-13.71066	11.27051
12.14063	-13.71066	11.27051
12.14469	-13.73263	11.27051
12.14874	-13.71066	11.27051
12.15282	-13.73263	11.27051
12.15687	-13.73263	11.27051
12.16093	-13.73263	11.27051
12.16499	-13.75461	11.27051
12.16905	-13.75461	11.27051
12.17311	-13.75461	11.27051
12.17713	-13.75461	11.27051
12.18119	-13.75461	11.27051
12.18525	-13.77658	11.27051
12.18931	-13.77658	11.27051
12.19337	-13.77658	11.27051
12.19742	-13.77658	11.27051
12.20171	-13.79855	11.27051
12.20576	-13.79855	11.27051
12.20982	-13.79855	11.27051
12.21388	-13.79855	11.27051
12.21794	-13.82052	11.27051
12.22200	-13.82052	11.27051
12.22606	-13.82052	11.27051
12.23012	-13.84250	11.27051
12.23418	-13.84250	11.27051
12.23824	-13.84250	11.27051
12.24229	-13.84250	11.27051
12.24635	-13.86447	11.27051
12.25041	-13.84250	11.27051
12.25446	-13.86447	11.27051
12.25852	-13.86447	11.27051
12.26258	-13.86447	11.27051
12.26663	-13.88644	11.27051
12.27069	-13.88644	11.27051
12.27475	-13.88644	11.27051
12.27881	-13.88644	11.27051
12.28286	-13.88644	11.27051
12.28692	-13.90841	11.27051
12.29098	-13.90841	11.27051
12.29503	-13.90841	11.27051
12.29909	-13.90841	11.27051
12.30339	-13.90841	11.27051
12.30745	-13.93039	11.27051
12.31150	-13.93039	11.27051
12.31556	-13.93039	11.27051
12.31962	-13.95236	11.27051
12.32367	-13.95236	11.27051
12.32773	-13.95236	11.27051
12.33180	-13.95236	11.27051
12.33585	-13.95236	11.27051
12.33991	-13.97433	11.27051
12.34397	-13.97433	11.27051
12.34803	-13.97433	11.27051
12.35208	-13.97433	11.27051
12.35614	-13.99631	11.27051
12.36020	-13.99631	11.27051
12.36425	-13.99631	11.27051
12.36831	-13.99631	11.27051
12.37237	-13.99631	11.27051
12.37643	-14.01828	11.27051
12.38048	-14.01828	11.27051
12.38454	-14.01828	11.27051
12.38860	-14.01828	11.27051
12.39265	-14.04025	11.27051
12.39671	-14.01828	11.27051
12.40077	-14.04025	11.27051
12.40505	-14.04025	11.27051
12.40911	-14.04025	11.27051
12.41314	-14.04025	11.27051
12.41719	-14.04025	11.27051
12.42125	-14.06222	11.27051
12.42531	-14.06222	11.27051
12.42936	-14.06222	11.27051
12.43343	-14.06222	11.27051
12.43749	-14.08420	11.27051
12.44154	-14.08420	11.27051
12.44560	-14.08420	11.27051
12.44966	-14.08420	11.27051
12.45372	-14.08420	11.27051
12.45777	-14.10617	11.27051
12.46183	-14.10617	11.27051
12.46589	-14.10617	11.27051
12.46994	-14.10617	11.27051
12.47400	-14.12814	11.27051
12.47806	-14.12814	11.27051
12.48212	-14.10617	11.27051
12.48618	-14.12814	11.27051
12.49024	-14.12814	11.27051
12.49430	-14.12814	11.27051
12.49835	-14.12814	11.27051
12.50241	-14.15011	11.27051
12.50670	-14.12814	11.27051
12.51075	-14.15011	11.27051
12.51481	-14.15011	11.27051
12.51887	-14.15011	11.27051
12.52293	-14.15011	11.27051
12.52698	-14.17209	11.27051
12.53104	-14.15011	11.27051
12.53510	-14.17209	11.27051
12.53916	-14.17209	11.27051
12.54322	-14.17209	11.27051
12.54728	-14.17209	11.27051
12.55133	-14.17209	11.27051
12.55539	-14.17209	11.27051
12.55945	-14.17209	11.27051
12.56351	-14.19406	11.27051
12.56756	-14.19406	11.27051
12.57162	-14.19406	11.27051
12.57568	-14.19406	11.27051
12.57973	-14.19406	11.27051
12.58379	-14.19406	11.27051
12.58785	-14.19406	11.27051
12.59191	-14.19406	11.27051
12.59596	-14.21603	11.27051
12.60002	-14.21603	11.27051
12.60408	-14.21603	11.27051
12.60837	-14.21603	11.27051
12.61243	-14.23800	11.27051
12.61649	-14.21603	11.27051
12.62054	-14.21603	11.27051
12.62460	-14.21603	11.27051
12.62866	-14.21603	11.27051
12.63272	-14.21603	11.27051
12.63678	-14.23800	11.27051
12.64084	-14.21603	11.27051
12.64489	-14.21603	11.27051
12.64895	-14.23800	11.27051
12.65301	-14.21603	11.27051
12.65707	-14.23800	11.27051
12.66114	-14.23800	11.27051
12.66520	-14.23800	11.27051
12.66926	-14.23800	11.27051
12.67332	-14.23800	11.27051
12.67737	-14.23800	11.27051
12.68143	-14.23800	11.27051
12.68549	-14.23800	11.27051
12.68955	-14.23800	11.27051
12.69361	-14.23800	11.27051
12.69766	-14.23800	11.27051
12.70172	-14.23800	11.27051
12.70578	-14.23800	11.27051
12.71006	-14.23800	11.27051
12.71412	-14.23800	11.27051
12.71817	-14.23800	11.27051
12.72224	-14.23800	11.27051
12.72629	-14.23800	11.27051
12.73035	-14.23800	11.27051
12.73441	-14.23800	11.27051
12.73847	-14.21603	11.27051
12.74253	-14.23800	11.27051
12.74659	-14.23800	11.27051
12.75065	-14.23800	11.27051
12.75470	-14.21603	11.27051
12.75876	-14.23800	11.27051
12.76282	-14.23800	11.27051
12.76688	-14.23800	11.27051
12.77094	-14.23800	11.27051
12.77500	-14.23800	11.27051
12.77905	-14.21603	11.27051
12.78311	-14.21603	11.27051
12.78717	-14.21603	11.27051
12.79122	-14.21603	11.27051
12.79528	-14.21603	11.27051
12.79934	-14.21603	11.27051
12.80339	-14.21603	11.27051
12.80745	-14.19406	11.27051
12.81174	-14.19406	11.27051
12.81580	-14.19406	11.27051
12.81986	-14.21603	11.27051
12.82391	-14.19406	11.27051
12.82797	-14.19406	11.27051
12.83203	-14.19406	11.27051
12.83609	-14.19406	11.27051
12.84015	-14.19406	11.27051
12.84421	-14.19406	11.27051
12.84827	-14.17209	11.27051
12.85232	-14.17209	11.27051
12.85638	-14.17209	11.27051
12.86044	-14.17209	11.27051
12.86450	-14.17209	11.27051
12.86856	-14.17209	11.27051
12.87262	-14.17209	11.27051
12.87667	-14.15011	11.27051
12.88073	-14.15011	11.27051
12.88479	-14.15011	11.27051
12.88884	-14.15011	11.27051
12.89290	-14.12814	11.27051
12.89696	-14.12814	11.27051
12.90102	-14.12814	11.27051
12.90507	-14.12814	11.27051
12.90913	-14.12814	11.27051
12.91342	-14.10617	11.27051
12.91748	-14.10617	11.27051
12.92153	-14.10617	11.27051
12.92559	-14.10617	11.27051
12.92965	-14.08420	11.27051
12.93371	-14.08420	11.27051
12.93776	-14.08420	11.27051
12.94183	-14.08420	11.27051
12.94589	-14.08420	11.27051
12.94994	-14.06222	11.27051
12.95400	-14.06222	11.27051
12.95806	-14.06222	11.27051
12.96212	-14.06222	11.27051
12.96618	-14.06222	11.27051
12.97024	-14.04025	11.27051
12.97429	-14.04025	11.27051
12.97835	-14.04025	11.27051
12.98241	-14.01828	11.27051
12.98646	-14.01828	11.27051
12.99052	-14.01828	11.27051
12.99458	-14.01828	11.27051
12.99864	-13.99631	11.27051
13.00269	-13.99631	11.27051
13.00675	-13.99631	11.27051
13.01081	-13.97433	11.27051
13.01509	-13.97433	11.27051
13.01915	-13.97433	11.27051
13.02321	-13.97433	11.27051
13.02726	-13.97433	11.27051
13.03132	-13.95236	11.27051
13.03538	-13.95236	11.27051
13.03944	-13.95236	11.27051
13.04350	-13.93039	11.27051
13.04756	-13.93039	11.27051
13.05162	-13.93039	11.27051
13.05569	-13.93039	11.27051
13.05974	-13.93039	11.27051
13.06380	-13.90841	11.27051
13.06786	-13.90841	11.27051
13.07191	-13.90841	11.27051
13.07597	-13.90841	11.27051
13.08003	-13.88644	11.27051
13.08408	-13.88644	11.27051
13.08814	-13.88644	11.27051
13.09220	-13.86447	11.27051
13.09626	-13.86447	11.27051
13.10031	-13.86447	11.27051
13.10437	-13.86447	11.27051
13.10843	-13.84250	11.27051
13.11248	-13.84250	11.27051
13.11677	-13.84250	11.27051
13.12083	-13.82052	11.27051
13.12489	-13.82052	11.27051
13.12894	-13.82052	11.27051
13.13300	-13.79855	11.27051
13.13706	-13.79855	11.27051
13.14111	-13.79855	11.27051
13.14515	-13.79855	11.27051
13.14921	-13.77658	11.27051
13.15326	-13.79855	11.27051
13.15732	-13.79855	11.27051
13.16138	-13.77658	11.27051
13.16543	-13.77658	11.27051
13.16949	-13.77658	11.27051
13.17355	-13.75461	11.27051
13.17761	-13.75461	11.27051
13.18166	-13.75461	11.27051
13.18572	-13.75461	11.27051
13.18978	-13.73263	11.27051
13.19384	-13.73263	11.27051
13.19789	-13.73263	11.27051
13.20195	-13.73263	11.27051
13.20601	-13.73263	11.27051
13.21006	-13.71066	11.27051
13.21412	-13.71066	11.27051
13.21841	-13.71066	11.27051
13.22247	-13.71066	11.27051
13.22653	-13.71066	11.27051
13.23059	-13.68869	11.27051
13.23465	-13.71066	11.27051
13.23871	-13.68869	11.27051
13.24277	-13.68869	11.27051
13.24683	-13.68869	11.27051
13.25089	-13.66672	11.27051
13.25495	-13.66672	11.27051
13.25901	-13.68869	11.27051
13.26307	-13.66672	11.27051
13.26713	-13.66672	11.27051
13.27118	-13.66672	11.27051
13.27524	-13.66672	11.27051
13.27930	-13.64474	11.27051
13.28336	-13.64474	11.27051
13.28742	-13.64474	11.27051
13.29147	-13.64474	11.27051
13.29553	-13.64474	11.27051
13.29959	-13.64474	11.27051
13.30365	-13.64474	11.27051
13.30771	-13.64474	11.27051
13.31176	-13.64474	11.27051
13.31582	-13.64474	11.27051
13.32011	-13.62277	11.27051
13.32417	-13.62277	11.27051
13.32823	-13.62277	11.27051
13.33229	-13.62277	11.27051
13.33634	-13.62277	11.27051
13.34040	-13.62277	11.27051
13.34446	-13.62277	11.27051
13.34853	-13.60080	11.27051
13.35258	-13.60080	11.27051
13.35664	-13.60080	11.27051
13.36070	-13.62277	11.27051
13.36476	-13.60080	11.27051
13.36882	-13.60080	11.27051
13.37287	-13.60080	11.27051
13.37693	-13.60080	11.27051
13.38099	-13.60080	11.27051
13.38505	-13.60080	11.27051
13.38910	-13.60080	11.27051
13.39314	-13.60080	11.27051
13.39719	-13.60080	11.27051
13.40125	-13.60080	11.27051
13.40531	-13.60080	11.27051
13.40936	-13.60080	11.27051
13.41342	-13.60080	11.27051
13.41748	-13.60080	11.27051
13.42176	-13.60080	11.27051
13.42582	-13.60080	11.27051
13.42988	-13.60080	11.27051
13.43394	-13.60080	11.27051
13.43800	-13.60080	11.27051
13.44205	-13.60080	11.27051
13.44611	-13.60080	11.27051
13.45017	-13.60080	11.27051
13.45423	-13.60080	11.27051
13.45830	-13.60080	11.27051
13.46236	-13.60080	11.27051
13.46641	-13.62277	11.27051
13.47047	-13.60080	11.27051
13.47453	-13.60080	11.27051
13.47859	-13.60080	11.27051
13.48265	-13.62277	11.27051
13.48670	-13.62277	11.27051
13.49076	-13.62277	11.27051
13.49482	-13.62277	11.27051
13.49888	-13.62277	11.27051
13.50293	-13.62277	11.27051
13.50699	-13.62277	11.27051
13.51105	-13.62277	11.27051
13.51511	-13.62277	11.27051
13.51917	-13.64474	11.27051
13.52345	-13.64474	11.27051
13.52751	-13.64474	11.27051
13.53157	-13.64474	11.27051
13.53562	-13.64474	11.27051
13.53968	-13.64474	11.27051
13.54374	-13.64474	11.27051
13.54780	-13.64474	11.27051
13.55187	-13.66672	11.27051
13.55593	-13.64474	11.27051
13.55999	-13.66672	11.27051
13.56405	-13.66672	11.27051
13.56811	-13.66672	11.27051
13.57217	-13.66672	11.27051
13.57623	-13.68869	11.27051
13.58029	-13.68869	11.27051
13.58435	-13.68869	11.27051
13.58840	-13.68869	11.27051
13.59246	-13.68869	11.27051
13.59652	-13.71066	11.27051
13.60058	-13.71066	11.27051
13.60463	-13.71066	11.27051
13.60869	-13.71066	11.27051
13.61275	-13.71066	11.27051
13.61681	-13.73263	11.27051
13.62087	-13.73263	11.27051
13.62516	-13.73263	11.27051
13.62921	-13.73263	11.27051
13.63327	-13.75461	11.27051
13.63733	-13.75461	11.27051
13.64139	-13.75461	11.27051
13.64545	-13.75461	11.27051
13.64951	-13.77658	11.27051
13.65357	-13.77658	11.27051
13.65763	-13.77658	11.27051
13.66169	-13.77658	11.27051
13.66575	-13.79855	11.27051
13.66981	-13.79855	11.27051
13.67387	-13.79855	11.27051
13.67792	-13.79855	11.27051
13.68198	-13.82052	11.27051
13.68604	-13.82052	11.27051
13.69010	-13.82052	11.27051
13.69416	-13.84250	11.27051
13.69822	-13.84250	11.27051
13.70227	-13.86447	11.27051
13.70633	-13.84250	11.27051
13.71039	-13.86447	11.27051
13.71444	-13.86447	11.27051
13.71850	-13.86447	11.27051
13.72256	-13.86447	11.27051
13.72685	-13.88644	11.27051
13.73091	-13.88644	11.27051
13.73496	-13.90841	11.27051
13.73902	-13.90841	11.27051
13.74308	-13.90841	11.27051
13.74714	-13.90841	11.27051
13.75119	-13.93039	11.27051
13.75526	-13.93039	11.27051
13.75932	-13.93039	11.27051
13.76338	-13.95236	11.27051
13.76743	-13.95236	11.27051
13.77149	-13.95236	11.27051
13.77555	-13.97433	11.27051
13.77960	-13.97433	11.27051
13.78366	-13.97433	11.27051
13.78772	-13.99631	11.27051
13.79178	-13.99631	11.27051
13.79584	-13.99631	11.27051
13.79989	-13.99631	11.27051
13.80395	-14.01828	11.27051
13.80801	-14.01828	11.27051
13.81207	-14.01828	11.27051
13.81613	-14.04025	11.27051
13.82018	-14.06222	11.27051
13.82424	-14.06222	11.27051
13.82853	-14.04025	11.27051
13.83259	-14.06222	11.27051
13.83664	-14.08420	11.27051
13.84070	-14.08420	11.27051
13.84476	-14.08420	11.27051
13.84882	-14.10617	11.27051
13.85288	-14.10617	11.27051
13.85694	-14.10617	11.27051
13.86100	-14.12814	11.27051
13.86506	-14.12814	11.27051
13.86912	-14.12814	11.27051
13.87314	-14.15011	11.27051
13.87719	-14.15011	11.27051
13.88125	-14.15011	11.27051
13.88531	-14.15011	11.27051
13.88937	-14.17209	11.27051
13.89342	-14.17209	11.27051
13.89748	-14.17209	11.27051
13.90154	-14.19406	11.27051
13.90560	-14.19406	11.27051
13.90965	-14.19406	11.27051
13.91371	-14.21603	11.27051
13.91777	-14.21603	11.27051
13.92182	-14.23800	11.27051
13.92588	-14.23800	11.27051
13.93016	-14.23800	11.27051
13.93422	-14.23800	11.27051
13.93828	-14.25998	11.27051
13.94233	-14.28195	11.27051
13.94639	-14.28195	11.27051
13.95045	-14.28195	11.27051
13.95451	-14.28195	11.27051
13.95857	-14.30392	11.27051
13.96263	-14.30392	11.27051
13.96670	-14.30392	11.27051
13.97076	-14.32589	11.27051
13.97482	-14.32589	11.27051
13.97888	-14.32589	11.27051
13.98294	-14.32589	11.27051
13.98700	-14.34787	11.27051
13.99106	-14.34787	11.27051
13.99512	-14.34787	11.27051
13.99919	-14.36984	11.27051
14.00324	-14.36984	11.27051
14.00730	-14.39181	11.27051
14.01136	-14.39181	11.27051
14.01541	-14.39181	11.27051
14.01947	-14.39181	11.27051
14.02353	-14.41379	11.27051
14.02759	-14.41379	11.27051
14.03189	-14.41379	11.27051
14.03595	-14.41379	11.27051
14.04000	-14.43576	11.27051
14.04407	-14.43576	11.27051
14.04813	-14.43576	11.27051
14.05219	-14.45773	11.27051
14.05624	-14.45773	11.27051
14.06034	-14.45773	11.27051
14.06441	-14.45773	11.27051
14.06846	-14.47970	11.27051
14.07252	-14.47970	11.27051
14.07658	-14.50168	11.27051
14.08064	-14.50168	11.27051
14.08469	-14.50168	11.27051
14.08876	-14.50168	11.27051
14.09281	-14.52365	11.27051
14.09687	-14.52365	11.27051
14.10093	-14.52365	11.27051
14.10499	-14.52365	11.27051
14.10904	-14.54562	11.27051
14.11310	-14.54562	11.27051
14.11714	-14.56759	11.27051
14.12120	-14.56759	11.27051
14.12526	-14.56759	11.27051
14.12936	-14.56759	11.27051
14.13370	-14.56759	11.27051
14.13776	-14.58957	11.27051
14.14182	-14.61154	11.27051
14.14589	-14.61154	11.27051
14.14996	-14.61154	11.27051
14.15401	-14.61154	11.27051
14.15807	-14.63351	11.27051
14.16215	-14.63351	11.27051
14.16621	-14.63351	11.27051
14.17027	-14.63351	11.27051
14.17433	-14.65548	11.27051
14.17838	-14.65548	11.27051
14.18244	-14.65548	11.27051
14.18650	-14.65548	11.27051
14.19056	-14.67746	11.27051
14.19461	-14.67746	11.27051
14.19867	-14.67746	11.27051
14.20273	-14.69943	11.27051
14.20678	-14.69943	11.27051
14.21084	-14.69943	11.27051
14.21490	-14.69943	11.27051
14.21895	-14.72140	11.27051
14.22301	-14.72140	11.27051
14.22710	-14.74338	11.27051
14.23117	-14.74338	11.27051
14.23549	-14.74338	11.27051
14.23955	-14.74338	11.27051
14.24362	-14.76535	11.27051
14.24769	-14.76535	11.27051
14.25175	-14.76535	11.27051
14.25581	-14.76535	11.27051
14.25987	-14.76535	11.27051
14.26396	-14.78732	11.27051
14.26802	-14.78732	11.27051
14.27208	-14.78732	11.27051
14.27614	-14.78732	11.27051
14.28019	-14.78732	11.27051
14.28425	-14.80929	11.27051
14.28831	-14.80929	11.27051
14.29237	-14.80929	11.27051
14.29643	-14.80929	11.27051
14.30049	-14.83127	11.27051
14.30454	-14.80929	11.27051
14.30860	-14.83127	11.27051
14.31267	-14.85324	11.27051
14.31673	-14.85324	11.27051
14.32079	-14.83127	11.27051
14.32484	-14.85324	11.27051
14.32891	-14.85324	11.27051
14.33297	-14.85324	11.27051
14.33725	-14.87521	11.27051
14.34130	-14.87521	11.27051
14.34536	-14.87521	11.27051
14.34943	-14.87521	11.27051
14.35348	-14.87521	11.27051
14.35754	-14.87521	11.27051
14.36160	-14.89718	11.27051
14.36567	-14.89718	11.27051
14.36974	-14.89718	11.27051
14.37379	-14.89718	11.27051
14.37785	-14.91916	11.27051
14.38200	-14.91916	11.27051
14.38607	-14.91916	11.27051
14.39013	-14.91916	11.27051
14.39420	-14.91916	11.27051
14.39827	-14.91916	11.27051
14.40233	-14.91916	11.27051
14.40638	-14.91916	11.27051
14.41044	-14.94113	11.27051
14.41450	-14.91916	11.27051
14.41856	-14.94113	11.27051
14.42262	-14.94113	11.27051
14.42668	-14.94113	11.27051
14.43074	-14.94113	11.27051
14.43480	-14.96310	11.27051
14.43908	-14.94113	11.27051
14.44314	-14.96310	11.27051
14.44720	-14.96310	11.27051
14.45126	-14.96310	11.27051
14.45532	-14.94113	11.27051
14.45938	-14.96310	11.27051
14.46346	-14.96310	11.27051
14.46753	-14.96310	11.27051
14.47158	-14.96310	11.27051
14.47565	-14.96310	11.27051
14.47970	-14.96310	11.27051
14.48376	-14.96310	11.27051
14.48782	-14.96310	11.27051
14.49188	-14.96310	11.27051
14.49594	-14.96310	11.27051
14.49999	-14.96310	11.27051
14.50405	-14.98507	11.27051
14.50811	-14.96310	11.27051
14.51217	-14.96310	11.27051
14.51623	-14.96310	11.27051
14.52029	-14.96310	11.27051
14.52434	-14.96310	11.27051
14.52840	-14.96310	11.27051
14.53247	-14.96310	11.27051
14.53652	-14.96310	11.27051
14.54079	-14.96310	11.27051
14.54485	-14.96310	11.27051
14.54891	-14.96310	11.27051
14.55297	-14.96310	11.27051
14.55703	-14.96310	11.27051
14.56109	-14.96310	11.27051
14.56514	-14.96310	11.27051
14.56921	-14.96310	11.27051
14.57326	-14.96310	11.27051
14.57732	-14.94113	11.27051
14.58138	-14.94113	11.27051
14.58544	-14.96310	11.27051
14.58950	-14.94113	11.27051
14.59356	-14.94113	11.27051
14.59762	-14.94113	11.27051
14.60168	-14.94113	11.27051
14.60573	-14.94113	11.27051
14.60979	-14.94113	11.27051
14.61385	-14.94113	11.27051
14.61791	-14.94113	11.27051
14.62197	-14.94113	11.27051
14.62603	-14.91916	11.27051
14.63009	-14.91916	11.27051
14.63415	-14.91916	11.27051
14.63821	-14.91916	11.27051
14.64249	-14.91916	11.27051
14.64655	-14.89718	11.27051
14.65061	-14.89718	11.27051
14.65466	-14.89718	11.27051
14.65872	-14.87521	11.27051
14.66278	-14.89718	11.27051
14.66684	-14.89718	11.27051
14.67090	-14.87521	11.27051
14.67496	-14.87521	11.27051
14.67902	-14.87521	11.27051
14.68308	-14.87521	11.27051
14.68714	-14.85324	11.27051
14.69120	-14.85324	11.27051
14.69525	-14.85324	11.27051
14.69932	-14.85324	11.27051
14.70338	-14.85324	11.27051
14.70743	-14.83127	11.27051
14.71149	-14.83127	11.27051
14.71555	-14.80929	11.27051
14.71961	-14.80929	11.27051
14.72367	-14.80929	11.27051
14.72772	-14.80929	11.27051
14.73178	-14.78732	11.27051
14.73584	-14.78732	11.27051
14.73990	-14.78732	11.27051
14.74417	-14.76535	11.27051
14.74823	-14.76535	11.27051
14.75229	-14.76535	11.27051
14.75635	-14.74338	11.27051
14.76041	-14.74338	11.27051
14.76448	-14.74338	11.27051
14.76853	-14.74338	11.27051
14.77260	-14.72140	11.27051
14.77672	-14.72140	11.27051
14.78079	-14.69943	11.27051
14.78485	-14.69943	11.27051
14.78891	-14.69943	11.27051
14.79297	-14.69943	11.27051
14.79703	-14.67746	11.27051
14.80109	-14.67746	11.27051
14.80514	-14.67746	11.27051
14.80920	-14.65548	11.27051
14.81326	-14.65548	11.27051
14.81732	-14.65548	11.27051
14.82137	-14.63351	11.27051
14.82543	-14.63351	11.27051
14.82949	-14.63351	11.27051
14.83355	-14.63351	11.27051
14.83760	-14.61154	11.27051
14.84166	-14.61154	11.27051
14.84594	-14.58957	11.27051
14.85000	-14.58957	11.27051
14.85406	-14.58957	11.27051
14.85812	-14.56759	11.27051
14.86217	-14.56759	11.27051
14.86623	-14.56759	11.27051
14.87029	-14.54562	11.27051
14.87436	-14.54562	11.27051
14.87841	-14.54562	11.27051
14.88247	-14.54562	11.27051
14.88653	-14.52365	11.27051
14.89058	-14.52365	11.27051
14.89464	-14.50168	11.27051
14.89870	-14.50168	11.27051
14.90276	-14.50168	11.27051
14.90681	-14.47970	11.27051
14.91087	-14.47970	11.27051
14.91493	-14.45773	11.27051
14.91898	-14.45773	11.27051
14.92304	-14.45773	11.27051
14.92710	-14.45773	11.27051
14.93116	-14.43576	11.27051
14.93521	-14.43576	11.27051
14.93927	-14.43576	11.27051
14.94333	-14.43576	11.27051
14.94762	-14.41379	11.27051
14.95168	-14.41379	11.27051
14.95573	-14.39181	11.27051
14.95979	-14.39181	11.27051
14.96385	-14.39181	11.27051
14.96791	-14.39181	11.27051
14.97196	-14.36984	11.27051
14.97603	-14.36984	11.27051
14.98008	-14.36984	11.27051
14.98414	-14.36984	11.27051
14.98820	-14.34787	11.27051
14.99226	-14.34787	11.27051
14.99631	-14.34787	11.27051
15.00095	-14.32589	1.54348
15.00502	-14.32589	1.54348
15.00908	-14.32589	1.54348
15.01314	-14.32589	1.54348
15.01720	-14.30392	1.54348
15.02127	-14.30392	1.54348
15.02533	-14.28195	1.54348
15.02938	-14.28195	1.54348
15.03344	-14.28195	1.54348
15.03750	-14.25998	1.54348
15.04156	-14.25998	1.54348
15.04562	-14.25998	1.54348
15.04968	-14.25998	1.54348
15.05373	-14.23800	1.54348
15.05779	-14.23800	1.54348
15.06185	-14.23800	1.54348
15.06594	-14.21603	1.54348
15.07000	-14.21603	1.54348
15.07405	-14.21603	1.54348
15.07811	-14.19406	1.54348
15.08217	-14.19406	1.54348
15.08623	-14.17209	1.54348
15.09029	-14.17209	1.54348
15.09434	-14.17209	1.54348
15.09840	-14.15011	1.54348
15.10267	-14.15011	1.54348
15.10672	-14.12814	1.54348
15.11078	-14.10617	1.54348
15.11484	-14.10617	1.54348
15.11889	-14.08420	1.54348
15.12295	-14.06222	1.54348
15.12701	-14.06222	1.54348
15.13107	-14.04025	1.54348
15.13513	-14.01828	1.54348
15.13919	-14.01828	1.54348
15.14324	-13.99631	1.54348
15.14730	-13.99631	1.54348
15.15136	-13.95236	1.54348
15.15541	-13.95236	1.54348
15.15947	-13.95236	1.54348
15.16353	-13.93039	1.54348
15.16761	-13.88644	1.54348
15.17166	-13.86447	1.54348
15.17572	-13.84250	1.54348
15.17978	-13.84250	1.54348
15.18383	-13.82052	1.54348
15.18789	-13.79855	1.54348
15.19195	-13.75461	1.54348
15.19600	-13.73263	1.54348
15.20006	-13.73263	1.54348
15.20435	-13.68869	1.54348
15.20841	-13.66672	1.54348
15.21247	-13.64474	1.54348
15.21653	-13.60080	1.54348
15.22058	-13.57882	1.54348
15.22464	-13.57882	1.54348
15.22870	-13.53488	1.54348
15.23276	-13.49093	1.54348
15.23682	-13.44699	1.54348
15.24088	-13.42502	1.54348
15.24493	-13.42502	1.54348
15.24899	-13.38107	1.54348
15.25305	-13.31515	1.54348
15.25710	-13.27121	1.54348
15.26114	-13.22726	1.54348
15.26519	-13.22726	1.54348
15.26925	-13.18332	1.54348
15.27331	-13.13937	1.54348
15.27737	-13.09543	1.54348
15.28143	-13.05148	1.54348
15.28549	-13.05148	1.54348
15.28954	-12.98556	1.54348
15.29360	-12.91964	1.54348
15.29766	-12.87570	1.54348
15.30171	-12.87570	1.54348
15.30600	-12.78781	1.54348
15.31006	-12.78781	1.54348
15.31412	-12.72189	1.54348
15.31817	-12.65597	1.54348
15.32223	-12.61203	1.54348
15.32629	-12.61203	1.54348
15.33034	-12.54611	1.54348
15.33442	-12.48019	1.54348
15.33848	-12.41427	1.54348
15.34264	-12.34836	1.54348
15.34670	-12.30441	1.54348
15.35076	-12.30441	1.54348
15.35482	-12.23849	1.54348
15.35888	-12.17257	1.54348
15.36293	-12.10666	1.54348
15.36699	-12.04074	1.54348
15.37105	-12.04074	1.54348
15.37511	-11.97482	1.54348
15.37917	-11.88693	1.54348
15.38322	-11.82101	1.54348
15.38728	-11.73312	1.54348
15.39134	-11.68918	1.54348
15.39539	-11.68918	1.54348
15.39945	-11.60129	1.54348
15.40351	-11.53537	1.54348
15.40778	-11.44748	1.54348
15.41184	-11.38156	1.54348
15.41590	-11.38156	1.54348
15.41995	-11.29367	1.54348
15.42401	-11.22775	1.54348
15.42807	-11.11789	1.54348
15.43212	-11.05197	1.54348
15.43620	-10.96408	1.54348
15.44026	-10.96408	1.54348
15.44432	-10.89816	1.54348
15.44838	-10.81027	1.54348
15.45244	-10.72238	1.54348
15.45650	-10.63449	1.54348
15.46055	-10.63449	1.54348
15.46461	-10.54660	1.54348
15.46867	-10.43673	1.54348
15.47272	-10.34884	1.54348
15.47678	-10.28293	1.54348
15.48084	-10.28293	1.54348
15.48490	-10.19504	1.54348
15.48895	-10.10714	1.54348
15.49301	-9.99728	1.54348
15.49716	-9.90939	1.54348
15.50122	-9.90939	1.54348
15.50527	-9.79953	1.54348
15.50956	-9.71164	1.54348
15.51362	-9.60177	1.54348
15.51768	-9.51388	1.54348
15.52174	-9.51388	1.54348
15.52579	-9.40402	1.54348
15.52985	-9.31613	1.54348
15.53391	-9.20627	1.54348
15.53800	-9.09640	1.54348
15.54206	-9.09640	1.54348
15.54612	-9.00851	1.54348
15.55018	-8.89865	1.54348
15.55424	-8.78879	1.54348
15.55830	-8.67892	1.54348
15.56235	-8.59103	1.54348
15.56641	-8.59103	1.54348
15.57050	-8.50314	1.54348
15.57455	-8.37131	1.54348
15.57861	-8.28341	1.54348
15.58267	-8.15158	1.54348
15.58672	-8.15158	1.54348
15.59078	-8.06369	1.54348
15.59484	-7.95382	1.54348
15.59889	-7.84396	1.54348
15.60295	-7.73410	1.54348
15.60701	-7.64621	1.54348
15.61130	-7.64621	1.54348
15.61536	-7.53634	1.54348
15.61942	-7.42648	1.54348
15.62348	-7.29464	1.54348
15.62754	-7.18478	1.54348
15.63161	-7.18478	1.54348
15.63567	-7.07492	1.54348
15.63974	-6.96506	1.54348
15.64381	-6.83322	1.54348
15.64788	-6.74533	1.54348
15.65194	-6.74533	1.54348
15.65600	-6.63547	1.54348
15.66006	-6.50363	1.54348
15.66412	-6.39377	1.54348
15.66818	-6.28390	1.54348
15.67225	-6.28390	1.54348
15.67631	-6.17404	1.54348
15.68037	-6.04220	1.54348
15.68443	-5.93234	1.54348
15.68849	-5.84445	1.54348
15.69255	-5.71261	1.54348
15.69661	-5.71261	1.54348
15.70067	-5.60275	1.54348
15.70480	-5.49289	1.54348
15.70886	-5.36105	1.54348
15.71326	-5.25119	1.54348
15.71732	-5.25119	1.54348
15.72138	-5.14132	1.54348
15.72544	-5.00949	1.54348
15.72949	-4.87765	1.54348
15.73355	-4.78976	1.54348
15.73761	-4.67990	1.54348
15.74168	-4.67990	1.54348
15.74574	-4.54806	1.54348
15.74981	-4.43820	1.54348
15.75387	-4.30636	1.54348
15.75792	-4.19650	1.54348
15.76198	-4.19650	1.54348
15.76604	-4.08664	1.54348
15.77010	-3.95480	1.54348
15.77416	-3.82297	1.54348
15.77821	-3.71310	1.54348
15.78227	-3.71310	1.54348
15.78633	-3.60324	1.54348
15.79039	-3.47140	1.54348
15.79444	-3.33957	1.54348
15.79850	-3.22970	1.54348
15.80256	-3.22970	1.54348
15.80661	-3.09787	1.54348
15.81067	-2.98800	1.54348
15.81495	-2.87814	1.54348
15.81902	-2.76828	1.54348
15.82307	-2.65841	1.54348
15.82714	-2.65841	1.54348
15.83120	-2.54855	1.54348
15.83526	-2.41672	1.54348
15.83932	-2.28488	1.54348
15.84339	-2.17502	1.54348
15.84746	-2.17502	1.54348
15.85152	-2.06515	1.54348
15.85558	-1.93332	1.54348
15.85964	-1.84543	1.54348
15.86369	-1.71359	1.54348
15.86775	-1.71359	1.54348
15.87181	-1.60373	1.54348
15.87590	-1.49386	1.54348
15.87996	-1.38400	1.54348
15.88401	-1.25216	1.54348
15.88807	-1.25216	1.54348
15.89213	-1.14230	1.54348
15.89619	-1.01047	1.54348
15.90024	-0.90060	1.54348
15.90430	-0.79074	1.54348
15.90836	-0.70285	1.54348
15.91241	-0.70285	1.54348
15.91672	-0.57101	1.54348
15.92078	-0.46115	1.54348
15.92484	-0.35129	1.54348
15.92890	-0.21945	1.54348
15.93296	-0.21945	1.54348
15.93702	-0.10959	1.54348
15.94109	0.00028	1.54348
15.94518	0.08817	1.54348
15.94924	0.19803	1.54348
15.95330	0.32987	1.54348
15.95736	0.32987	1.54348
15.96142	0.43973	1.54348
15.96547	0.54959	1.54348
15.96953	0.65946	1.54348
15.97359	0.76932	1.54348
15.97765	0.76932	1.54348
15.98171	0.87918	1.54348
15.98576	0.98905	1.54348
15.98982	1.07694	1.54348
15.99388	1.18680	1.54348
15.99793	1.18680	1.54348
16.00199	1.29666	1.54348
16.00605	1.40653	1.54348
16.01010	1.51639	1.54348
16.01416	1.62625	1.54348
16.01846	1.62625	1.54348
16.02252	1.73612	1.54348
16.02658	1.84598	1.54348
16.03064	1.93387	1.54348
16.03470	2.04373	1.54348
16.03876	2.04373	1.54348
16.04282	2.15360	1.54348
16.04690	2.26346	1.54348
16.05096	2.35135	1.54348
16.05501	2.46121	1.54348
16.05907	2.46121	1.54348
16.06313	2.54911	1.54348
16.06719	2.65897	1.54348
16.07124	2.74686	1.54348
16.07530	2.83475	1.54348
16.07936	2.94461	1.54348
16.08342	2.94461	1.54348
16.08749	3.03250	1.54348
16.09155	3.14237	1.54348
16.09561	3.23026	1.54348
16.09966	3.31815	1.54348
16.10372	3.31815	1.54348
16.10778	3.42801	1.54348
16.11183	3.51590	1.54348
16.11589	3.58182	1.54348
16.12020	3.66971	1.54348
16.12426	3.77957	1.54348
16.12831	3.77957	1.54348
16.13238	3.86746	1.54348
16.13644	3.95536	1.54348
16.14050	4.04325	1.54348
16.14456	4.13114	1.54348
16.14865	4.13114	1.54348
16.15272	4.21903	1.54348
16.15677	4.30692	1.54348
16.16083	4.35086	1.54348
16.16489	4.46073	1.54348
16.16895	4.46073	1.54348
16.17301	4.52664	1.54348
16.17707	4.61453	1.54348
16.18113	4.68045	1.54348
16.18519	4.76834	1.54348
16.18925	4.76834	1.54348
16.19331	4.85623	1.54348
16.19736	4.92215	1.54348
16.20142	4.98807	1.54348
16.20548	5.05399	1.54348
16.20953	5.14188	1.54348
16.21359	5.14188	1.54348
16.21765	5.20780	1.54348
16.22194	5.27371	1.54348
16.22600	5.36161	1.54348
16.23006	5.42752	1.54348
16.23412	5.42752	1.54348
16.23818	5.49344	1.54348
16.24224	5.55936	1.54348
16.24629	5.60330	1.54348
16.25038	5.66922	1.54348
16.25445	5.75711	1.54348
16.25850	5.75711	1.54348
16.26256	5.80106	1.54348
16.26662	5.86698	1.54348
16.27067	5.93289	1.54348
16.27473	5.99881	1.54348
16.27879	5.99881	1.54348
16.28285	6.06473	1.54348
16.28691	6.10868	1.54348
16.29096	6.17459	1.54348
16.29502	6.17459	1.54348
16.29908	6.21854	1.54348
16.30313	6.28446	1.54348
16.30719	6.32840	1.54348
16.31125	6.39432	1.54348
16.31530	6.39432	1.54348
16.31936	6.43827	1.54348
16.32367	6.48221	1.54348
16.32773	6.52616	1.54348
16.33179	6.57010	1.54348
16.33585	6.61405	1.54348
16.33991	6.61405	1.54348
16.34397	6.65799	1.54348
16.34803	6.70194	1.54348
16.35211	6.74588	1.54348
16.35617	6.78983	1.54348
16.36023	6.78983	1.54348
16.36429	6.83377	1.54348
16.36834	6.87772	1.54348
16.37240	6.89969	1.54348
16.37646	6.94364	1.54348
16.38052	6.98758	1.54348
16.38458	6.98758	1.54348
16.38864	7.00955	1.54348
16.39270	7.03153	1.54348
16.39675	7.05350	1.54348
16.40081	7.09744	1.54348
16.40487	7.09744	1.54348
16.40892	7.14139	1.54348
16.41298	7.16336	1.54348
16.41704	7.18534	1.54348
16.42109	7.18534	1.54348
16.42539	7.22928	1.54348
16.42944	7.22928	1.54348
16.43350	7.25125	1.54348
16.43756	7.27323	1.54348
16.44163	7.29520	1.54348
16.44568	7.31717	1.54348
16.44974	7.31717	1.54348
16.45382	7.33914	1.54348
16.45788	7.36112	1.54348
16.46194	7.36112	1.54348
16.46600	7.38309	1.54348
16.47005	7.38309	1.54348
16.47411	7.38309	1.54348
16.47817	7.40506	1.54348
16.48223	7.40506	1.54348
16.48629	7.42703	1.54348
16.49035	7.42703	1.54348
16.49441	7.42703	1.54348
16.49846	7.42703	1.54348
16.50252	7.42703	1.54348
16.50657	7.44901	1.54348
16.51063	7.44901	1.54348
16.51469	7.44901	1.54348
16.51874	7.44901	1.54348
16.52280	7.44901	1.54348
16.52709	7.44901	1.54348
16.53115	7.44901	1.54348
16.53521	7.44901	1.54348
16.53927	7.44901	1.54348
16.54333	7.44901	1.54348
16.54739	7.44901	1.54348
16.55144	7.44901	1.54348
16.55552	7.44901	1.54348
16.55958	7.42703	1.54348
16.56364	7.42703	1.54348
16.56770	7.40506	1.54348
16.57175	7.40506	1.54348
16.57581	7.40506	1.54348
16.57987	7.38309	1.54348
16.58394	7.38309	1.54348
16.58801	7.36112	1.54348
16.59206	7.33914	1.54348
16.59613	7.33914	1.54348
16.60019	7.33914	1.54348
16.60425	7.31717	1.54348
16.60831	7.29520	1.54348
16.61237	7.27323	1.54348
16.61643	7.27323	1.54348
16.62049	7.25125	1.54348
16.62455	7.22928	1.54348
16.62884	7.20731	1.54348
16.63290	7.18534	1.54348
16.63696	7.16336	1.54348
16.64102	7.16336	1.54348
16.64508	7.14139	1.54348
16.64914	7.09744	1.54348
16.65319	7.07547	1.54348
16.65727	7.05350	1.54348
16.66133	7.05350	1.54348
16.66540	7.00955	1.54348
16.66946	6.98758	1.54348
16.67352	6.96561	1.54348
16.67757	6.92166	1.54348
16.68163	6.87772	1.54348
16.68570	6.87772	1.54348
16.68975	6.85575	1.54348
16.69381	6.81180	1.54348
16.69787	6.76786	1.54348
16.70192	6.72391	1.54348
16.70598	6.72391	1.54348
16.71004	6.70194	1.54348
16.71410	6.65799	1.54348
16.71815	6.61405	1.54348
16.72222	6.57010	1.54348
16.72627	6.52616	1.54348
16.73056	6.52616	1.54348
16.73462	6.48221	1.54348
16.73868	6.43827	1.54348
16.74274	6.39432	1.54348
16.74680	6.35037	1.54348
16.75086	6.35037	1.54348
16.75491	6.30643	1.54348
16.75899	6.26248	1.54348
16.76311	6.21854	1.54348
16.76717	6.15262	1.54348
16.77123	6.15262	1.54348
16.77528	6.10868	1.54348
16.77935	6.04276	1.54348
16.78340	5.99881	1.54348
16.78746	5.93289	1.54348
16.79152	5.93289	1.54348
16.79558	5.88895	1.54348
16.79963	5.82303	1.54348
16.80369	5.77909	1.54348
16.80775	5.71317	1.54348
16.81180	5.71317	1.54348
16.81586	5.64725	1.54348
16.81992	5.60330	1.54348
16.82398	5.53739	1.54348
16.82804	5.47147	1.54348
16.83234	5.47147	1.54348
16.83640	5.40555	1.54348
16.84046	5.33963	1.54348
16.84452	5.29569	1.54348
16.84859	5.22977	1.54348
16.85265	5.16385	1.54348
16.85670	5.16385	1.54348
16.86080	5.09793	1.54348
16.86486	5.05399	1.54348
16.86894	4.96610	1.54348
16.87300	4.90018	1.54348
16.87706	4.90018	1.54348
16.88115	4.83426	1.54348
16.88521	4.76834	1.54348
16.88926	4.70243	1.54348
16.89332	4.63651	1.54348
16.89738	4.54862	1.54348
16.90144	4.54862	1.54348
16.90550	4.48270	1.54348
16.90956	4.41678	1.54348
16.91362	4.32889	1.54348
16.91767	4.32889	1.54348
16.92174	4.26297	1.54348
16.92580	4.19705	1.54348
16.92985	4.13114	1.54348
16.93414	4.04325	1.54348
16.93820	3.97733	1.54348
16.94226	3.88944	1.54348
16.94632	3.88944	1.54348
16.95038	3.82352	1.54348
16.95444	3.73563	1.54348
16.95850	3.66971	1.54348
16.96256	3.66971	1.54348
16.96662	3.58182	1.54348
16.97334	3.42801	1.54348
16.97741	3.36209	1.54348
16.98149	3.36209	1.54348
16.98556	3.27420	1.54348
16.98963	3.18631	1.54348
16.99369	3.09842	1.54348
16.99775	3.03250	1.54348
17.00182	3.03250	1.54348
17.00588	2.94461	1.54348
17.00993	2.85672	1.54348
17.01400	2.79080	1.54348
17.01806	2.70291	1.54348
17.02212	2.70291	1.54348
17.02617	2.61502	1.54348
17.03024	2.52713	1.54348
17.03430	2.43924	1.54348
17.03858	2.35135	1.54348
17.04264	2.26346	1.54348
17.04670	2.26346	1.54348
17.05076	2.17557	1.54348
17.05482	2.08768	1.54348
17.05888	1.99979	1.54348
17.06294	1.99979	1.54348
17.06702	1.91190	1.54348
17.07108	1.82401	1.54348
17.07514	1.73612	1.54348
17.07938	1.64823	1.54348
17.08344	1.64823	1.54348
17.08750	1.53836	1.54348
17.09156	1.47244	1.54348
17.09562	1.36258	1.54348
17.09968	1.29666	1.54348
17.10373	1.20877	1.54348
17.10779	1.20877	1.54348
17.11185	1.12088	1.54348
17.11590	1.01102	1.54348
17.11996	0.92313	1.54348
17.12402	0.85721	1.54348
17.12807	0.85721	1.54348
17.13213	0.74735	1.54348
17.13619	0.65946	1.54348
17.14048	0.59354	1.54348
17.14454	0.48368	1.54348
17.14859	0.39578	1.54348
17.15266	0.39578	1.54348
17.15672	0.30789	1.54348
17.16077	0.22000	1.54348
17.16483	0.13211	1.54348
17.16891	0.02225	1.54348
17.17298	0.02225	1.54348
17.17704	-0.06564	1.54348
17.18109	-0.15353	1.54348
17.18514	-0.21945	1.54348
17.18916	-0.30734	1.54348
17.19322	-0.41720	1.54348
17.19728	-0.41720	1.54348
17.20134	-0.50509	1.54348
17.20540	-0.59298	1.54348
17.20946	-0.68088	1.54348
17.21641	-0.76877	1.54348
17.22048	-0.85666	1.54348
17.22460	-0.94455	1.54348
17.22868	-1.03244	1.54348
17.23275	-1.03244	1.54348
17.23686	-1.12033	1.54348
17.24092	-1.20822	1.54348
17.24535	-1.31808	1.54348
17.24941	-1.38400	1.54348
17.25348	-1.38400	1.54348
17.25754	-1.49386	1.54348
17.26160	-1.58175	1.54348
17.26566	-1.66964	1.54348
17.26972	-1.73556	1.54348
17.27382	-1.82345	1.54348
17.27788	-1.82345	1.54348
17.28194	-1.91134	1.54348
17.28599	-1.99923	1.54348
17.29008	-2.08713	1.54348
17.29414	-2.17502	1.54348
17.29819	-2.17502	1.54348
17.30225	-2.26291	1.54348
17.30631	-2.35080	1.54348
17.31036	-2.46066	1.54348
17.31442	-2.52658	1.54348
17.31847	-2.52658	1.54348
17.32253	-2.63644	1.54348
17.32659	-2.70236	1.54348
17.33064	-2.79025	1.54348
17.33470	-2.87814	1.54348
17.33876	-2.87814	1.54348
17.34282	-2.96603	1.54348
17.34709	-3.05392	1.54348
17.35115	-3.14181	1.54348
17.35530	-3.20773	1.54348
17.35938	-3.29562	1.54348
17.36345	-3.29562	1.54348
17.36751	-3.36154	1.54348
17.37157	-3.44943	1.54348
17.37564	-3.53732	1.54348
17.37970	-3.62521	1.54348
17.38375	-3.62521	1.54348
17.38781	-3.69113	1.54348
17.39189	-3.77902	1.54348
17.39595	-3.84494	1.54348
17.40001	-3.93283	1.54348
17.40406	-3.93283	1.54348
17.40812	-3.99875	1.54348
17.41218	-4.08664	1.54348
17.41624	-4.17453	1.54348
17.42029	-4.24045	1.54348
17.42435	-4.24045	1.54348
17.42841	-4.30636	1.54348
17.43246	-4.39425	1.54348
17.43652	-4.46017	1.54348
17.44058	-4.52609	1.54348
17.44464	-4.59201	1.54348
17.44894	-4.59201	1.54348
17.45300	-4.67990	1.54348
17.45705	-4.74582	1.54348
17.46111	-4.83371	1.54348
17.46514	-4.89963	1.54348
17.46920	-4.89963	1.54348
17.47325	-4.96554	1.54348
17.47732	-5.03146	1.54348
17.48138	-5.09738	1.54348
17.48543	-5.16330	1.54348
17.48949	-5.22922	1.54348
17.49355	-5.22922	1.54348
17.49760	-5.29513	1.54348
17.50166	-5.36105	1.54348
17.50572	-5.42697	1.54348
17.50978	-5.49289	1.54348
17.51383	-5.49289	1.54348
17.51789	-5.55881	1.54348
17.52195	-5.62472	1.54348
17.52600	-5.66867	1.54348
17.53010	-5.73459	1.54348
17.53420	-5.80050	1.54348
17.53826	-5.80050	1.54348
17.54232	-5.86642	1.54348
17.54639	-5.91037	1.54348
17.55131	-5.97629	1.54348
17.55538	-6.04220	1.54348
17.55945	-6.04220	1.54348
17.56352	-6.10812	1.54348
17.56758	-6.15207	1.54348
17.57164	-6.21798	1.54348
17.57570	-6.26193	1.54348
17.57979	-6.26193	1.54348
17.58394	-6.30588	1.54348
17.58802	-6.37179	1.54348
17.59208	-6.41574	1.54348
17.59615	-6.45968	1.54348
17.60021	-6.45968	1.54348
17.60427	-6.52560	1.54348
17.60834	-6.56955	1.54348
17.61242	-6.61349	1.54348
17.61650	-6.65744	1.54348
17.62056	-6.70138	1.54348
17.62463	-6.70138	1.54348
17.62876	-6.74533	1.54348
17.63288	-6.78927	1.54348
17.63695	-6.83322	1.54348
17.64100	-6.87716	1.54348
17.64508	-6.87716	1.54348
17.64914	-6.92111	1.54348
17.65345	-6.96506	1.54348
17.65751	-6.98703	1.54348
17.66157	-7.03097	1.54348
17.66563	-7.07492	1.54348
17.66969	-7.07492	1.54348
17.67375	-7.09689	1.54348
17.67787	-7.14084	1.54348
17.68286	-7.18478	1.54348
17.68693	-7.20675	1.54348
17.69101	-7.25070	1.54348
17.69508	-7.27267	1.54348
17.69914	-7.27267	1.54348
17.70320	-7.29464	1.54348
17.70725	-7.33859	1.54348
17.71131	-7.36056	1.54348
17.71537	-7.36056	1.54348
17.71942	-7.38254	1.54348
17.72348	-7.42648	1.54348
17.72754	-7.44845	1.54348
17.73159	-7.47043	1.54348
17.73565	-7.49240	1.54348
17.73970	-7.49240	1.54348
17.74376	-7.51437	1.54348
17.74782	-7.53634	1.54348
17.75187	-7.53634	1.54348
17.75613	-7.58029	1.54348
17.76019	-7.58029	1.54348
17.76425	-7.60226	1.54348
17.76831	-7.60226	1.54348
17.77237	-7.62423	1.54348
17.77642	-7.64621	1.54348
17.78048	-7.64621	1.54348
17.78457	-7.64621	1.54348
17.78863	-7.66818	1.54348
17.79268	-7.69015	1.54348
17.79674	-7.69015	1.54348
17.80080	-7.71213	1.54348
17.80485	-7.71213	1.54348
17.80891	-7.71213	1.54348
17.81298	-7.73410	1.54348
17.81704	-7.73410	1.54348
17.82110	-7.73410	1.54348
17.82514	-7.73410	1.54348
17.82919	-7.73410	1.54348
17.83325	-7.73410	1.54348
17.83731	-7.75607	1.54348
17.84140	-7.75607	1.54348
17.84546	-7.75607	1.54348
17.84951	-7.75607	1.54348
17.85357	-7.75607	1.54348
17.85787	-7.75607	1.54348
17.86193	-7.75607	1.54348
17.86599	-7.75607	1.54348
17.87006	-7.75607	1.54348
17.87412	-7.73410	1.54348
17.87817	-7.73410	1.54348
17.88223	-7.73410	1.54348
17.88633	-7.73410	1.54348
17.89039	-7.73410	1.54348
17.89445	-7.71213	1.54348
17.89851	-7.71213	1.54348
17.90259	-7.71213	1.54348
17.90664	-7.69015	1.54348
17.91070	-7.69015	1.54348
17.91477	-7.69015	1.54348
17.91883	-7.66818	1.54348
17.92288	-7.64621	1.54348
17.92694	-7.64621	1.54348
17.93100	-7.64621	1.54348
17.93506	-7.62423	1.54348
17.93911	-7.60226	1.54348
17.94317	-7.60226	1.54348
17.94723	-7.58029	1.54348
17.95129	-7.55832	1.54348
17.95535	-7.55832	1.54348
17.95963	-7.53634	1.54348
17.96369	-7.51437	1.54348
17.96775	-7.49240	1.54348
17.97182	-7.47043	1.54348
17.97587	-7.47043	1.54348
17.98004	-7.44845	1.54348
17.98411	-7.44845	1.54348
17.98821	-7.40451	1.54348
17.99228	-7.38254	1.54348
17.99635	-7.36056	1.54348
18.00052	-7.36056	1.54348
18.00463	-7.33859	1.54348
18.00869	-7.29464	1.54348
18.01275	-7.27267	1.54348
18.01686	-7.25070	1.54348
18.02101	-7.25070	1.54348
18.02508	-7.20675	1.54348
18.02916	-7.18478	1.54348
18.03322	-7.16281	1.54348
18.03735	-7.11886	1.54348
18.04145	-7.09689	1.54348
18.04551	-7.09689	1.54348
18.04958	-7.07492	1.54348
18.05365	-7.03097	1.54348
18.05772	-6.98703	1.54348
18.06286	-6.94308	1.54348
18.06692	-6.92111	1.54348
18.07098	-6.92111	1.54348
18.07504	-6.87716	1.54348
18.07910	-6.83322	1.54348
18.08316	-6.78927	1.54348
18.08722	-6.76730	1.54348
18.09128	-6.76730	1.54348
18.09534	-6.72336	1.54348
18.09940	-6.67941	1.54348
18.10345	-6.63547	1.54348
18.10753	-6.63547	1.54348
18.11159	-6.61349	1.54348
18.11564	-6.56955	1.54348
18.11970	-6.52560	1.54348
18.12375	-6.48166	1.54348
18.12781	-6.43771	1.54348
18.13186	-6.43771	1.54348
18.13592	-6.39377	1.54348
18.13997	-6.34982	1.54348
18.14403	-6.30588	1.54348
18.14808	-6.26193	1.54348
18.15214	-6.26193	1.54348
18.15619	-6.19601	1.54348
18.16025	-6.15207	1.54348
18.16450	-6.13009	1.54348
18.16855	-6.08615	1.54348
18.17261	-6.04220	1.54348
18.17667	-6.04220	1.54348
18.18072	-5.97629	1.54348
18.18478	-5.93234	1.54348
18.18883	-5.88839	1.54348
18.19289	-5.82248	1.54348
18.19694	-5.82248	1.54348
18.20100	-5.77853	1.54348
18.20505	-5.71261	1.54348
18.20911	-5.69064	1.54348
18.21313	-5.62472	1.54348
18.21719	-5.62472	1.54348
18.22124	-5.58078	1.54348
18.22530	-5.51486	1.54348
18.22935	-5.47091	1.54348
18.23340	-5.42697	1.54348
18.23746	-5.42697	1.54348
18.24151	-5.36105	1.54348
18.24557	-5.31711	1.54348
18.24962	-5.27316	1.54348
18.25368	-5.20724	1.54348
18.25773	-5.14132	1.54348
18.26179	-5.14132	1.54348
18.26605	-5.09738	1.54348
18.27010	-5.03146	1.54348
18.27416	-4.98752	1.54348
18.27821	-4.92160	1.54348
18.28227	-4.92160	1.54348
18.28632	-4.87765	1.54348
18.29038	-4.81173	1.54348
18.29444	-4.76779	1.54348
18.29849	-4.70187	1.54348
18.30255	-4.63595	1.54348
18.30660	-4.63595	1.54348
18.31066	-4.59201	1.54348
18.31471	-4.52609	1.54348
18.31876	-4.46017	1.54348
18.32282	-4.39425	1.54348
18.32687	-4.39425	1.54348
18.33093	-4.35031	1.54348
18.33498	-4.28439	1.54348
18.33904	-4.21847	1.54348
18.34311	-4.21847	1.54348
18.34716	-4.17453	1.54348
18.35122	-4.10861	1.54348
18.35527	-4.04269	1.54348
18.35933	-3.97677	1.54348
18.36338	-3.97677	1.54348
18.36762	-3.91086	1.54348
18.37168	-3.86691	1.54348
18.37573	-3.80099	1.54348
18.37979	-3.75705	1.54348
18.38384	-3.69113	1.54348
18.38790	-3.69113	1.54348
18.39195	-3.62521	1.54348
18.39601	-3.55929	1.54348
18.40007	-3.51535	1.54348
18.40412	-3.44943	1.54348
18.40818	-3.44943	1.54348
18.41223	-3.38351	1.54348
18.41629	-3.31759	1.54348
18.42034	-3.27365	1.54348
18.42440	-3.20773	1.54348
18.42845	-3.16379	1.54348
18.43250	-3.16379	1.54348
18.43656	-3.09787	1.54348
18.44061	-3.03195	1.54348
18.44471	-2.96603	1.54348
18.44879	-2.90011	1.54348
18.45285	-2.90011	1.54348
18.45693	-2.85617	1.54348
18.46105	-2.79025	1.54348
18.46515	-2.74631	1.54348
18.46952	-2.68039	1.54348
18.47359	-2.59250	1.54348
18.47770	-2.59250	1.54348
18.48178	-2.54855	1.54348
18.48585	-2.50461	1.54348
18.48992	-2.41672	1.54348
18.49399	-2.37277	1.54348
18.49809	-2.37277	1.54348
18.50218	-2.30685	1.54348
18.50755	-2.26291	1.54348
18.51161	-2.19699	1.54348
18.51567	-2.15304	1.54348
18.51972	-2.08713	1.54348
18.52378	-2.02121	1.54348
18.52783	-2.02121	1.54348
18.53189	-1.95529	1.54348
18.53595	-1.88937	1.54348
18.54017	-1.84543	1.54348
18.54425	-1.77951	1.54348
18.54831	-1.73556	1.54348
18.55251	-1.73556	1.54348
18.55657	-1.69162	1.54348
18.56063	-1.62570	1.54348
18.56469	-1.55978	1.54348
18.56874	-1.51584	1.54348
18.57297	-1.51584	1.54348
18.57702	-1.44992	1.54348
18.58108	-1.38400	1.54348
18.58513	-1.34006	1.54348
18.58919	-1.27414	1.54348
18.59324	-1.27414	1.54348
18.59730	-1.23019	1.54348
18.60138	-1.16427	1.54348
18.60544	-1.12033	1.54348
18.60949	-1.05441	1.54348
18.61355	-1.05441	1.54348
18.61761	-1.01047	1.54348
18.62166	-0.94455	1.54348
18.62572	-0.90060	1.54348
18.62977	-0.90060	1.54348
18.63383	-0.83468	1.54348
18.63788	-0.81271	1.54348
18.64194	-0.74679	1.54348
18.64599	-0.70285	1.54348
18.65005	-0.65890	1.54348
18.65410	-0.65890	1.54348
18.65816	-0.59298	1.54348
18.66222	-0.54904	1.54348
18.66627	-0.50509	1.54348
18.67032	-0.43918	1.54348
18.67456	-0.41720	1.54348
18.67861	-0.41720	1.54348
18.68267	-0.35129	1.54348
18.68672	-0.30734	1.54348
18.69078	-0.26339	1.54348
18.69483	-0.19748	1.54348
18.69888	-0.19748	1.54348
18.70296	-0.17550	1.54348
18.70701	-0.10959	1.54348
18.71107	-0.06564	1.54348
18.71513	-0.02170	1.54348
18.71918	0.00028	1.54348
18.72324	0.00028	1.54348
18.72729	0.04422	1.54348
18.73135	0.11014	1.54348
18.73540	0.13211	1.54348
18.73946	0.13211	1.54348
18.74351	0.17606	1.54348
18.74757	0.22000	1.54348
18.75163	0.26395	1.54348
18.75568	0.30789	1.54348
18.75973	0.35184	1.54348
18.76380	0.35184	1.54348
18.76785	0.37381	1.54348
18.77191	0.41776	1.54348
18.77614	0.46170	1.54348
18.78020	0.50565	1.54348
18.78425	0.50565	1.54348
18.78831	0.52762	1.54348
18.79236	0.57157	1.54348
18.79642	0.61551	1.54348
18.80047	0.63748	1.54348
18.80455	0.65946	1.54348
18.80860	0.65946	1.54348
18.81266	0.70340	1.54348
18.81672	0.72537	1.54348
18.82077	0.76932	1.54348
18.82483	0.81327	1.54348
18.82888	0.81327	1.54348
18.83294	0.83524	1.54348
18.83699	0.85721	1.54348
18.84105	0.90116	1.54348
18.84511	0.92313	1.54348
18.84913	0.92313	1.54348
18.85319	0.94510	1.54348
18.85731	0.98905	1.54348
18.86137	1.01102	1.54348
18.86542	1.01102	1.54348
18.86948	1.03299	1.54348
18.87353	1.05496	1.54348
18.87776	1.07694	1.54348
18.88181	1.09891	1.54348
18.88587	1.09891	1.54348
18.88992	1.14286	1.54348
18.89398	1.14286	1.54348
18.89803	1.18680	1.54348
18.90209	1.20877	1.54348
18.90616	1.20877	1.54348
18.91022	1.20877	1.54348
18.91427	1.23075	1.54348
18.91833	1.25272	1.54348
18.92238	1.27469	1.54348
18.92644	1.29666	1.54348
18.93049	1.31864	1.54348
18.93455	1.31864	1.54348
18.93860	1.31864	1.54348
18.94266	1.34061	1.54348
18.94671	1.36258	1.54348
18.95077	1.38455	1.54348
18.95482	1.38455	1.54348
18.95888	1.38455	1.54348
18.96293	1.40653	1.54348
18.96699	1.40653	1.54348
18.97104	1.42850	1.54348
18.97510	1.42850	1.54348
18.97933	1.42850	1.54348
18.98338	1.45047	1.54348
18.98744	1.45047	1.54348
18.99149	1.47244	1.54348
18.99555	1.47244	1.54348
18.99960	1.47244	1.54348
19.00366	1.47244	1.54348
19.00773	1.47244	1.54348
19.01179	1.49442	1.54348
19.01584	1.49442	1.54348
19.01990	1.49442	1.54348
19.02395	1.51639	1.54348
19.02801	1.51639	1.54348
19.03206	1.51639	1.54348
19.03612	1.51639	1.54348
19.04017	1.51639	1.54348
19.04423	1.51639	1.54348
19.04828	1.51639	1.54348
19.05234	1.51639	1.54348
19.05639	1.51639	1.54348
19.06045	1.51639	1.54348
19.06450	1.51639	1.54348
19.06856	1.51639	1.54348
19.07261	1.51639	1.54348
19.07667	1.51639	1.54348
19.08090	1.51639	1.54348
19.08496	1.51639	1.54348
19.08901	1.51639	1.54348
19.09306	1.51639	1.54348
19.09712	1.51639	1.54348
19.10113	1.49442	1.54348
19.10519	1.49442	1.54348
19.10925	1.49442	1.54348
19.11330	1.49442	1.54348
19.11736	1.49442	1.54348
19.12141	1.49442	1.54348
19.12546	1.49442	1.54348
19.12952	1.47244	1.54348
19.13357	1.47244	1.54348
19.13763	1.47244	1.54348
19.14168	1.47244	1.54348
19.14574	1.45047	1.54348
19.14980	1.42850	1.54348
19.15385	1.42850	1.54348
19.15791	1.40653	1.54348
19.16196	1.40653	1.54348
19.16601	1.40653	1.54348
19.17007	1.38455	1.54348
19.17412	1.38455	1.54348
19.17818	1.36258	1.54348
19.18241	1.34061	1.54348
19.18647	1.34061	1.54348
19.19052	1.34061	1.54348
19.19458	1.31864	1.54348
19.19863	1.29666	1.54348
19.20269	1.29666	1.54348
19.20674	1.27469	1.54348
19.21080	1.27469	1.54348
19.21485	1.25272	1.54348
19.21891	1.23075	1.54348
19.22296	1.20877	1.54348
19.22702	1.20877	1.54348
19.23107	1.18680	1.54348
19.23513	1.18680	1.54348
19.23918	1.16483	1.54348
19.24324	1.14286	1.54348
19.24729	1.12088	1.54348
19.25135	1.12088	1.54348
19.25540	1.09891	1.54348
19.25946	1.07694	1.54348
19.26351	1.05496	1.54348
19.26757	1.03299	1.54348
19.27162	1.01102	1.54348
19.27568	1.01102	1.54348
19.27973	0.98905	1.54348
19.28396	0.96707	1.54348
19.28801	0.94510	1.54348
19.29207	0.92313	1.54348
19.29612	0.92313	1.54348
19.30018	0.90116	1.54348
19.30423	0.87918	1.54348
19.30829	0.85721	1.54348
19.31235	0.81327	1.54348
19.31640	0.81327	1.54348
19.32046	0.81327	1.54348
19.32451	0.76932	1.54348
19.32857	0.74735	1.54348
19.33262	0.72537	1.54348
19.33668	0.68143	1.54348
19.34073	0.68143	1.54348
19.34479	0.65946	1.54348
19.34884	0.63748	1.54348
19.35290	0.61551	1.54348
19.35696	0.61551	1.54348
19.36114	0.57157	1.54348
19.36519	0.54959	1.54348
19.36925	0.52762	1.54348
19.37330	0.48368	1.54348
19.37736	0.48368	1.54348
19.38141	0.46170	1.54348
19.38564	0.41776	1.54348
19.38969	0.39578	1.54348
19.39375	0.37381	1.54348
19.39780	0.37381	1.54348
19.40186	0.32987	1.54348
19.40592	0.30789	1.54348
19.40997	0.28592	1.54348
19.41403	0.24198	1.54348
19.41809	0.19803	1.54348
19.42214	0.19803	1.54348
19.42620	0.17606	1.54348
19.43025	0.15409	1.54348
19.43431	0.11014	1.54348
19.43836	0.06619	1.54348
19.44242	0.04422	1.54348
19.44648	0.04422	1.54348
19.45053	0.02225	1.54348
19.45459	-0.02170	1.54348
19.45864	-0.04367	1.54348
19.46270	-0.08761	1.54348
19.46675	-0.08761	1.54348
19.47081	-0.13156	1.54348
19.47486	-0.15353	1.54348
19.47892	-0.19748	1.54348
19.48297	-0.21945	1.54348
19.48720	-0.24142	1.54348
19.49125	-0.24142	1.54348
19.49531	-0.28537	1.54348
19.49936	-0.32931	1.54348
19.50342	-0.35129	1.54348
19.50747	-0.35129	1.54348
19.51153	-0.39523	1.54348
19.51559	-0.43918	1.54348
19.51964	-0.46115	1.54348
19.52370	-0.50509	1.54348
19.52775	-0.52707	1.54348
19.53181	-0.52707	1.54348
19.53587	-0.57101	1.54348
19.53992	-0.61496	1.54348
19.54398	-0.63693	1.54348
19.54804	-0.68088	1.54348
19.55210	-0.68088	1.54348
19.55615	-0.72482	1.54348
19.56021	-0.74679	1.54348
19.56426	-0.79074	1.54348
19.56832	-0.83468	1.54348
19.57237	-0.85666	1.54348
19.57643	-0.85666	1.54348
19.58049	-0.90060	1.54348
19.58455	-0.94455	1.54348
19.58877	-0.98849	1.54348
19.59283	-1.01047	1.54348
19.59688	-1.01047	1.54348
19.60094	-1.05441	1.54348
19.60499	-1.07638	1.54348
19.60905	-1.12033	1.54348
19.61310	-1.16427	1.54348
19.61714	-1.16427	1.54348
19.62120	-1.20822	1.54348
19.62526	-1.23019	1.54348
19.62931	-1.27414	1.54348
19.63337	-1.27414	1.54348
19.63742	-1.31808	1.54348
19.64148	-1.34006	1.54348
19.64554	-1.40597	1.54348
19.64960	-1.42795	1.54348
19.65366	-1.42795	1.54348
19.65772	-1.47189	1.54348
19.66178	-1.49386	1.54348
19.66584	-1.53781	1.54348
19.66989	-1.58175	1.54348
19.67395	-1.60373	1.54348
19.67800	-1.60373	1.54348
19.68205	-1.66964	1.54348
19.68611	-1.69162	1.54348
19.69034	-1.73556	1.54348
19.69440	-1.75754	1.54348
19.69845	-1.80148	1.54348
19.70251	-1.80148	1.54348
19.70656	-1.84543	1.54348
19.71062	-1.86740	1.54348
19.71467	-1.91134	1.54348
19.71873	-1.95529	1.54348
19.72279	-1.95529	1.54348
19.72685	-1.97726	1.54348
19.73090	-2.02121	1.54348
19.73495	-2.06515	1.54348
19.73901	-2.10910	1.54348
19.74307	-2.10910	1.54348
19.74713	-2.13107	1.54348
19.75118	-2.17502	1.54348
19.75524	-2.19699	1.54348
19.75930	-2.24093	1.54348
19.76335	-2.24093	1.54348
19.76741	-2.28488	1.54348
19.77146	-2.30685	1.54348
19.77552	-2.35080	1.54348
19.77957	-2.39474	1.54348
19.78363	-2.41672	1.54348
19.78769	-2.41672	1.54348
19.79191	-2.46066	1.54348
19.79597	-2.48263	1.54348
19.80002	-2.52658	1.54348
19.80408	-2.54855	1.54348
19.80814	-2.54855	1.54348
19.81219	-2.59250	1.54348
19.81625	-2.63644	1.54348
19.82031	-2.65841	1.54348
19.82437	-2.70236	1.54348
19.82843	-2.72433	1.54348
19.83248	-2.72433	1.54348
19.83654	-2.74631	1.54348
19.84059	-2.79025	1.54348
19.84465	-2.83420	1.54348
19.84871	-2.85617	1.54348
19.85276	-2.85617	1.54348
19.85682	-2.90011	1.54348
19.86087	-2.92209	1.54348
19.86493	-2.96603	1.54348
19.86899	-2.96603	1.54348
19.87304	-2.98800	1.54348
19.87709	-3.03195	1.54348
19.88113	-3.05392	1.54348
19.88519	-3.09787	1.54348
19.88924	-3.09787	1.54348
19.89347	-3.11984	1.54348
19.89753	-3.16379	1.54348
19.90158	-3.18576	1.54348
19.90564	-3.20773	1.54348
19.90969	-3.20773	1.54348
19.91375	-3.25168	1.54348
19.91781	-3.27365	1.54348
19.92187	-3.29562	1.54348
19.92592	-3.33957	1.54348
19.92998	-3.36154	1.54348
19.93404	-3.36154	1.54348
19.93809	-3.38351	1.54348
19.94215	-3.40548	1.54348
19.94621	-3.44943	1.54348
19.95026	-3.47140	1.54348
19.95432	-3.49338	1.54348
19.95837	-3.49338	1.54348
19.96243	-3.51535	1.54348
19.96649	-3.55929	1.54348
19.97054	-3.58127	1.54348
19.97460	-3.60324	1.54348
19.97865	-3.60324	1.54348
19.98271	-3.62521	1.54348
19.98676	-3.64718	1.54348
19.99082	-3.66916	1.54348
19.99504	-3.71310	1.54348
19.99909	-3.71310	1.54348
20.00315	-3.71310	1.54348
20.00720	-3.75705	1.54348
20.01126	-3.77902	1.54348
20.01532	-3.80099	1.54348
20.01937	-3.80099	1.54348
20.02343	-3.80099	1.54348
20.02749	-3.84494	1.54348
20.03155	-3.86691	1.54348
20.03560	-3.88888	1.54348
20.03966	-3.88888	1.54348
20.04371	-3.88888	1.54348
20.04777	-3.93283	1.54348
20.05183	-3.93283	1.54348
20.05588	-3.95480	1.54348
20.05994	-3.97677	1.54348
20.06400	-3.97677	1.54348
20.06805	-3.99875	1.54348
20.07211	-4.02072	1.54348
20.07616	-4.04269	1.54348
20.08022	-4.04269	1.54348
20.08427	-4.06466	1.54348
20.08833	-4.06466	1.54348
20.09239	-4.08664	1.54348
20.09662	-4.10861	1.54348
20.10068	-4.10861	1.54348
20.10473	-4.13058	1.54348
20.10930	-4.15256	1.54348
20.11338	-4.15256	1.54348
20.11745	-4.15256	1.54348
20.12151	-4.17453	1.54348
20.12557	-4.19650	1.54348
20.12963	-4.19650	1.54348
20.13369	-4.21847	1.54348
20.13774	-4.21847	1.54348
20.14180	-4.24045	1.54348
20.14586	-4.24045	1.54348
20.14991	-4.24045	1.54348
20.15397	-4.26242	1.54348
20.15802	-4.26242	1.54348
20.16208	-4.28439	1.54348
20.16613	-4.28439	1.54348
20.17019	-4.30636	1.54348
20.17425	-4.30636	1.54348
20.17830	-4.30636	1.54348
20.18236	-4.30636	1.54348
20.18642	-4.32834	1.54348
20.19047	-4.32834	1.54348
20.19453	-4.32834	1.54348
20.19876	-4.32834	1.54348
20.20282	-4.32834	1.54348
20.20687	-4.35031	1.54348
20.21093	-4.35031	1.54348
20.21499	-4.35031	1.54348
20.21904	-4.35031	1.54348
20.22309	-4.37228	1.54348
20.22716	-4.37228	1.54348
20.23121	-4.37228	1.54348
20.23527	-4.37228	1.54348
20.23932	-4.37228	1.54348
20.24338	-4.37228	1.54348
20.24744	-4.37228	1.54348
20.25149	-4.37228	1.54348
20.25555	-4.37228	1.54348
20.25960	-4.37228	1.54348
20.26366	-4.39425	1.54348
20.26772	-4.39425	1.54348
20.27177	-4.39425	1.54348
20.27582	-4.39425	1.54348
20.27988	-4.39425	1.54348
20.28394	-4.37228	1.54348
20.28799	-4.37228	1.54348
20.29204	-4.39425	1.54348
20.29610	-4.37228	1.54348
20.30034	-4.37228	1.54348
20.30440	-4.37228	1.54348
20.30845	-4.37228	1.54348
20.31251	-4.37228	1.54348
20.31657	-4.37228	1.54348
20.32062	-4.37228	1.54348
20.32468	-4.37228	1.54348
20.32874	-4.35031	1.54348
20.33280	-4.35031	1.54348
20.33685	-4.35031	1.54348
20.34091	-4.35031	1.54348
20.34496	-4.35031	1.54348
20.34907	-4.35031	1.54348
20.35315	-4.35031	1.54348
20.35721	-4.32834	1.54348
20.36127	-4.30636	1.54348
20.36535	-4.32834	1.54348
20.36942	-4.32834	1.54348
20.37348	-4.30636	1.54348
20.37753	-4.30636	1.54348
20.38159	-4.28439	1.54348
20.38565	-4.28439	1.54348
20.38970	-4.26242	1.54348
20.39376	-4.26242	1.54348
20.39781	-4.26242	1.54348
20.40205	-4.24045	1.54348
20.40610	-4.24045	1.54348
20.41016	-4.24045	1.54348
20.41422	-4.21847	1.54348
20.41827	-4.21847	1.54348
20.42232	-4.19650	1.54348
20.42638	-4.19650	1.54348
20.43045	-4.19650	1.54348
20.43450	-4.17453	1.54348
20.43856	-4.15256	1.54348
20.44261	-4.13058	1.54348
20.44667	-4.13058	1.54348
20.45072	-4.13058	1.54348
20.45478	-4.10861	1.54348
20.45883	-4.08664	1.54348
20.46289	-4.08664	1.54348
20.46695	-4.06466	1.54348
20.47100	-4.06466	1.54348
20.47510	-4.06466	1.54348
20.47916	-4.04269	1.54348
20.48323	-4.02072	1.54348
20.48729	-3.99875	1.54348
20.49140	-3.99875	1.54348
20.49547	-3.97677	1.54348
20.49953	-3.95480	1.54348
20.50378	-3.95480	1.54348
20.50784	-3.93283	1.54348
20.51189	-3.91086	1.54348
20.51600	-3.88888	1.54348
20.52006	-3.88888	1.54348
20.52412	-3.86691	1.54348
20.52819	-3.84494	1.54348
20.53225	-3.84494	1.54348
20.53631	-3.84494	1.54348
20.54037	-3.82297	1.54348
20.54442	-3.80099	1.54348
20.54848	-3.77902	1.54348
20.55253	-3.75705	1.54348
20.55659	-3.73507	1.54348
20.56064	-3.73507	1.54348
20.56470	-3.71310	1.54348
20.56875	-3.69113	1.54348
20.57281	-3.66916	1.54348
20.57686	-3.64718	1.54348
20.58092	-3.64718	1.54348
20.58498	-3.64718	1.54348
20.58903	-3.60324	1.54348
20.59309	-3.58127	1.54348
20.59713	-3.55929	1.54348
20.60119	-3.55929	1.54348
20.60542	-3.55929	1.54348
20.60947	-3.51535	1.54348
20.61353	-3.49338	1.54348
20.61758	-3.47140	1.54348
20.62164	-3.47140	1.54348
20.62569	-3.44943	1.54348
20.62975	-3.42746	1.54348
20.63381	-3.40548	1.54348
20.63787	-3.38351	1.54348
20.64193	-3.38351	1.54348
20.64598	-3.36154	1.54348
20.65004	-3.33957	1.54348
20.65409	-3.29562	1.54348
20.65815	-3.29562	1.54348
20.66221	-3.29562	1.54348
20.66626	-3.25168	1.54348
20.67032	-3.22970	1.54348
20.67437	-3.20773	1.54348
20.67843	-3.18576	1.54348
20.68248	-3.16379	1.54348
20.68654	-3.16379	1.54348
20.69059	-3.14181	1.54348
20.69465	-3.11984	1.54348
20.69870	-3.07589	1.54348
20.70276	-3.05392	1.54348
20.70699	-3.05392	1.54348
20.71105	-3.03195	1.54348
20.71510	-3.00998	1.54348
20.71916	-2.98800	1.54348
20.72321	-2.96603	1.54348
20.72727	-2.94406	1.54348
20.73133	-2.94406	1.54348
20.73539	-2.90011	1.54348
20.73945	-2.87814	1.54348
20.74350	-2.85617	1.54348
20.74760	-2.83420	1.54348
20.75167	-2.83420	1.54348
20.75572	-2.81222	1.54348
20.75979	-2.76828	1.54348
20.76385	-2.74631	1.54348
20.76790	-2.72433	1.54348
20.77196	-2.72433	1.54348
20.77601	-2.70236	1.54348
20.78007	-2.68039	1.54348
20.78413	-2.65841	1.54348
20.78818	-2.63644	1.54348
20.79223	-2.63644	1.54348
20.79630	-2.61447	1.54348
20.80036	-2.57052	1.54348
20.80441	-2.54855	1.54348
20.80864	-2.52658	1.54348
20.81270	-2.50461	1.54348
20.81675	-2.50461	1.54348
20.82081	-2.48263	1.54348
20.82486	-2.43869	1.54348
20.82892	-2.41672	1.54348
20.83298	-2.39474	1.54348
20.83705	-2.39474	1.54348
20.84111	-2.35080	1.54348
20.84514	-2.32882	1.54348
20.84920	-2.30685	1.54348
20.85325	-2.28488	1.54348
20.85731	-2.26291	1.54348
20.86137	-2.26291	1.54348
20.86543	-2.24093	1.54348
20.86948	-2.21896	1.54348
20.87354	-2.19699	1.54348
20.87760	-2.19699	1.54348
20.88166	-2.17502	1.54348
20.88571	-2.13107	1.54348
20.88977	-2.10910	1.54348
20.89383	-2.08713	1.54348
20.89788	-2.08713	1.54348
20.90194	-2.06515	1.54348
20.90600	-2.02121	1.54348
20.91022	-1.99923	1.54348
20.91428	-1.97726	1.54348
20.91834	-1.97726	1.54348
20.92240	-1.95529	1.54348
20.92646	-1.93332	1.54348
20.93051	-1.91134	1.54348
20.93457	-1.86740	1.54348
20.93864	-1.84543	1.54348
20.94270	-1.84543	1.54348
20.94676	-1.82345	1.54348
20.95081	-1.80148	1.54348
20.95487	-1.77951	1.54348
20.95892	-1.75754	1.54348
20.96298	-1.75754	1.54348
20.96703	-1.73556	1.54348
20.97109	-1.71359	1.54348
20.97515	-1.69162	1.54348
20.97921	-1.66964	1.54348
20.98326	-1.64767	1.54348
20.98732	-1.64767	1.54348
20.99138	-1.60373	1.54348
20.99544	-1.60373	1.54348
20.99950	-1.55978	1.54348
21.00355	-1.55978	1.54348
21.00761	-1.53781	1.54348
21.01184	-1.51584	1.54348
21.01589	-1.49386	1.54348
21.01995	-1.47189	1.54348
21.02401	-1.44992	1.54348
21.02807	-1.44992	1.54348
21.03213	-1.42795	1.54348
21.03618	-1.40597	1.54348
21.04025	-1.38400	1.54348
21.04431	-1.36203	1.54348
21.04837	-1.36203	1.54348
21.05248	-1.34006	1.54348
21.05655	-1.31808	1.54348
21.06061	-1.29611	1.54348
21.06467	-1.29611	1.54348
21.06873	-1.25216	1.54348
21.07279	-1.25216	1.54348
21.07684	-1.23019	1.54348
21.08098	-1.23019	1.54348
21.08505	-1.20822	1.54348
21.08911	-1.18625	1.54348
21.09314	-1.18625	1.54348
21.09720	-1.16427	1.54348
21.10125	-1.14230	1.54348
21.10531	-1.12033	1.54348
21.10936	-1.12033	1.54348
21.11360	-1.09836	1.54348
21.11766	-1.09836	1.54348
21.12171	-1.07638	1.54348
21.12577	-1.05441	1.54348
21.12982	-1.03244	1.54348
21.13388	-1.03244	1.54348
21.13793	-1.03244	1.54348
21.14199	-1.01047	1.54348
21.14605	-1.01047	1.54348
21.15010	-0.96652	1.54348
21.15416	-0.96652	1.54348
21.15821	-0.94455	1.54348
21.16227	-0.94455	1.54348
21.16632	-0.92257	1.54348
21.17038	-0.90060	1.54348
21.17443	-0.90060	1.54348
21.17849	-0.90060	1.54348
21.18255	-0.87863	1.54348
21.18660	-0.85666	1.54348
21.19065	-0.83468	1.54348
21.19471	-0.83468	1.54348
21.19876	-0.83468	1.54348
21.20282	-0.81271	1.54348
21.20687	-0.79074	1.54348
21.21093	-0.81271	1.54348
21.21516	-0.79074	1.54348
21.21921	-0.79074	1.54348
21.22327	-0.76877	1.54348
21.22732	-0.76877	1.54348
21.23137	-0.74679	1.54348
21.23543	-0.74679	1.54348
21.23948	-0.74679	1.54348
21.24355	-0.74679	1.54348
21.24761	-0.72482	1.54348
21.25166	-0.70285	1.54348
21.25572	-0.70285	1.54348
21.25977	-0.68088	1.54348
21.26383	-0.68088	1.54348
21.26793	-0.68088	1.54348
21.27199	-0.68088	1.54348
21.27605	-0.65890	1.54348
21.28011	-0.65890	1.54348
21.28416	-0.65890	1.54348
21.28822	-0.65890	1.54348
21.29231	-0.63693	1.54348
21.29637	-0.63693	1.54348
21.30044	-0.63693	1.54348
21.30450	-0.63693	1.54348
21.30855	-0.61496	1.54348
21.31261	-0.61496	1.54348
21.31704	-0.61496	1.54348
21.32110	-0.61496	1.54348
21.32514	-0.59298	1.54348
21.32926	-0.59298	1.54348
21.33336	-0.59298	1.54348
21.33741	-0.59298	1.54348
21.34148	-0.59298	1.54348
21.34554	-0.59298	1.54348
21.34963	-0.59298	1.54348
21.35370	-0.59298	1.54348
21.35775	-0.57101	1.54348
21.36182	-0.57101	1.54348
21.36591	-0.57101	1.54348
21.36997	-0.57101	1.54348
21.37403	-0.57101	1.54348
21.37809	-0.57101	1.54348
21.38215	-0.57101	1.54348
21.38625	-0.57101	1.54348
21.39033	-0.54904	1.54348
21.39439	-0.54904	1.54348
21.39845	-0.57101	1.54348
21.40251	-0.57101	1.54348
21.40656	-0.57101	1.54348
21.41062	-0.57101	1.54348
21.41469	-0.57101	1.54348
21.41900	-0.57101	1.54348
21.42306	-0.57101	1.54348
21.42712	-0.57101	1.54348
21.43125	-0.57101	1.54348
21.43533	-0.57101	1.54348
21.43939	-0.57101	1.54348
21.44346	-0.57101	1.54348
21.44761	-0.57101	1.54348
21.45174	-0.57101	1.54348
21.45580	-0.57101	1.54348
21.45986	-0.57101	1.54348
21.46399	-0.57101	1.54348
21.46809	-0.57101	1.54348
21.47215	-0.59298	1.54348
21.47622	-0.57101	1.54348
21.48036	-0.59298	1.54348
21.48444	-0.59298	1.54348
21.48850	-0.59298	1.54348
21.49257	-0.59298	1.54348
21.49662	-0.59298	1.54348
21.50068	-0.59298	1.54348
21.50473	-0.59298	1.54348
21.50879	-0.61496	1.54348
21.51284	-0.61496	1.54348
21.51690	-0.61496	1.54348
21.52113	-0.61496	1.54348
21.52519	-0.61496	1.54348
21.52924	-0.63693	1.54348
21.53330	-0.63693	1.54348
21.53735	-0.63693	1.54348
21.54141	-0.63693	1.54348
21.54546	-0.65890	1.54348
21.54953	-0.65890	1.54348
21.55358	-0.65890	1.54348
21.55764	-0.68088	1.54348
21.56169	-0.68088	1.54348
21.56575	-0.68088	1.54348
21.56980	-0.68088	1.54348
21.57386	-0.68088	1.54348
21.57791	-0.70285	1.54348
21.58197	-0.70285	1.54348
21.58602	-0.70285	1.54348
21.59008	-0.70285	1.54348
21.59413	-0.72482	1.54348
21.59819	-0.72482	1.54348
21.60224	-0.72482	1.54348
21.60630	-0.74679	1.54348
21.61035	-0.74679	1.54348
21.61441	-0.74679	1.54348
21.61846	-0.76877	1.54348
21.62271	-0.76877	1.54348
21.62676	-0.76877	1.54348
21.63082	-0.79074	1.54348
21.63487	-0.79074	1.54348
21.63893	-0.79074	1.54348
21.64299	-0.79074	1.54348
21.64710	-0.81271	1.54348
21.65120	-0.81271	1.54348
21.65527	-0.81271	1.54348
21.65933	-0.83468	1.54348
21.66339	-0.83468	1.54348
21.66745	-0.85666	1.54348
21.67150	-0.85666	1.54348
21.67556	-0.85666	1.54348
21.67962	-0.87863	1.54348
21.68367	-0.87863	1.54348
21.68773	-0.90060	1.54348
21.69178	-0.90060	1.54348
21.69584	-0.90060	1.54348
21.69989	-0.92257	1.54348
21.70395	-0.92257	1.54348
21.70800	-0.94455	1.54348
21.71206	-0.94455	1.54348
21.71611	-0.94455	1.54348
21.72017	-0.96652	1.54348
21.72439	-0.96652	1.54348
21.72845	-0.98849	1.54348
21.73250	-0.98849	1.54348
21.73656	-0.98849	1.54348
21.74062	-1.01047	1.54348
21.74467	-1.01047	1.54348
21.74873	-1.03244	1.54348
21.75280	-1.03244	1.54348
21.75691	-1.05441	1.54348
21.76098	-1.05441	1.54348
21.76504	-1.07638	1.54348
21.76911	-1.07638	1.54348
21.77313	-1.09836	1.54348
21.77719	-1.09836	1.54348
21.78124	-1.09836	1.54348
21.78530	-1.12033	1.54348
21.78936	-1.12033	1.54348
21.79341	-1.14230	1.54348
21.79747	-1.14230	1.54348
21.80152	-1.14230	1.54348
21.80558	-1.14230	1.54348
21.80963	-1.16427	1.54348
21.81369	-1.18625	1.54348
21.81775	-1.20822	1.54348
21.82182	-1.20822	1.54348
21.82605	-1.20822	1.54348
21.83010	-1.23019	1.54348
21.83416	-1.23019	1.54348
21.83821	-1.25216	1.54348
21.84227	-1.25216	1.54348
21.84633	-1.25216	1.54348
21.85038	-1.27414	1.54348
21.85445	-1.29611	1.54348
21.85850	-1.29611	1.54348
21.86256	-1.29611	1.54348
21.86662	-1.29611	1.54348
21.87067	-1.31808	1.54348
21.87473	-1.34006	1.54348
21.87878	-1.34006	1.54348
21.88284	-1.36203	1.54348
21.88689	-1.36203	1.54348
21.89095	-1.36203	1.54348
21.89500	-1.36203	1.54348
21.89906	-1.38400	1.54348
21.90312	-1.38400	1.54348
21.90717	-1.40597	1.54348
21.91123	-1.40597	1.54348
21.91528	-1.42795	1.54348
21.91934	-1.42795	1.54348
21.92339	-1.44992	1.54348
21.92763	-1.44992	1.54348
21.93169	-1.44992	1.54348
21.93575	-1.47189	1.54348
21.93980	-1.47189	1.54348
21.94386	-1.49386	1.54348
21.94792	-1.51584	1.54348
21.95197	-1.51584	1.54348
21.95604	-1.51584	1.54348
21.96009	-1.51584	1.54348
21.96416	-1.53781	1.54348
21.96822	-1.53781	1.54348
21.97227	-1.53781	1.54348
21.97633	-1.55978	1.54348
21.98038	-1.58175	1.54348
21.98443	-1.58175	1.54348
21.98848	-1.58175	1.54348
21.99254	-1.58175	1.54348
21.99660	-1.60373	1.54348
22.00065	-1.62570	1.54348
22.00471	-1.62570	1.54348
22.00876	-1.62570	1.54348
22.01282	-1.64767	1.54348
22.01687	-1.64767	1.54348
22.02093	-1.64767	1.54348
22.02498	-1.66964	1.54348
22.02922	-1.66964	1.54348
22.03327	-1.69162	1.54348
22.03733	-1.69162	1.54348
22.04138	-1.71359	1.54348
22.04544	-1.71359	1.54348
22.04949	-1.71359	1.54348
22.05355	-1.73556	1.54348
22.05761	-1.73556	1.54348
22.06167	-1.73556	1.54348
22.06572	-1.73556	1.54348
22.06978	-1.75754	1.54348
22.07383	-1.77951	1.54348
22.07789	-1.77951	1.54348
22.08194	-1.77951	1.54348
22.08600	-1.77951	1.54348
22.09005	-1.80148	1.54348
22.09411	-1.80148	1.54348
22.09816	-1.82345	1.54348
22.10222	-1.82345	1.54348
22.10627	-1.82345	1.54348
22.11033	-1.82345	1.54348
22.11438	-1.84543	1.54348
22.11843	-1.84543	1.54348
22.12249	-1.84543	1.54348
22.12654	-1.86740	1.54348
22.13078	-1.86740	1.54348
22.13483	-1.88937	1.54348
22.13889	-1.88937	1.54348
22.14294	-1.88937	1.54348
22.14700	-1.88937	1.54348
22.15106	-1.91134	1.54348
22.15511	-1.91134	1.54348
22.15917	-1.93332	1.54348
22.16323	-1.93332	1.54348
22.16812	-1.95529	1.54348
22.17217	-1.95529	1.54348
22.17623	-1.95529	1.54348
22.18029	-1.95529	1.54348
22.18434	-1.97726	1.54348
22.18840	-1.97726	1.54348
22.19245	-1.97726	1.54348
22.19651	-1.97726	1.54348
22.20056	-1.99923	1.54348
22.20462	-1.99923	1.54348
22.20867	-1.99923	1.54348
22.21273	-2.02121	1.54348
22.21678	-2.02121	1.54348
22.22083	-2.02121	1.54348
22.22489	-2.04318	1.54348
22.22894	-2.04318	1.54348
22.23318	-2.04318	1.54348
22.23723	-2.06515	1.54348
22.24129	-2.06515	1.54348
22.24534	-2.06515	1.54348
22.24940	-2.08713	1.54348
22.25345	-2.08713	1.54348
22.25751	-2.08713	1.54348
22.26157	-2.08713	1.54348
22.26562	-2.10910	1.54348
22.26968	-2.10910	1.54348
22.27373	-2.13107	1.54348
22.27779	-2.13107	1.54348
22.28185	-2.13107	1.54348
22.28590	-2.13107	1.54348
22.28996	-2.15304	1.54348
22.29401	-2.15304	1.54348
22.29807	-2.15304	1.54348
22.30526	-2.17502	1.54348
22.30934	-2.17502	1.54348
22.31349	-2.17502	1.54348
22.31755	-2.17502	1.54348
22.32161	-2.19699	1.54348
22.32567	-2.19699	1.54348
22.32973	-2.21896	1.54348
22.33379	-2.21896	1.54348
22.33802	-2.21896	1.54348
22.34208	-2.21896	1.54348
22.34613	-2.21896	1.54348
22.35019	-2.24093	1.54348
22.35425	-2.24093	1.54348
22.35830	-2.24093	1.54348
22.36236	-2.24093	1.54348
22.36642	-2.26291	1.54348
22.37048	-2.26291	1.54348
22.37454	-2.26291	1.54348
22.37859	-2.26291	1.54348
22.38265	-2.28488	1.54348
22.38670	-2.28488	1.54348
22.39075	-2.28488	1.54348
22.39481	-2.28488	1.54348
22.39886	-2.28488	1.54348
22.40292	-2.28488	1.54348
22.40697	-2.30685	1.54348
22.41103	-2.30685	1.54348
22.41510	-2.30685	1.54348
22.41918	-2.32882	1.54348
22.42324	-2.32882	1.54348
22.42729	-2.32882	1.54348
22.43135	-2.32882	1.54348
22.43541	-2.32882	1.54348
22.43964	-2.32882	1.54348
22.44370	-2.32882	1.54348
22.44775	-2.35080	1.54348
22.45181	-2.35080	1.54348
22.45586	-2.35080	1.54348
22.45992	-2.35080	1.54348
22.46397	-2.35080	1.54348
22.46804	-2.35080	1.54348
22.47209	-2.37277	1.54348
22.47615	-2.37277	1.54348
22.48020	-2.37277	1.54348
22.48426	-2.37277	1.54348
22.48831	-2.37277	1.54348
22.49237	-2.37277	1.54348
22.49642	-2.39474	1.54348
22.50048	-2.39474	1.54348
22.50453	-2.39474	1.54348
22.50859	-2.39474	1.54348
22.51264	-2.39474	1.54348
22.51670	-2.39474	1.54348
22.52075	-2.39474	1.54348
22.52480	-2.39474	1.54348
22.52886	-2.39474	1.54348
22.53291	-2.41672	1.54348
22.53697	-2.41672	1.54348
22.54121	-2.41672	1.54348
22.54527	-2.41672	1.54348
22.54933	-2.41672	1.54348
22.55338	-2.41672	1.54348
22.55744	-2.43869	1.54348
22.56149	-2.41672	1.54348
22.56555	-2.43869	1.54348
22.56961	-2.43869	1.54348
22.57366	-2.43869	1.54348
22.57772	-2.43869	1.54348
22.58178	-2.43869	1.54348
22.58583	-2.43869	1.54348
22.58989	-2.43869	1.54348
22.59394	-2.43869	1.54348
22.59800	-2.43869	1.54348
22.60205	-2.43869	1.54348
22.60611	-2.43869	1.54348
22.61016	-2.43869	1.54348
22.61422	-2.43869	1.54348
22.61831	-2.43869	1.54348
22.62242	-2.46066	1.54348
22.62647	-2.46066	1.54348
22.63053	-2.46066	1.54348
22.63464	-2.46066	1.54348
22.63872	-2.46066	1.54348
22.64304	-2.46066	1.54348
22.64711	-2.46066	1.54348
22.65117	-2.46066	1.54348
22.65523	-2.46066	1.54348
22.65929	-2.46066	1.54348
22.66334	-2.46066	1.54348
22.66740	-2.46066	1.54348
22.67146	-2.46066	1.54348
22.67552	-2.43869	1.54348
22.67958	-2.43869	1.54348
22.68363	-2.46066	1.54348
22.68769	-2.46066	1.54348
22.69174	-2.46066	1.54348
22.69580	-2.46066	1.54348
22.69986	-2.46066	1.54348
22.70391	-2.46066	1.54348
22.70797	-2.46066	1.54348
22.71202	-2.46066	1.54348
22.71608	-2.46066	1.54348
22.72013	-2.46066	1.54348
22.72419	-2.46066	1.54348
22.72824	-2.46066	1.54348
22.73230	-2.46066	1.54348
22.73635	-2.46066	1.54348
22.74041	-2.46066	1.54348
22.74464	-2.46066	1.54348
22.74874	-2.43869	1.54348
22.75279	-2.46066	1.54348
22.75685	-2.43869	1.54348
22.76091	-2.43869	1.54348
22.76497	-2.43869	1.54348
22.76902	-2.43869	1.54348
22.77308	-2.43869	1.54348
22.77713	-2.43869	1.54348
22.78119	-2.43869	1.54348
22.78525	-2.43869	1.54348
22.78930	-2.43869	1.54348
22.79336	-2.43869	1.54348
22.79742	-2.43869	1.54348
22.80147	-2.43869	1.54348
22.80553	-2.43869	1.54348
22.80958	-2.43869	1.54348
22.81364	-2.43869	1.54348
22.81769	-2.43869	1.54348
22.82175	-2.41672	1.54348
22.82580	-2.41672	1.54348
22.82986	-2.41672	1.54348
22.83391	-2.41672	1.54348
22.83797	-2.41672	1.54348
22.84202	-2.41672	1.54348
22.84625	-2.39474	1.54348
22.85031	-2.39474	1.54348
22.85437	-2.39474	1.54348
22.85842	-2.39474	1.54348
22.86248	-2.39474	1.54348
22.86653	-2.39474	1.54348
22.87059	-2.39474	1.54348
22.87465	-2.39474	1.54348
22.87871	-2.39474	1.54348
22.88276	-2.37277	1.54348
22.88682	-2.37277	1.54348
22.89087	-2.37277	1.54348
22.89492	-2.37277	1.54348
22.89898	-2.37277	1.54348
22.90303	-2.35080	1.54348
22.90709	-2.37277	1.54348
22.91114	-2.35080	1.54348
22.91520	-2.35080	1.54348
22.91925	-2.35080	1.54348
22.92331	-2.35080	1.54348
22.92736	-2.35080	1.54348
22.93141	-2.32882	1.54348
22.93547	-2.32882	1.54348
22.93952	-2.32882	1.54348
22.94358	-2.32882	1.54348
22.94781	-2.32882	1.54348
22.95187	-2.30685	1.54348
22.95593	-2.30685	1.54348
22.95998	-2.30685	1.54348
22.96404	-2.30685	1.54348
22.96809	-2.30685	1.54348
22.97215	-2.28488	1.54348
22.97621	-2.28488	1.54348
22.98026	-2.28488	1.54348
22.98432	-2.26291	1.54348
22.98837	-2.26291	1.54348
22.99243	-2.26291	1.54348
22.99648	-2.26291	1.54348
23.00054	-2.26291	1.54348
23.00459	-2.24093	1.54348
23.00865	-2.24093	1.54348
23.01270	-2.24093	1.54348
23.01675	-2.24093	1.54348
23.02081	-2.24093	1.54348
23.02487	-2.21896	1.54348
23.02892	-2.21896	1.54348
23.03298	-2.21896	1.54348
23.03703	-2.19699	1.54348
23.04109	-2.19699	1.54348
23.04513	-2.19699	1.54348
23.04937	-2.19699	1.54348
23.05343	-2.17502	1.54348
23.05749	-2.17502	1.54348
23.06154	-2.17502	1.54348
23.06560	-2.17502	1.54348
23.06965	-2.15304	1.54348
23.07371	-2.15304	1.54348
23.07777	-2.15304	1.54348
23.08182	-2.13107	1.54348
23.08588	-2.13107	1.54348
23.08993	-2.13107	1.54348
23.09399	-2.13107	1.54348
23.09804	-2.10910	1.54348
23.10210	-2.10910	1.54348
23.10615	-2.10910	1.54348
23.11021	-2.08713	1.54348
23.11426	-2.08713	1.54348
23.11832	-2.08713	1.54348
23.12238	-2.06515	1.54348
23.12643	-2.06515	1.54348
23.13049	-2.06515	1.54348
23.13455	-2.06515	1.54348
23.13860	-2.06515	1.54348
23.14266	-2.04318	1.54348
23.14672	-2.04318	1.54348
23.15100	-2.04318	1.54348
23.15506	-2.02121	1.54348
23.15912	-2.02121	1.54348
23.16318	-2.02121	1.54348
23.16724	-1.99923	1.54348
23.17130	-1.99923	1.54348
23.17536	-1.97726	1.54348
23.17944	-1.99923	1.54348
23.18351	-1.97726	1.54348
23.18756	-1.97726	1.54348
23.19162	-1.97726	1.54348
23.19568	-1.97726	1.54348
23.19973	-1.95529	1.54348
23.20379	-1.95529	1.54348
23.20785	-1.93332	1.54348
23.21190	-1.93332	1.54348
23.21596	-1.93332	1.54348
23.22002	-1.93332	1.54348
23.22408	-1.91134	1.54348
23.22813	-1.91134	1.54348
23.23219	-1.91134	1.54348
23.23625	-1.88937	1.54348
23.24030	-1.88937	1.54348
23.24436	-1.88937	1.54348
23.24842	-1.86740	1.54348
23.25272	-1.86740	1.54348
23.25678	-1.86740	1.54348
23.26084	-1.84543	1.54348
23.26490	-1.84543	1.54348
23.26895	-1.82345	1.54348
23.27301	-1.84543	1.54348
23.27707	-1.84543	1.54348
23.28114	-1.82345	1.54348
23.28520	-1.80148	1.54348
23.28926	-1.80148	1.54348
23.29332	-1.80148	1.54348
23.29737	-1.80148	1.54348
23.30143	-1.80148	1.54348
23.30549	-1.77951	1.54348
23.30954	-1.75754	1.54348
23.31360	-1.75754	1.54348
23.31766	-1.75754	1.54348
23.32171	-1.75754	1.54348
23.32577	-1.73556	1.54348
23.32983	-1.73556	1.54348
23.33388	-1.73556	1.54348
23.33794	-1.71359	1.54348
23.34200	-1.71359	1.54348
23.34605	-1.71359	1.54348
23.35012	-1.69162	1.54348
23.35442	-1.69162	1.54348
23.35848	-1.69162	1.54348
23.36253	-1.69162	1.54348
23.36659	-1.66964	1.54348
23.37065	-1.66964	1.54348
23.37471	-1.64767	1.54348
23.37876	-1.64767	1.54348
23.38283	-1.62570	1.54348
23.38689	-1.62570	1.54348
23.39094	-1.62570	1.54348
23.39500	-1.62570	1.54348
23.39906	-1.60373	1.54348
23.40312	-1.60373	1.54348
23.40718	-1.60373	1.54348
23.41124	-1.58175	1.54348
23.41530	-1.58175	1.54348
23.41936	-1.58175	1.54348
23.42342	-1.55978	1.54348
23.42748	-1.55978	1.54348
23.43154	-1.55978	1.54348
23.43560	-1.55978	1.54348
23.43966	-1.53781	1.54348
23.44371	-1.53781	1.54348
23.44777	-1.53781	1.54348
23.45183	-1.51584	1.54348
23.45611	-1.51584	1.54348
23.46017	-1.49386	1.54348
23.46422	-1.49386	1.54348
23.46828	-1.49386	1.54348
23.47234	-1.47189	1.54348
23.47640	-1.49386	1.54348
23.48046	-1.47189	1.54348
23.48452	-1.44992	1.54348
23.48858	-1.44992	1.54348
23.49264	-1.44992	1.54348
23.49670	-1.44992	1.54348
23.50076	-1.42795	1.54348
23.50481	-1.42795	1.54348
23.50887	-1.40597	1.54348
23.51293	-1.40597	1.54348
23.51699	-1.40597	1.54348
23.52105	-1.40597	1.54348
23.52510	-1.38400	1.54348
23.52914	-1.38400	1.54348
23.53320	-1.38400	1.54348
23.53726	-1.38400	1.54348
23.54132	-1.36203	1.54348
23.54538	-1.36203	1.54348
23.54944	-1.36203	1.54348
23.55350	-1.36203	1.54348
23.55778	-1.34006	1.54348
23.56184	-1.34006	1.54348
23.56590	-1.34006	1.54348
23.56995	-1.31808	1.54348
23.57401	-1.31808	1.54348
23.57807	-1.31808	1.54348
23.58213	-1.31808	1.54348
23.58620	-1.29611	1.54348
23.59026	-1.29611	1.54348
23.59432	-1.29611	1.54348
23.59837	-1.29611	1.54348
23.60243	-1.27414	1.54348
23.60649	-1.27414	1.54348
23.61055	-1.27414	1.54348
23.61461	-1.27414	1.54348
23.61867	-1.27414	1.54348
23.62272	-1.25216	1.54348
23.62678	-1.25216	1.54348
23.63084	-1.23019	1.54348
23.63490	-1.23019	1.54348
23.63895	-1.23019	1.54348
23.64301	-1.23019	1.54348
23.64707	-1.20822	1.54348
23.65113	-1.20822	1.54348
23.65519	-1.20822	1.54348
23.66021	-1.20822	1.54348
23.66429	-1.20822	1.54348
23.66835	-1.18625	1.54348
23.67241	-1.18625	1.54348
23.67648	-1.18625	1.54348
23.68054	-1.18625	1.54348
23.68460	-1.18625	1.54348
23.68867	-1.18625	1.54348
23.69273	-1.16427	1.54348
23.69679	-1.16427	1.54348
23.70084	-1.14230	1.54348
23.70490	-1.14230	1.54348
23.70896	-1.14230	1.54348
23.71302	-1.14230	1.54348
23.71708	-1.14230	1.54348
23.72113	-1.14230	1.54348
23.72519	-1.12033	1.54348
23.72925	-1.12033	1.54348
23.73331	-1.12033	1.54348
23.73736	-1.12033	1.54348
23.74142	-1.12033	1.54348
23.74548	-1.12033	1.54348
23.74953	-1.12033	1.54348
23.75359	-1.12033	1.54348
23.75765	-1.09836	1.54348
23.76192	-1.09836	1.54348
23.76597	-1.09836	1.54348
23.77003	-1.09836	1.54348
23.77409	-1.09836	1.54348
23.77815	-1.09836	1.54348
23.78221	-1.07638	1.54348
23.78626	-1.07638	1.54348
23.79033	-1.07638	1.54348
23.79439	-1.07638	1.54348
23.79845	-1.07638	1.54348
23.80250	-1.07638	1.54348
23.80656	-1.07638	1.54348
23.81062	-1.05441	1.54348
23.81468	-1.05441	1.54348
23.81874	-1.05441	1.54348
23.82279	-1.05441	1.54348
23.82685	-1.05441	1.54348
23.83091	-1.05441	1.54348
23.83496	-1.05441	1.54348
23.83902	-1.05441	1.54348
23.84308	-1.03244	1.54348
23.84714	-1.05441	1.54348
23.85120	-1.05441	1.54348
23.85525	-1.03244	1.54348
23.85931	-1.03244	1.54348
23.86360	-1.05441	1.54348
23.86766	-1.03244	1.54348
23.87172	-1.03244	1.54348
23.87577	-1.03244	1.54348
23.87983	-1.03244	1.54348
23.88389	-1.03244	1.54348
23.88795	-1.03244	1.54348
23.89201	-1.03244	1.54348
23.89607	-1.03244	1.54348
23.90013	-1.03244	1.54348
23.90418	-1.03244	1.54348
23.90824	-1.03244	1.54348
23.91231	-1.03244	1.54348
23.91636	-1.01047	1.54348
23.92042	-1.03244	1.54348
23.92448	-1.03244	1.54348
23.92854	-1.03244	1.54348
23.93259	-1.01047	1.54348
23.93665	-1.01047	1.54348
23.94071	-1.03244	1.54348
23.94476	-1.01047	1.54348
23.94882	-1.01047	1.54348
23.95288	-1.01047	1.54348
23.95694	-1.01047	1.54348
23.96100	-1.01047	1.54348
23.96530	-1.03244	1.54348
23.96936	-1.03244	1.54348
23.97342	-1.01047	1.54348
23.97748	-1.01047	1.54348
23.98154	-1.01047	1.54348
23.98559	-1.01047	1.54348
23.98965	-1.01047	1.54348
23.99371	-1.01047	1.54348
23.99777	-1.03244	1.54348
24.00183	-1.03244	1.54348
24.00589	-1.03244	1.54348
24.00994	-1.01047	1.54348
24.01400	-1.03244	1.54348
24.01806	-1.03244	1.54348
24.02212	-1.03244	1.54348
24.02617	-1.03244	1.54348
24.03023	-1.03244	1.54348
24.03429	-1.03244	1.54348
24.03834	-1.01047	1.54348
24.04240	-1.03244	1.54348
24.04646	-1.03244	1.54348
24.05052	-1.03244	1.54348
24.05458	-1.03244	1.54348
24.05864	-1.03244	1.54348
24.06269	-1.03244	1.54348
24.06698	-1.03244	1.54348
24.07104	-1.03244	1.54348
24.07510	-1.03244	1.54348
24.07916	-1.03244	1.54348
24.08321	-1.03244	1.54348
24.08727	-1.03244	1.54348
24.09194	-1.03244	1.54348
24.09600	-1.03244	1.54348
24.10006	-1.03244	1.54348
24.10412	-1.05441	1.54348
24.10818	-1.05441	1.54348
24.11224	-1.05441	1.54348
24.11632	-1.05441	1.54348
24.12038	-1.05441	1.54348
24.12443	-1.05441	1.54348
24.12849	-1.05441	1.54348
24.13254	-1.05441	1.54348
24.13660	-1.05441	1.54348
24.14066	-1.07638	1.54348
24.14471	-1.07638	1.54348
24.14877	-1.07638	1.54348
24.15283	-1.07638	1.54348
24.15688	-1.07638	1.54348
24.16094	-1.07638	1.54348
24.16500	-1.07638	1.54348
24.16926	-1.09836	1.54348
24.17332	-1.09836	1.54348
24.17737	-1.09836	1.54348
24.18143	-1.09836	1.54348
24.18549	-1.09836	1.54348
24.18954	-1.09836	1.54348
24.19360	-1.09836	1.54348
24.19766	-1.09836	1.54348
24.20172	-1.12033	1.54348
24.20577	-1.12033	1.54348
24.20983	-1.12033	1.54348
24.21388	-1.12033	1.54348
24.21794	-1.12033	1.54348
24.22200	-1.12033	1.54348
24.22606	-1.12033	1.54348
24.23012	-1.12033	1.54348
24.23417	-1.12033	1.54348
24.23823	-1.14230	1.54348
24.24229	-1.14230	1.54348
24.24634	-1.14230	1.54348
24.25040	-1.14230	1.54348
24.25446	-1.14230	1.54348
24.25852	-1.16427	1.54348
24.26257	-1.16427	1.54348
24.26663	-1.16427	1.54348
24.27092	-1.16427	1.54348
24.27498	-1.16427	1.54348
24.27904	-1.18625	1.54348
24.28310	-1.18625	1.54348
24.28715	-1.18625	1.54348
24.29121	-1.18625	1.54348
24.29527	-1.18625	1.54348
24.29933	-1.18625	1.54348
24.30339	-1.18625	1.54348
24.30818	-1.20822	1.54348
24.31224	-1.20822	1.54348
24.31630	-1.20822	1.54348
24.32036	-1.20822	1.54348
24.32442	-1.20822	1.54348
24.32848	-1.20822	1.54348
24.33254	-1.23019	1.54348
24.33659	-1.23019	1.54348
24.34065	-1.23019	1.54348
24.34471	-1.23019	1.54348
24.34877	-1.23019	1.54348
24.35283	-1.23019	1.54348
24.35689	-1.25216	1.54348
24.36094	-1.25216	1.54348
24.36500	-1.25216	1.54348
24.36906	-1.25216	1.54348
24.37335	-1.25216	1.54348
24.37741	-1.25216	1.54348
24.38146	-1.25216	1.54348
24.38552	-1.27414	1.54348
24.38958	-1.27414	1.54348
24.39364	-1.27414	1.54348
24.39769	-1.27414	1.54348
24.40176	-1.27414	1.54348
24.40582	-1.27414	1.54348
24.40988	-1.29611	1.54348
24.41393	-1.29611	1.54348
24.41800	-1.29611	1.54348
24.42206	-1.29611	1.54348
24.42612	-1.29611	1.54348
24.43017	-1.29611	1.54348
24.43423	-1.29611	1.54348
24.43829	-1.31808	1.54348
24.44234	-1.31808	1.54348
24.44640	-1.31808	1.54348
24.45046	-1.31808	1.54348
24.45451	-1.31808	1.54348
24.45857	-1.31808	1.54348
24.46263	-1.31808	1.54348
24.46669	-1.31808	1.54348
24.47075	-1.31808	1.54348
24.47503	-1.34006	1.54348
24.47909	-1.34006	1.54348
24.48315	-1.34006	1.54348
24.48720	-1.34006	1.54348
24.49126	-1.34006	1.54348
24.49532	-1.34006	1.54348
24.49937	-1.34006	1.54348
24.50344	-1.34006	1.54348
24.50750	-1.34006	1.54348
24.51156	-1.36203	1.54348
24.51562	-1.34006	1.54348
24.51969	-1.36203	1.54348
24.52374	-1.36203	1.54348
24.52780	-1.36203	1.54348
24.53186	-1.36203	1.54348
24.53591	-1.36203	1.54348
24.53997	-1.36203	1.54348
24.54403	-1.36203	1.54348
24.54808	-1.36203	1.54348
24.55215	-1.36203	1.54348
24.55620	-1.38400	1.54348
24.56026	-1.36203	1.54348
24.56432	-1.36203	1.54348
24.56838	-1.38400	1.54348
24.57243	-1.38400	1.54348
24.57672	-1.38400	1.54348
24.58079	-1.38400	1.54348
24.58484	-1.38400	1.54348
24.58890	-1.38400	1.54348
24.59296	-1.38400	1.54348
24.59702	-1.38400	1.54348
24.60107	-1.38400	1.54348
24.60515	-1.38400	1.54348
24.60921	-1.38400	1.54348
24.61327	-1.38400	1.54348
24.61732	-1.38400	1.54348
24.62138	-1.38400	1.54348
24.62544	-1.38400	1.54348
24.62950	-1.38400	1.54348
24.63355	-1.38400	1.54348
24.63761	-1.38400	1.54348
24.64167	-1.38400	1.54348
24.64573	-1.40597	1.54348
24.64979	-1.38400	1.54348
24.65385	-1.38400	1.54348
24.65791	-1.38400	1.54348
24.66197	-1.38400	1.54348
24.66603	-1.38400	1.54348
24.67008	-1.40597	1.54348
24.67414	-1.38400	1.54348
24.67843	-1.38400	1.54348
24.68249	-1.38400	1.54348
24.68655	-1.38400	1.54348
24.69061	-1.40597	1.54348
24.69466	-1.38400	1.54348
24.69872	-1.38400	1.54348
24.70278	-1.38400	1.54348
24.70685	-1.38400	1.54348
24.71091	-1.38400	1.54348
24.71497	-1.38400	1.54348
24.71903	-1.38400	1.54348
24.72308	-1.38400	1.54348
24.72714	-1.38400	1.54348
24.73120	-1.38400	1.54348
24.73526	-1.38400	1.54348
24.73931	-1.38400	1.54348
24.74337	-1.38400	1.54348
24.74743	-1.38400	1.54348
24.75149	-1.38400	1.54348
24.75555	-1.38400	1.54348
24.75961	-1.38400	1.54348
24.76366	-1.38400	1.54348
24.76772	-1.38400	1.54348
24.77178	-1.38400	1.54348
24.77584	-1.38400	1.54348
24.78012	-1.36203	1.54348
24.78418	-1.38400	1.54348
24.78824	-1.38400	1.54348
24.79230	-1.38400	1.54348
24.79635	-1.36203	1.54348
24.80041	-1.36203	1.54348
24.80447	-1.36203	1.54348
24.80853	-1.36203	1.54348
24.81259	-1.36203	1.54348
24.81665	-1.36203	1.54348
24.82071	-1.36203	1.54348
24.82478	-1.36203	1.54348
24.82883	-1.36203	1.54348
24.83289	-1.36203	1.54348
24.83695	-1.36203	1.54348
24.84100	-1.34006	1.54348
24.84506	-1.36203	1.54348
24.84912	-1.36203	1.54348
24.85315	-1.36203	1.54348
24.85721	-1.34006	1.54348
24.86126	-1.34006	1.54348
24.86532	-1.34006	1.54348
24.86938	-1.34006	1.54348
24.87343	-1.34006	1.54348
24.87749	-1.34006	1.54348
24.88178	-1.34006	1.54348
24.88584	-1.34006	1.54348
24.88990	-1.34006	1.54348
24.89396	-1.34006	1.54348
24.89801	-1.34006	1.54348
24.90207	-1.31808	1.54348
24.90613	-1.31808	1.54348
24.91019	-1.31808	1.54348
24.91425	-1.31808	1.54348
24.91831	-1.31808	1.54348
24.92237	-1.31808	1.54348
24.92643	-1.31808	1.54348
24.93048	-1.29611	1.54348
24.93454	-1.31808	1.54348
24.93860	-1.31808	1.54348
24.94265	-1.31808	1.54348
24.94671	-1.29611	1.54348
24.95077	-1.29611	1.54348
24.95483	-1.29611	1.54348
24.95889	-1.29611	1.54348
24.96294	-1.29611	1.54348
24.96700	-1.29611	1.54348
24.97106	-1.29611	1.54348
24.97511	-1.27414	1.54348
24.97917	-1.27414	1.54348
24.98346	-1.27414	1.54348
24.98752	-1.29611	1.54348
24.99157	-1.29611	1.54348
24.99563	-1.27414	1.54348
24.99969	-1.27414	1.54348
25.00374	-1.27414	1.54348
25.00780	-1.25216	1.54348
25.01187	-1.27414	1.54348
25.01593	-1.27414	1.54348
25.01998	-1.27414	1.54348
25.02404	-1.25216	1.54348
25.02810	-1.25216	1.54348
25.03215	-1.25216	1.54348
25.03621	-1.25216	1.54348
25.04027	-1.25216	1.54348
25.04432	-1.25216	1.54348
25.04838	-1.25216	1.54348
25.05244	-1.25216	1.54348
25.05650	-1.23019	1.54348
25.06056	-1.25216	1.54348
25.06462	-1.25216	1.54348
25.06867	-1.23019	1.54348
25.07273	-1.23019	1.54348
25.07679	-1.23019	1.54348
25.08084	-1.23019	1.54348
25.08513	-1.23019	1.54348
25.08919	-1.23019	1.54348
25.09325	-1.23019	1.54348
25.09731	-1.20822	1.54348
25.10136	-1.20822	1.54348
25.10542	-1.20822	1.54348
25.10948	-1.20822	1.54348
25.11354	-1.20822	1.54348
25.11760	-1.20822	1.54348
25.12166	-1.20822	1.54348
25.12571	-1.20822	1.54348
25.12977	-1.20822	1.54348
25.13383	-1.20822	1.54348
25.13789	-1.18625	1.54348
25.14194	-1.18625	1.54348
25.14600	-1.18625	1.54348
25.15006	-1.18625	1.54348
25.15412	-1.18625	1.54348
25.15818	-1.18625	1.54348
25.16224	-1.18625	1.54348
25.16630	-1.18625	1.54348
25.17035	-1.18625	1.54348
25.17441	-1.18625	1.54348
25.17848	-1.16427	1.54348
25.18253	-1.16427	1.54348
25.18681	-1.16427	1.54348
25.19087	-1.16427	1.54348
25.19493	-1.16427	1.54348
25.19899	-1.16427	1.54348
25.20304	-1.16427	1.54348
25.20710	-1.16427	1.54348
25.21116	-1.16427	1.54348
25.21523	-1.16427	1.54348
25.21929	-1.16427	1.54348
25.22334	-1.16427	1.54348
25.22741	-1.16427	1.54348
25.23147	-1.16427	1.54348
25.23553	-1.16427	1.54348
25.23959	-1.16427	1.54348
25.24364	-1.14230	1.54348
25.24770	-1.14230	1.54348
25.25179	-1.14230	1.54348
25.25585	-1.14230	1.54348
25.25991	-1.14230	1.54348
25.26397	-1.14230	1.54348
25.26802	-1.14230	1.54348
25.27208	-1.14230	1.54348
25.27614	-1.14230	1.54348
25.28019	-1.14230	1.54348
25.28425	-1.14230	1.54348
25.28854	-1.14230	1.54348
25.29260	-1.14230	1.54348
25.29665	-1.14230	1.54348
25.30071	-1.14230	1.54348
25.30477	-1.14230	1.54348
25.30883	-1.14230	1.54348
25.31288	-1.14230	1.54348
25.31695	-1.14230	1.54348
25.32101	-1.14230	1.54348
25.32506	-1.14230	1.54348
25.32916	-1.14230	1.54348
25.33322	-1.14230	1.54348
25.33728	-1.14230	1.54348
25.34133	-1.14230	1.54348
25.34540	-1.14230	1.54348
25.34945	-1.14230	1.54348
25.35351	-1.14230	1.54348
25.35757	-1.14230	1.54348
25.36163	-1.14230	1.54348
25.36569	-1.14230	1.54348
25.36974	-1.14230	1.54348
25.37380	-1.14230	1.54348
25.37786	-1.14230	1.54348
25.38192	-1.14230	1.54348
25.38598	-1.14230	1.54348
25.39027	-1.14230	1.54348
25.39433	-1.14230	1.54348
25.39839	-1.14230	1.54348
25.40245	-1.14230	1.54348
25.40651	-1.14230	1.54348
25.41057	-1.14230	1.54348
25.41463	-1.14230	1.54348
25.41871	-1.14230	1.54348
25.42277	-1.14230	1.54348
25.42683	-1.16427	1.54348
25.43089	-1.14230	1.54348
25.43495	-1.14230	1.54348
25.43900	-1.16427	1.54348
25.44306	-1.14230	1.54348
25.44712	-1.16427	1.54348
25.45118	-1.14230	1.54348
25.45524	-1.14230	1.54348
25.45930	-1.14230	1.54348
25.46335	-1.16427	1.54348
25.46741	-1.16427	1.54348
25.47147	-1.16427	1.54348
25.47552	-1.16427	1.54348
25.47958	-1.16427	1.54348
25.48363	-1.16427	1.54348
25.48769	-1.16427	1.54348
25.49197	-1.18625	1.54348
25.49603	-1.18625	1.54348
25.50009	-1.18625	1.54348
25.50416	-1.18625	1.54348
25.50821	-1.18625	1.54348
25.51227	-1.18625	1.54348
25.51633	-1.18625	1.54348
25.52040	-1.18625	1.54348
25.52446	-1.18625	1.54348
25.52852	-1.18625	1.54348
25.53258	-1.18625	1.54348
25.53664	-1.18625	1.54348
25.54070	-1.18625	1.54348
25.54475	-1.18625	1.54348
25.54881	-1.20822	1.54348
25.55287	-1.18625	1.54348
25.55693	-1.20822	1.54348
25.56098	-1.20822	1.54348
25.56504	-1.20822	1.54348
25.56910	-1.20822	1.54348
25.57314	-1.20822	1.54348
25.57719	-1.20822	1.54348
25.58125	-1.20822	1.54348
25.58531	-1.23019	1.54348
25.58936	-1.20822	1.54348
25.59365	-1.20822	1.54348
25.59771	-1.23019	1.54348
25.60177	-1.23019	1.54348
25.60583	-1.23019	1.54348
25.60989	-1.23019	1.54348
25.61395	-1.23019	1.54348
25.61800	-1.23019	1.54348
25.62208	-1.23019	1.54348
25.62614	-1.23019	1.54348
25.63020	-1.23019	1.54348
25.63426	-1.25216	1.54348
25.63832	-1.25216	1.54348
25.64238	-1.25216	1.54348
25.64653	-1.25216	1.54348
25.65059	-1.25216	1.54348
25.65465	-1.27414	1.54348
25.65871	-1.27414	1.54348
25.66277	-1.27414	1.54348
25.66683	-1.27414	1.54348
25.67088	-1.27414	1.54348
25.67494	-1.27414	1.54348
25.67900	-1.27414	1.54348
25.68306	-1.27414	1.54348
25.68711	-1.29611	1.54348
25.69117	-1.29611	1.54348
25.69545	-1.29611	1.54348
25.69951	-1.29611	1.54348
25.70357	-1.29611	1.54348
25.70763	-1.31808	1.54348
25.71169	-1.31808	1.54348
25.71575	-1.31808	1.54348
25.71980	-1.31808	1.54348
25.72389	-1.31808	1.54348
25.72796	-1.31808	1.54348
25.73201	-1.31808	1.54348
25.73607	-1.31808	1.54348
25.74013	-1.34006	1.54348
25.74418	-1.34006	1.54348
25.74824	-1.34006	1.54348
25.75230	-1.36203	1.54348
25.75636	-1.36203	1.54348
25.76042	-1.36203	1.54348
25.76447	-1.36203	1.54348
25.76853	-1.36203	1.54348
25.77259	-1.36203	1.54348
25.77664	-1.36203	1.54348
25.78070	-1.36203	1.54348
25.78476	-1.38400	1.54348
25.78881	-1.38400	1.54348
25.79287	-1.38400	1.54348
25.79717	-1.38400	1.54348
25.80123	-1.38400	1.54348
25.80529	-1.40597	1.54348
25.80935	-1.40597	1.54348
25.81341	-1.40597	1.54348
25.81747	-1.40597	1.54348
25.82152	-1.40597	1.54348
25.82560	-1.40597	1.54348
25.82966	-1.42795	1.54348
25.83372	-1.42795	1.54348
25.83778	-1.42795	1.54348
25.84184	-1.42795	1.54348
25.84589	-1.44992	1.54348
25.84995	-1.44992	1.54348
25.85401	-1.44992	1.54348
25.85807	-1.44992	1.54348
25.86213	-1.44992	1.54348
25.86619	-1.44992	1.54348
25.87024	-1.44992	1.54348
25.87430	-1.47189	1.54348
25.87836	-1.47189	1.54348
25.88241	-1.47189	1.54348
25.88647	-1.47189	1.54348
25.89053	-1.49386	1.54348
25.89458	-1.49386	1.54348
25.89886	-1.49386	1.54348
25.90292	-1.49386	1.54348
25.90698	-1.49386	1.54348
25.91104	-1.49386	1.54348
25.91510	-1.49386	1.54348
25.91916	-1.51584	1.54348
25.92322	-1.51584	1.54348
25.92731	-1.51584	1.54348
25.93137	-1.51584	1.54348
25.93543	-1.53781	1.54348
25.93949	-1.53781	1.54348
25.94355	-1.53781	1.54348
25.94760	-1.53781	1.54348
25.95166	-1.53781	1.54348
25.95572	-1.53781	1.54348
25.95978	-1.53781	1.54348
25.96384	-1.55978	1.54348
25.96789	-1.55978	1.54348
25.97195	-1.55978	1.54348
25.97601	-1.55978	1.54348
25.98006	-1.55978	1.54348
25.98412	-1.58175	1.54348
25.98818	-1.58175	1.54348
25.99223	-1.58175	1.54348
25.99629	-1.58175	1.54348
26.00058	-1.58175	1.54348
26.00464	-1.58175	1.54348
26.00870	-1.58175	1.54348
26.01276	-1.58175	1.54348
26.01682	-1.58175	1.54348
26.02088	-1.60373	1.54348
26.02494	-1.60373	1.54348
26.02902	-1.60373	1.54348
26.03308	-1.60373	1.54348
26.03715	-1.62570	1.54348
26.04120	-1.60373	1.54348
26.04526	-1.60373	1.54348
26.04932	-1.62570	1.54348
26.05337	-1.62570	1.54348
26.05744	-1.62570	1.54348
26.06149	-1.62570	1.54348
26.06555	-1.62570	1.54348
26.06961	-1.62570	1.54348
26.07366	-1.62570	1.54348
26.07772	-1.64767	1.54348
26.08178	-1.64767	1.54348
26.08583	-1.64767	1.54348
26.08989	-1.64767	1.54348
26.09395	-1.64767	1.54348
26.09800	-1.64767	1.54348
26.10229	-1.64767	1.54348
26.10635	-1.64767	1.54348
26.11040	-1.64767	1.54348
26.11447	-1.64767	1.54348
26.11853	-1.64767	1.54348
26.12258	-1.66964	1.54348
26.12664	-1.64767	1.54348
26.13073	-1.66964	1.54348
26.13479	-1.66964	1.54348
26.13886	-1.66964	1.54348
26.14292	-1.66964	1.54348
26.14697	-1.66964	1.54348
26.15103	-1.66964	1.54348
26.15509	-1.66964	1.54348
26.15915	-1.69162	1.54348
26.16321	-1.69162	1.54348
26.16726	-1.66964	1.54348
26.17132	-1.69162	1.54348
26.17537	-1.66964	1.54348
26.17943	-1.69162	1.54348
26.18349	-1.69162	1.54348
26.18754	-1.69162	1.54348
26.19160	-1.69162	1.54348
26.19566	-1.69162	1.54348
26.19971	-1.69162	1.54348
26.20400	-1.69162	1.54348
26.20806	-1.69162	1.54348
26.21212	-1.69162	1.54348
26.21618	-1.69162	1.54348
26.22024	-1.69162	1.54348
26.22430	-1.69162	1.54348
26.22835	-1.69162	1.54348
26.23243	-1.69162	1.54348
26.23650	-1.69162	1.54348
26.24055	-1.69162	1.54348
26.24461	-1.69162	1.54348
26.24867	-1.69162	1.54348
26.25272	-1.69162	1.54348
26.25678	-1.69162	1.54348
26.26084	-1.69162	1.54348
26.26490	-1.69162	1.54348
26.26896	-1.69162	1.54348
26.27302	-1.69162	1.54348
26.27708	-1.69162	1.54348
26.28113	-1.71359	1.54348
26.28519	-1.69162	1.54348
26.28925	-1.69162	1.54348
26.29330	-1.69162	1.54348
26.29736	-1.69162	1.54348
26.30142	-1.71359	1.54348
26.30571	-1.71359	1.54348
26.30977	-1.71359	1.54348
26.31383	-1.69162	1.54348
26.31789	-1.69162	1.54348
26.32195	-1.71359	1.54348
26.32600	-1.69162	1.54348
26.33006	-1.69162	1.54348
26.33414	-1.69162	1.54348
26.33820	-1.69162	1.54348
26.34226	-1.71359	1.54348
26.34632	-1.69162	1.54348
26.35038	-1.69162	1.54348
26.35444	-1.69162	1.54348
26.35849	-1.69162	1.54348
26.36256	-1.71359	1.54348
26.36662	-1.69162	1.54348
26.37067	-1.69162	1.54348
26.37473	-1.69162	1.54348
26.37879	-1.69162	1.54348
26.38285	-1.69162	1.54348
26.38691	-1.69162	1.54348
26.39096	-1.69162	1.54348
26.39502	-1.69162	1.54348
26.39908	-1.69162	1.54348
26.40313	-1.71359	1.54348
26.40741	-1.69162	1.54348
26.41147	-1.69162	1.54348
26.41553	-1.69162	1.54348
26.41960	-1.69162	1.54348
26.42365	-1.69162	1.54348
26.42771	-1.69162	1.54348
26.43177	-1.69162	1.54348
26.43585	-1.69162	1.54348
26.43991	-1.69162	1.54348
26.44396	-1.69162	1.54348
26.44802	-1.69162	1.54348
26.45208	-1.69162	1.54348
26.45613	-1.69162	1.54348
26.46019	-1.69162	1.54348
26.46425	-1.69162	1.54348
26.46831	-1.69162	1.54348
26.47237	-1.69162	1.54348
26.47642	-1.69162	1.54348
26.48048	-1.69162	1.54348
26.48454	-1.69162	1.54348
26.48860	-1.69162	1.54348
26.49265	-1.69162	1.54348
26.49671	-1.69162	1.54348
26.50077	-1.69162	1.54348
26.50482	-1.69162	1.54348
26.50911	-1.69162	1.54348
26.51314	-1.69162	1.54348
26.51719	-1.69162	1.54348
26.52125	-1.69162	1.54348
26.52531	-1.71359	1.54348
26.52938	-1.71359	1.54348
26.53344	-1.69162	1.54348
26.53756	-1.69162	1.54348
26.54167	-1.71359	1.54348
26.54575	-1.69162	1.54348
26.54985	-1.69162	1.54348
26.55392	-1.69162	1.54348
26.55799	-1.71359	1.54348
26.56221	-1.71359	1.54348
26.56628	-1.71359	1.54348
26.57033	-1.69162	1.54348
26.57439	-1.71359	1.54348
26.57845	-1.71359	1.54348
26.58251	-1.71359	1.54348
26.58657	-1.71359	1.54348
26.59062	-1.71359	1.54348
26.59468	-1.71359	1.54348
26.59874	-1.71359	1.54348
26.60279	-1.69162	1.54348
26.60685	-1.71359	1.54348
26.61112	-1.71359	1.54348
26.61518	-1.71359	1.54348
26.61924	-1.71359	1.54348
26.62330	-1.71359	1.54348
26.62735	-1.71359	1.54348
26.63141	-1.71359	1.54348
26.63548	-1.71359	1.54348
26.63955	-1.71359	1.54348
26.64361	-1.71359	1.54348
26.64767	-1.71359	1.54348
26.65172	-1.71359	1.54348
26.65578	-1.71359	1.54348
26.65984	-1.71359	1.54348
26.66389	-1.71359	1.54348
26.66795	-1.71359	1.54348
26.67201	-1.73556	1.54348
26.67606	-1.73556	1.54348
26.68012	-1.73556	1.54348
26.68418	-1.73556	1.54348
26.68823	-1.73556	1.54348
26.69229	-1.73556	1.54348
26.69635	-1.71359	1.54348
26.70040	-1.71359	1.54348
26.70446	-1.71359	1.54348
26.70852	-1.71359	1.54348
26.71280	-1.73556	1.54348
26.71686	-1.73556	1.54348
26.72091	-1.73556	1.54348
26.72497	-1.73556	1.54348
26.72903	-1.73556	1.54348
26.73308	-1.73556	1.54348
26.73714	-1.73556	1.54348
26.74120	-1.73556	1.54348
26.74526	-1.73556	1.54348
26.74932	-1.73556	1.54348
26.75338	-1.75754	1.54348
26.75743	-1.73556	1.54348
26.76149	-1.75754	1.54348
26.76555	-1.75754	1.54348
26.76961	-1.75754	1.54348
26.77366	-1.75754	1.54348
26.77772	-1.75754	1.54348
26.78178	-1.75754	1.54348
26.78583	-1.75754	1.54348
26.78989	-1.75754	1.54348
26.79395	-1.75754	1.54348
26.79801	-1.75754	1.54348
26.80206	-1.75754	1.54348
26.80612	-1.75754	1.54348
26.81018	-1.77951	1.54348
26.81448	-1.77951	1.54348
26.81853	-1.77951	1.54348
26.82259	-1.77951	1.54348
26.82665	-1.77951	1.54348
26.83071	-1.77951	1.54348
26.83476	-1.77951	1.54348
26.83882	-1.77951	1.54348
26.84288	-1.77951	1.54348
26.84694	-1.77951	1.54348
26.85100	-1.77951	1.54348
26.85506	-1.77951	1.54348
26.85912	-1.80148	1.54348
26.86317	-1.80148	1.54348
26.86723	-1.80148	1.54348
26.87129	-1.80148	1.54348
26.87534	-1.80148	1.54348
26.87940	-1.80148	1.54348
26.88346	-1.80148	1.54348
26.88752	-1.80148	1.54348
26.89157	-1.80148	1.54348
26.89563	-1.80148	1.54348
26.89969	-1.80148	1.54348
26.90374	-1.82345	1.54348
26.90780	-1.82345	1.54348
26.91186	-1.82345	1.54348
26.91615	-1.82345	1.54348
26.92021	-1.82345	1.54348
26.92427	-1.82345	1.54348
26.92833	-1.82345	1.54348
26.93238	-1.82345	1.54348
26.93644	-1.82345	1.54348
26.94050	-1.82345	1.54348
26.94456	-1.82345	1.54348
26.94862	-1.82345	1.54348
26.95268	-1.84543	1.54348
26.95673	-1.84543	1.54348
26.96079	-1.84543	1.54348
26.96485	-1.84543	1.54348
26.96891	-1.84543	1.54348
26.97296	-1.84543	1.54348
26.97702	-1.84543	1.54348
26.98108	-1.84543	1.54348
26.98514	-1.84543	1.54348
26.98919	-1.84543	1.54348
26.99325	-1.86740	1.54348
26.99731	-1.86740	1.54348
27.00136	-1.86740	1.54348
27.00542	-1.86740	1.54348
27.00948	-1.86740	1.54348
27.01354	-1.86740	1.54348
27.01783	-1.86740	1.54348
27.02189	-1.86740	1.54348
27.02596	-1.86740	1.54348
27.03002	-1.88937	1.54348
27.03407	-1.88937	1.54348
27.03813	-1.88937	1.54348
27.04219	-1.88937	1.54348
27.04625	-1.88937	1.54348
27.05031	-1.88937	1.54348
27.05437	-1.88937	1.54348
27.05843	-1.88937	1.54348
27.06249	-1.88937	1.54348
27.06654	-1.88937	1.54348
27.07060	-1.88937	1.54348
27.07466	-1.88937	1.54348
27.07871	-1.88937	1.54348
27.08277	-1.88937	1.54348
27.08683	-1.88937	1.54348
27.09088	-1.88937	1.54348
27.09494	-1.88937	1.54348
27.09900	-1.91134	1.54348
27.10305	-1.91134	1.54348
27.10711	-1.91134	1.54348
27.11117	-1.91134	1.54348
27.11523	-1.91134	1.54348
27.11953	-1.91134	1.54348
27.12359	-1.91134	1.54348
27.12764	-1.91134	1.54348
27.13170	-1.91134	1.54348
27.13576	-1.91134	1.54348
27.13982	-1.91134	1.54348
27.14387	-1.91134	1.54348
27.14794	-1.91134	1.54348
27.15199	-1.91134	1.54348
27.15605	-1.91134	1.54348
27.16011	-1.91134	1.54348
27.16417	-1.93332	1.54348
27.16822	-1.91134	1.54348
27.17228	-1.91134	1.54348
27.17634	-1.93332	1.54348
27.18039	-1.93332	1.54348
27.18445	-1.93332	1.54348
27.18851	-1.93332	1.54348
27.19257	-1.93332	1.54348
27.19662	-1.93332	1.54348
27.20068	-1.93332	1.54348
27.20474	-1.93332	1.54348
27.20880	-1.93332	1.54348
27.21286	-1.93332	1.54348
27.21692	-1.93332	1.54348
27.22123	-1.93332	1.54348
27.22528	-1.93332	1.54348
27.22934	-1.93332	1.54348
27.23340	-1.93332	1.54348
27.23746	-1.93332	1.54348
27.24152	-1.93332	1.54348
27.24558	-1.93332	1.54348
27.24964	-1.93332	1.54348
27.25370	-1.93332	1.54348
27.25775	-1.93332	1.54348
27.26181	-1.93332	1.54348
27.26587	-1.93332	1.54348
27.26993	-1.93332	1.54348
27.27426	-1.93332	1.54348
27.27833	-1.95529	1.54348
27.28239	-1.95529	1.54348
27.28644	-1.95529	1.54348
27.29050	-1.93332	1.54348
27.29456	-1.95529	1.54348
27.29862	-1.93332	1.54348
27.30267	-1.93332	1.54348
27.30673	-1.95529	1.54348
27.31079	-1.93332	1.54348
27.31485	-1.95529	1.54348
27.31890	-1.95529	1.54348
27.32320	-1.95529	1.54348
27.32726	-1.95529	1.54348
27.33132	-1.93332	1.54348
27.33539	-1.93332	1.54348
27.33945	-1.95529	1.54348
27.34350	-1.95529	1.54348
27.34756	-1.93332	1.54348
27.35166	-1.93332	1.54348
27.35572	-1.95529	1.54348
27.35978	-1.95529	1.54348
27.36384	-1.95529	1.54348
27.36789	-1.95529	1.54348
27.37195	-1.93332	1.54348
27.37601	-1.93332	1.54348
27.38007	-1.95529	1.54348
27.38413	-1.93332	1.54348
27.38819	-1.93332	1.54348
27.39224	-1.93332	1.54348
27.39630	-1.95529	1.54348
27.40036	-1.93332	1.54348
27.40442	-1.93332	1.54348
27.40847	-1.93332	1.54348
27.41253	-1.93332	1.54348
27.41659	-1.95529	1.54348
27.42064	-1.95529	1.54348
27.42496	-1.93332	1.54348
27.42902	-1.95529	1.54348
27.43308	-1.95529	1.54348
27.43715	-1.93332	1.54348
27.44120	-1.93332	1.54348
27.44526	-1.95529	1.54348
27.44932	-1.93332	1.54348
27.45341	-1.93332	1.54348
27.45747	-1.93332	1.54348
27.46153	-1.93332	1.54348
27.46559	-1.93332	1.54348
27.46965	-1.93332	1.54348
27.47370	-1.93332	1.54348
27.47776	-1.93332	1.54348
27.48182	-1.93332	1.54348
27.48588	-1.93332	1.54348
27.48994	-1.93332	1.54348
27.49400	-1.93332	1.54348
27.49805	-1.93332	1.54348
27.50211	-1.93332	1.54348
27.50617	-1.93332	1.54348
27.51023	-1.93332	1.54348
27.51428	-1.93332	1.54348
27.51834	-1.93332	1.54348
27.52240	-1.93332	1.54348
27.52672	-1.93332	1.54348
27.53078	-1.93332	1.54348
27.53483	-1.91134	1.54348
27.53890	-1.91134	1.54348
27.54295	-1.93332	1.54348
27.54701	-1.93332	1.54348
27.55107	-1.93332	1.54348
27.55517	-1.91134	1.54348
27.55923	-1.91134	1.54348
27.56329	-1.91134	1.54348
27.56735	-1.91134	1.54348
27.57141	-1.91134	1.54348
27.57546	-1.91134	1.54348
27.57952	-1.91134	1.54348
27.58358	-1.91134	1.54348
27.58764	-1.91134	1.54348
27.59170	-1.91134	1.54348
27.59576	-1.91134	1.54348
27.59981	-1.91134	1.54348
27.60387	-1.91134	1.54348
27.60793	-1.91134	1.54348
27.61199	-1.91134	1.54348
27.61604	-1.91134	1.54348
27.62010	-1.91134	1.54348
27.62416	-1.91134	1.54348
27.62847	-1.88937	1.54348
27.63253	-1.88937	1.54348
27.63659	-1.88937	1.54348
27.64065	-1.88937	1.54348
27.64471	-1.88937	1.54348
27.64877	-1.88937	1.54348
27.65283	-1.88937	1.54348
27.65694	-1.88937	1.54348
27.66101	-1.88937	1.54348
27.66507	-1.88937	1.54348
27.66914	-1.88937	1.54348
27.67320	-1.88937	1.54348
27.67725	-1.88937	1.54348
27.68131	-1.88937	1.54348
27.68537	-1.88937	1.54348
27.68943	-1.88937	1.54348
27.69349	-1.86740	1.54348
27.69755	-1.86740	1.54348
27.70160	-1.86740	1.54348
27.70566	-1.86740	1.54348
27.70972	-1.86740	1.54348
27.71378	-1.86740	1.54348
27.71783	-1.86740	1.54348
27.72189	-1.86740	1.54348
27.72595	-1.86740	1.54348
27.73026	-1.86740	1.54348
27.73432	-1.86740	1.54348
27.73838	-1.86740	1.54348
27.74244	-1.84543	1.54348
27.74650	-1.84543	1.54348
27.75056	-1.84543	1.54348
27.75461	-1.84543	1.54348
27.75865	-1.84543	1.54348
27.76271	-1.84543	1.54348
27.76677	-1.84543	1.54348
27.77083	-1.84543	1.54348
27.77489	-1.84543	1.54348
27.77894	-1.84543	1.54348
27.78300	-1.84543	1.54348
27.78706	-1.84543	1.54348
27.79112	-1.84543	1.54348
27.79518	-1.84543	1.54348
27.79923	-1.84543	1.54348
27.80329	-1.84543	1.54348
27.80735	-1.84543	1.54348
27.81140	-1.82345	1.54348
27.81546	-1.82345	1.54348
27.81952	-1.82345	1.54348
27.82357	-1.82345	1.54348
27.82763	-1.82345	1.54348
27.83193	-1.82345	1.54348
27.83599	-1.82345	1.54348
27.84004	-1.82345	1.54348
27.84411	-1.82345	1.54348
27.84817	-1.82345	1.54348
27.85222	-1.82345	1.54348
27.85628	-1.82345	1.54348
27.86036	-1.82345	1.54348
27.86442	-1.82345	1.54348
27.86848	-1.82345	1.54348
27.87254	-1.82345	1.54348
27.87660	-1.82345	1.54348
27.88065	-1.82345	1.54348
27.88471	-1.82345	1.54348
27.88877	-1.82345	1.54348
27.89283	-1.82345	1.54348
27.89689	-1.82345	1.54348
27.90095	-1.82345	1.54348
27.90501	-1.82345	1.54348
27.90906	-1.82345	1.54348
27.91312	-1.82345	1.54348
27.91714	-1.82345	1.54348
27.92119	-1.80148	1.54348
27.92525	-1.80148	1.54348
27.92931	-1.82345	1.54348
27.93361	-1.82345	1.54348
27.93767	-1.82345	1.54348
27.94173	-1.80148	1.54348
27.94580	-1.82345	1.54348
27.94986	-1.82345	1.54348
27.95392	-1.82345	1.54348
27.95797	-1.82345	1.54348
27.96206	-1.82345	1.54348
27.96612	-1.82345	1.54348
27.97018	-1.80148	1.54348
27.97423	-1.82345	1.54348
27.97829	-1.82345	1.54348
27.98235	-1.82345	1.54348
27.98640	-1.82345	1.54348
27.99047	-1.82345	1.54348
27.99453	-1.82345	1.54348
27.99858	-1.82345	1.54348
28.00264	-1.82345	1.54348
28.00670	-1.82345	1.54348
28.01075	-1.82345	1.54348
28.01481	-1.80148	1.54348
28.01887	-1.82345	1.54348
28.02293	-1.82345	1.54348
28.02707	-1.82345	1.54348
28.03118	-1.82345	1.54348
28.03555	-1.82345	1.54348
28.03962	-1.82345	1.54348
28.04369	-1.82345	1.54348
28.04775	-1.82345	1.54348
28.05181	-1.82345	1.54348
28.05587	-1.82345	1.54348
28.05993	-1.82345	1.54348
28.06401	-1.82345	1.54348
28.06807	-1.82345	1.54348
28.07212	-1.82345	1.54348
28.07619	-1.82345	1.54348
28.08025	-1.82345	1.54348
28.08430	-1.82345	1.54348
28.08836	-1.84543	1.54348
28.09243	-1.84543	1.54348
28.09649	-1.84543	1.54348
28.10055	-1.84543	1.54348
28.10460	-1.84543	1.54348
28.10866	-1.82345	1.54348
28.11272	-1.82345	1.54348
28.11678	-1.84543	1.54348
28.12083	-1.84543	1.54348
28.12489	-1.84543	1.54348
28.12895	-1.84543	1.54348
28.13300	-1.84543	1.54348
28.13729	-1.84543	1.54348
28.14135	-1.84543	1.54348
28.14540	-1.84543	1.54348
28.14947	-1.84543	1.54348
28.15352	-1.84543	1.54348
28.15758	-1.84543	1.54348
28.16164	-1.84543	1.54348
28.16572	-1.84543	1.54348
28.16978	-1.84543	1.54348
28.17384	-1.84543	1.54348
28.17790	-1.86740	1.54348
28.18196	-1.86740	1.54348
28.18602	-1.86740	1.54348
28.19008	-1.84543	1.54348
28.19414	-1.86740	1.54348
28.19820	-1.84543	1.54348
28.20226	-1.84543	1.54348
28.20632	-1.84543	1.54348
28.21038	-1.86740	1.54348
28.21443	-1.86740	1.54348
28.21849	-1.86740	1.54348
28.22255	-1.86740	1.54348
28.22661	-1.86740	1.54348
28.23066	-1.86740	1.54348
28.23472	-1.86740	1.54348
28.23903	-1.86740	1.54348
28.24309	-1.86740	1.54348
28.24715	-1.86740	1.54348
28.25121	-1.86740	1.54348
28.25530	-1.86740	1.54348
28.25936	-1.86740	1.54348
28.26342	-1.86740	1.54348
28.26750	-1.86740	1.54348
28.27156	-1.86740	1.54348
28.27561	-1.86740	1.54348
28.27967	-1.86740	1.54348
28.28373	-1.86740	1.54348
28.28779	-1.86740	1.54348
28.29185	-1.86740	1.54348
28.29591	-1.86740	1.54348
28.29997	-1.86740	1.54348
28.30403	-1.86740	1.54348
28.30809	-1.86740	1.54348
28.31214	-1.86740	1.54348
28.31620	-1.86740	1.54348
28.32026	-1.86740	1.54348
28.32431	-1.86740	1.54348
28.32837	-1.86740	1.54348
28.33243	-1.86740	1.54348
28.33649	-1.86740	1.54348
28.34078	-1.86740	1.54348
28.34484	-1.86740	1.54348
28.34890	-1.86740	1.54348
28.35296	-1.86740	1.54348
28.35702	-1.86740	1.54348
28.36108	-1.86740	1.54348
28.36514	-1.86740	1.54348
28.36921	-1.86740	1.54348
28.37328	-1.86740	1.54348
28.37733	-1.86740	1.54348
28.38151	-1.86740	1.54348
28.38559	-1.84543	1.54348
28.38965	-1.84543	1.54348
28.39371	-1.84543	1.54348
28.39778	-1.84543	1.54348
28.40183	-1.84543	1.54348
28.40589	-1.84543	1.54348
28.40995	-1.84543	1.54348
28.41401	-1.84543	1.54348
28.41807	-1.84543	1.54348
28.42212	-1.84543	1.54348
28.42618	-1.82345	1.54348
28.43024	-1.82345	1.54348
28.43430	-1.82345	1.54348
28.43836	-1.84543	1.54348
28.44265	-1.84543	1.54348
28.44671	-1.82345	1.54348
28.45077	-1.82345	1.54348
28.45483	-1.82345	1.54348
28.45889	-1.82345	1.54348
28.46295	-1.82345	1.54348
28.46701	-1.82345	1.54348
28.47108	-1.80148	1.54348
28.47515	-1.80148	1.54348
28.47921	-1.80148	1.54348
28.48327	-1.80148	1.54348
28.48732	-1.80148	1.54348
28.49138	-1.80148	1.54348
28.49544	-1.80148	1.54348
28.49950	-1.80148	1.54348
28.50356	-1.80148	1.54348
28.50761	-1.80148	1.54348
28.51167	-1.77951	1.54348
28.51573	-1.77951	1.54348
28.51978	-1.77951	1.54348
28.52384	-1.77951	1.54348
28.52790	-1.77951	1.54348
28.53195	-1.77951	1.54348
28.53601	-1.77951	1.54348
28.54006	-1.75754	1.54348
28.54435	-1.75754	1.54348
28.54841	-1.75754	1.54348
28.55247	-1.75754	1.54348
28.55653	-1.75754	1.54348
28.56059	-1.75754	1.54348
28.56465	-1.75754	1.54348
28.56871	-1.73556	1.54348
28.57279	-1.73556	1.54348
28.57685	-1.73556	1.54348
28.58091	-1.73556	1.54348
28.58497	-1.73556	1.54348
28.58903	-1.73556	1.54348
28.59310	-1.73556	1.54348
28.59715	-1.73556	1.54348
28.60125	-1.73556	1.54348
28.60532	-1.71359	1.54348
28.60939	-1.71359	1.54348
28.61347	-1.71359	1.54348
28.61754	-1.71359	1.54348
28.62159	-1.71359	1.54348
28.62565	-1.71359	1.54348
28.62972	-1.69162	1.54348
28.63378	-1.69162	1.54348
28.63783	-1.71359	1.54348
28.64189	-1.71359	1.54348
28.64620	-1.69162	1.54348
28.65026	-1.69162	1.54348
28.65432	-1.69162	1.54348
28.65838	-1.69162	1.54348
28.66244	-1.69162	1.54348
28.66650	-1.69162	1.54348
28.67055	-1.69162	1.54348
28.67464	-1.66964	1.54348
28.67870	-1.66964	1.54348
28.68276	-1.66964	1.54348
28.68682	-1.66964	1.54348
28.69087	-1.66964	1.54348
28.69493	-1.66964	1.54348
28.69899	-1.66964	1.54348
28.70305	-1.66964	1.54348
28.70710	-1.64767	1.54348
28.71116	-1.64767	1.54348
28.71522	-1.64767	1.54348
28.71927	-1.64767	1.54348
28.72334	-1.64767	1.54348
28.72739	-1.64767	1.54348
28.73145	-1.64767	1.54348
28.73551	-1.64767	1.54348
28.73956	-1.62570	1.54348
28.74362	-1.62570	1.54348
28.74789	-1.62570	1.54348
28.75195	-1.62570	1.54348
28.75600	-1.62570	1.54348
28.76007	-1.62570	1.54348
28.76413	-1.62570	1.54348
28.76819	-1.62570	1.54348
28.77225	-1.62570	1.54348
28.77633	-1.62570	1.54348
28.78048	-1.60373	1.54348
28.78455	-1.62570	1.54348
28.78861	-1.62570	1.54348
28.79268	-1.62570	1.54348
28.79675	-1.60373	1.54348
28.80081	-1.60373	1.54348
28.80487	-1.60373	1.54348
28.80893	-1.60373	1.54348
28.81299	-1.60373	1.54348
28.81705	-1.60373	1.54348
28.82110	-1.58175	1.54348
28.82514	-1.58175	1.54348
28.82920	-1.58175	1.54348
28.83326	-1.58175	1.54348
28.83732	-1.58175	1.54348
28.84138	-1.58175	1.54348
28.84544	-1.58175	1.54348
28.84973	-1.58175	1.54348
28.85379	-1.58175	1.54348
28.85785	-1.58175	1.54348
28.86191	-1.58175	1.54348
28.86597	-1.58175	1.54348
28.87002	-1.58175	1.54348
28.87408	-1.55978	1.54348
28.87816	-1.58175	1.54348
28.88222	-1.58175	1.54348
28.88628	-1.55978	1.54348
28.89034	-1.55978	1.54348
28.89440	-1.55978	1.54348
28.89846	-1.55978	1.54348
28.90251	-1.55978	1.54348
28.90658	-1.55978	1.54348
28.91064	-1.55978	1.54348
28.91470	-1.55978	1.54348
28.91876	-1.55978	1.54348
28.92282	-1.55978	1.54348
28.92688	-1.55978	1.54348
28.93094	-1.53781	1.54348
28.93500	-1.53781	1.54348
28.93906	-1.53781	1.54348
28.94312	-1.53781	1.54348
28.94718	-1.53781	1.54348
28.95146	-1.53781	1.54348
28.95552	-1.53781	1.54348
28.95959	-1.53781	1.54348
28.96365	-1.53781	1.54348
28.96771	-1.53781	1.54348
28.97177	-1.53781	1.54348
28.97583	-1.53781	1.54348
28.97993	-1.53781	1.54348
28.98399	-1.53781	1.54348
28.98806	-1.53781	1.54348
28.99214	-1.51584	1.54348
28.99620	-1.53781	1.54348
29.00025	-1.51584	1.54348
29.00431	-1.51584	1.54348
29.00837	-1.51584	1.54348
29.01242	-1.51584	1.54348
29.01648	-1.51584	1.54348
29.02054	-1.53781	1.54348
29.02460	-1.53781	1.54348
29.02866	-1.51584	1.54348
29.03272	-1.51584	1.54348
29.03677	-1.51584	1.54348
29.04083	-1.51584	1.54348
29.04489	-1.51584	1.54348
29.04895	-1.51584	1.54348
29.05325	-1.51584	1.54348
29.05731	-1.51584	1.54348
29.06137	-1.51584	1.54348
29.06543	-1.51584	1.54348
29.06949	-1.51584	1.54348
29.07354	-1.49386	1.54348
29.07760	-1.51584	1.54348
29.08168	-1.51584	1.54348
29.08574	-1.51584	1.54348
29.08980	-1.51584	1.54348
29.09386	-1.51584	1.54348
29.09792	-1.51584	1.54348
29.10198	-1.51584	1.54348
29.10603	-1.51584	1.54348
29.11009	-1.51584	1.54348
29.11416	-1.51584	1.54348
29.11821	-1.51584	1.54348
29.12227	-1.51584	1.54348
29.12633	-1.51584	1.54348
29.13039	-1.51584	1.54348
29.13445	-1.51584	1.54348
29.13851	-1.51584	1.54348
29.14256	-1.51584	1.54348
29.14662	-1.51584	1.54348
29.15068	-1.51584	1.54348
29.15497	-1.51584	1.54348
29.15903	-1.51584	1.54348
29.16309	-1.51584	1.54348
29.16715	-1.53781	1.54348
29.17120	-1.51584	1.54348
29.17526	-1.51584	1.54348
29.17932	-1.51584	1.54348
29.18340	-1.53781	1.54348
29.18746	-1.53781	1.54348
29.19152	-1.53781	1.54348
29.19558	-1.53781	1.54348
29.19964	-1.53781	1.54348
29.20370	-1.53781	1.54348
29.20776	-1.53781	1.54348
29.21182	-1.53781	1.54348
29.21588	-1.53781	1.54348
29.21994	-1.53781	1.54348
29.22399	-1.53781	1.54348
29.22806	-1.53781	1.54348
29.23212	-1.53781	1.54348
29.23617	-1.55978	1.54348
29.24023	-1.55978	1.54348
29.24429	-1.55978	1.54348
29.24835	-1.55978	1.54348
29.25241	-1.55978	1.54348
29.25673	-1.55978	1.54348
29.26079	-1.55978	1.54348
29.26485	-1.55978	1.54348
29.26891	-1.55978	1.54348
29.27297	-1.55978	1.54348
29.27703	-1.58175	1.54348
29.28109	-1.58175	1.54348
29.28515	-1.58175	1.54348
29.28920	-1.58175	1.54348
29.29326	-1.58175	1.54348
29.29732	-1.58175	1.54348
29.30138	-1.60373	1.54348
29.30544	-1.60373	1.54348
29.30950	-1.60373	1.54348
29.31355	-1.60373	1.54348
29.31761	-1.60373	1.54348
29.32170	-1.60373	1.54348
29.32576	-1.60373	1.54348
29.32982	-1.62570	1.54348
29.33387	-1.62570	1.54348
29.33794	-1.62570	1.54348
29.34200	-1.62570	1.54348
29.34605	-1.62570	1.54348
29.35011	-1.62570	1.54348
29.35418	-1.62570	1.54348
29.35848	-1.64767	1.54348
29.36253	-1.64767	1.54348
29.36659	-1.64767	1.54348
29.37066	-1.64767	1.54348
29.37472	-1.64767	1.54348
29.37878	-1.66964	1.54348
29.38283	-1.66964	1.54348
29.38690	-1.66964	1.54348
29.39096	-1.66964	1.54348
29.39502	-1.66964	1.54348
29.39908	-1.66964	1.54348
29.40315	-1.66964	1.54348
29.40720	-1.69162	1.54348
29.41126	-1.69162	1.54348
29.41532	-1.69162	1.54348
29.41938	-1.69162	1.54348
29.42344	-1.71359	1.54348
29.42750	-1.69162	1.54348
29.43156	-1.69162	1.54348
29.43562	-1.69162	1.54348
29.43968	-1.71359	1.54348
29.44374	-1.71359	1.54348
29.44779	-1.71359	1.54348
29.45186	-1.71359	1.54348
29.45592	-1.71359	1.54348
29.46021	-1.73556	1.54348
29.46427	-1.73556	1.54348
29.46833	-1.73556	1.54348
29.47239	-1.73556	1.54348
29.47645	-1.73556	1.54348
29.48051	-1.73556	1.54348
29.48457	-1.75754	1.54348
29.48863	-1.75754	1.54348
29.49269	-1.75754	1.54348
29.49675	-1.75754	1.54348
29.50081	-1.75754	1.54348
29.50486	-1.77951	1.54348
29.50892	-1.77951	1.54348
29.51298	-1.77951	1.54348
29.51704	-1.77951	1.54348
29.52109	-1.77951	1.54348
29.52513	-1.77951	1.54348
29.52919	-1.77951	1.54348
29.53325	-1.77951	1.54348
29.53731	-1.80148	1.54348
29.54137	-1.80148	1.54348
29.54542	-1.80148	1.54348
29.54948	-1.80148	1.54348
29.55354	-1.80148	1.54348
29.55760	-1.80148	1.54348
29.56191	-1.82345	1.54348
29.56597	-1.82345	1.54348
29.57003	-1.82345	1.54348
29.57409	-1.82345	1.54348
29.57815	-1.82345	1.54348
29.58221	-1.82345	1.54348
29.58626	-1.82345	1.54348
29.59033	-1.82345	1.54348
29.59439	-1.84543	1.54348
29.59844	-1.84543	1.54348
29.60250	-1.84543	1.54348
29.60656	-1.84543	1.54348
29.61062	-1.84543	1.54348
29.61467	-1.84543	1.54348
29.61873	-1.84543	1.54348
29.62279	-1.84543	1.54348
29.62684	-1.86740	1.54348
29.63090	-1.86740	1.54348
29.63496	-1.86740	1.54348
29.63901	-1.86740	1.54348
29.64308	-1.86740	1.54348
29.64720	-1.86740	1.54348
29.65128	-1.86740	1.54348
29.65534	-1.86740	1.54348
29.65942	-1.88937	1.54348
29.66374	-1.88937	1.54348
29.66780	-1.88937	1.54348
29.67185	-1.88937	1.54348
29.67591	-1.88937	1.54348
29.67997	-1.88937	1.54348
29.68402	-1.88937	1.54348
29.68808	-1.88937	1.54348
29.69215	-1.88937	1.54348
29.69621	-1.88937	1.54348
29.70026	-1.91134	1.54348
29.70432	-1.91134	1.54348
29.70838	-1.91134	1.54348
29.71244	-1.91134	1.54348
29.71649	-1.91134	1.54348
29.72055	-1.91134	1.54348
29.72461	-1.91134	1.54348
29.72871	-1.91134	1.54348
29.73278	-1.91134	1.54348
29.73684	-1.91134	1.54348
29.74090	-1.91134	1.54348
29.74507	-1.91134	1.54348
29.74914	-1.91134	1.54348
29.75320	-1.91134	1.54348
29.75726	-1.91134	1.54348
29.76132	-1.91134	1.54348
29.76558	-1.91134	1.54348
29.76964	-1.93332	1.54348
29.77369	-1.91134	1.54348
29.77775	-1.91134	1.54348
29.78181	-1.93332	1.54348
29.78586	-1.91134	1.54348
29.78992	-1.91134	1.54348
29.79401	-1.93332	1.54348
29.79807	-1.93332	1.54348
29.80212	-1.91134	1.54348
29.80618	-1.91134	1.54348
29.81024	-1.91134	1.54348
29.81430	-1.91134	1.54348
29.81836	-1.91134	1.54348
29.82243	-1.91134	1.54348
29.82656	-1.91134	1.54348
29.83063	-1.91134	1.54348
29.83468	-1.91134	1.54348
29.84043	-1.91134	1.54348
29.84449	-1.91134	1.54348
29.84855	-1.91134	1.54348
29.85261	-1.91134	1.54348
29.85666	-1.91134	1.54348
29.86073	-1.91134	1.54348
29.86478	-1.91134	1.54348
29.86905	-1.91134	1.54348
29.87310	-1.91134	1.54348
29.87714	-1.91134	1.54348
29.88119	-1.91134	1.54348
29.88525	-1.91134	1.54348
29.88931	-1.91134	1.54348
29.89336	-1.91134	1.54348
29.89745	-1.91134	1.54348
29.90150	-1.91134	1.54348
29.90556	-1.91134	1.54348
29.90962	-1.91134	1.54348
29.91368	-1.91134	1.54348
29.91774	-1.91134	1.54348
29.92179	-1.88937	1.54348
29.92587	-1.88937	1.54348
29.92993	-1.88937	1.54348
29.93399	-1.88937	1.54348
29.93805	-1.88937	1.54348
29.94213	-1.88937	1.54348
29.94619	-1.88937	1.54348
29.95025	-1.86740	1.54348
29.95431	-1.88937	1.54348
29.95837	-1.88937	1.54348
29.96244	-1.88937	1.54348
29.96650	-1.86740	1.54348
29.97076	-1.86740	1.54348
29.97482	-1.86740	1.54348
29.97888	-1.86740	1.54348
29.98293	-1.86740	1.54348
29.98699	-1.86740	1.54348
29.99105	-1.86740	1.54348
29.99510	-1.86740	1.54348
29.99919	-1.84543	1.54348
