Time (s)   Thrust (N)   RPM
0.00030	0.00000	5571.42800
0.00419	0.00000	5571.42800
0.00804	0.00000	5571.42800
0.01191	0.00000	5571.42800
0.01576	0.00000	5571.42800
0.01959	0.00000	5564.15300
0.02345	0.00000	5564.15300
0.02734	0.00000	5564.15300
0.03119	0.00000	5564.15300
0.03503	0.00000	5564.15300
0.03888	0.00000	5564.15300
0.04272	0.00000	5564.15300
0.04656	0.00000	5508.95000
0.05040	0.00000	5508.95000
0.05424	0.00000	5508.95000
0.05811	0.00000	5508.95000
0.06199	0.00000	5508.95000
0.06583	0.00000	5508.95000
0.06967	0.00000	5366.70900
0.07349	0.00000	5366.70900
0.07734	0.00000	5366.70900
0.08118	0.00000	5366.70900
0.08501	0.00000	5366.70900
0.08884	0.00000	5366.70900
0.09267	0.00000	5366.70900
0.09649	0.00000	5207.51900
0.10032	0.00000	5207.51900
0.10414	0.00000	5207.51900
0.10798	0.00000	5207.51900
0.11180	0.00000	5207.51900
0.11562	0.00000	5207.51900
0.11945	0.00000	5088.92900
0.12329	0.00000	5088.92900
0.12713	0.00000	5088.92900
0.13096	0.00000	5088.92900
0.13479	0.00000	5088.92900
0.13861	0.00000	5088.92900
0.14245	0.00000	5088.92900
0.14627	0.00000	5051.80000
0.15011	0.00000	5051.80000
0.15395	0.00000	5051.80000
0.15778	0.00000	5051.80000
0.16162	0.00000	5051.80000
0.16546	0.00000	5051.80000
0.16929	0.00000	5018.22900
0.17313	0.00000	5018.22900
0.17696	0.00000	5018.22900
0.18079	0.00000	5018.22900
0.18462	0.00000	5018.22900
0.18845	0.00000	5018.22900
0.19228	0.00000	4966.64300
0.19611	0.00000	4966.64300
0.19994	0.00000	4966.64300
0.20377	0.00000	4966.64300
0.20760	0.00000	4966.64300
0.21144	0.00000	4966.64300
0.21527	0.00000	4885.00700
0.21911	0.00000	4885.00700
0.22294	0.00000	4885.00700
0.22678	0.00000	4885.00700
0.23061	0.00000	4885.00700
0.23445	0.00000	4885.00700
0.23828	0.00000	4873.93400
0.24212	0.00000	4873.93400
0.24596	0.00000	4873.93400
0.24979	0.00000	4873.93400
0.25363	0.00000	4873.93400
0.25745	0.00000	4873.93400
0.26129	0.00000	4876.07700
0.26511	0.00000	4876.07700
0.26895	0.00000	4876.07700
0.27278	0.00000	4876.07700
0.27661	0.00000	4876.07700
0.28044	0.00000	4876.07700
0.28428	0.00000	4838.36200
0.28811	0.00000	4838.36200
0.29195	0.00000	4838.36200
0.29579	0.00000	4838.36200
0.29963	0.00000	4838.36200
0.30346	0.00000	4838.36200
0.30729	0.00000	4837.39000
0.31114	0.00000	4837.39000
0.31497	0.00000	4837.39000
0.31880	0.00000	4837.39000
0.32264	0.00000	4837.39000
0.32648	0.00000	4841.91100
0.33033	0.00000	4841.91100
0.33416	0.00000	4841.91100
0.33799	0.00000	4841.91100
0.34183	0.00000	4841.91100
0.34566	0.00000	4841.91100
0.34951	0.00000	4796.51100
0.35335	0.00000	4796.51100
0.35719	0.00000	4796.51100
0.36102	0.00000	4796.51100
0.36485	0.00000	4796.51100
0.36868	0.00000	4796.51100
0.37251	0.00000	4763.80800
0.37635	0.00000	4763.80800
0.38018	0.00000	4763.80800
0.38402	0.00000	4763.80800
0.38786	0.00000	4763.80800
0.39170	0.00000	4763.80800
0.39553	0.00000	4744.73100
0.39937	0.00000	4744.73100
0.40320	0.00000	4744.73100
0.40703	0.00000	4744.73100
0.41086	0.00000	4744.73100
0.41470	0.00000	4744.73100
0.41854	0.00000	4786.76400
0.42237	0.00000	4786.76400
0.42621	0.00000	4786.76400
0.43005	0.00000	4786.76400
0.43388	0.00000	4786.76400
0.43773	0.00000	4786.76400
0.44155	0.00000	4767.46300
0.44538	0.00000	4767.46300
0.44921	0.00000	4767.46300
0.45305	0.00000	4767.46300
0.45688	0.00000	4767.46300
0.46071	0.00000	4790.73600
0.46456	0.00000	4790.73600
0.46840	0.00000	4790.73600
0.47222	0.00000	4790.73600
0.47605	0.00000	4790.73600
0.47988	0.00000	4790.73600
0.48372	0.00000	4767.46300
0.48755	0.00000	4767.46300
0.49139	0.00000	4767.46300
0.49522	0.00000	4767.46300
0.49906	0.00000	4767.46300
0.50290	0.00000	4767.46300
0.50674	0.00000	4756.43300
0.51057	0.00000	4756.43300
0.51440	0.00000	4756.43300
0.51824	0.00000	4756.43300
0.52209	0.00000	4756.43300
0.52592	0.00000	4756.43300
0.52976	0.00000	4748.16100
0.53358	0.00000	4748.16100
0.53742	0.00000	4748.16100
0.54125	0.00000	4748.16100
0.54509	0.00000	4748.16100
0.54892	0.00000	4757.25400
0.55274	0.00000	4757.25400
0.55657	0.00000	4757.25400
0.56040	0.00000	4757.25400
0.56423	0.00000	4757.25400
0.56807	0.00000	4757.25400
0.57192	0.00000	4709.55900
0.57576	0.00000	4709.55900
0.57960	0.00000	4709.55900
0.58343	0.00000	4709.55900
0.58726	0.00000	4709.55900
0.59109	0.00000	4709.55900
0.59493	0.00000	4728.86000
0.59875	0.00000	4728.86000
0.60259	0.00000	4728.86000
0.60642	0.00000	4728.86000
0.61026	0.00000	4728.86000
0.61410	0.00000	4728.86000
0.61793	0.00000	4737.13200
0.62175	0.00000	4737.13200
0.62559	0.00000	4737.13200
0.62942	0.00000	4737.13200
0.63324	0.00000	4737.13200
0.63708	0.00000	4737.13200
0.64091	0.00000	4728.86000
0.64474	0.00000	4728.86000
0.64857	0.00000	4728.86000
0.65241	0.00000	4728.86000
0.65625	0.00000	4728.86000
0.66008	0.00000	4693.01400
0.66394	0.00000	4693.01400
0.66777	0.00000	4693.01400
0.67161	0.00000	4693.01400
0.67544	0.00000	4693.01400
0.67928	0.00000	4693.01400
0.68311	0.00000	4728.86000
0.68695	0.00000	4728.86000
0.69079	0.00000	4728.86000
0.69462	0.00000	4728.86000
0.69845	0.00000	4728.86000
0.70228	0.00000	4728.86000
0.70612	0.00000	4728.86000
0.70996	0.00000	4728.86000
0.71379	0.00000	4728.86000
0.71761	0.00000	4728.86000
0.72144	0.00000	4728.86000
0.72527	0.00000	4728.86000
0.72911	0.00000	4720.58800
0.73294	0.00000	4720.58800
0.73677	0.00000	4720.58800
0.74061	0.00000	4720.58800
0.74444	0.00000	4720.58800
0.74827	0.00000	4746.09400
0.75210	0.00000	4746.09400
0.75593	0.00000	4746.09400
0.75977	0.00000	4746.09400
0.76358	0.00000	4746.09400
0.76742	0.00000	4746.09400
0.77126	0.00000	4709.55900
0.77509	0.00000	4709.55900
0.77893	0.00000	4709.55900
0.78277	0.00000	4709.55900
0.78660	0.00000	4709.55900
0.79043	0.00000	4709.55900
0.79426	0.00000	4712.31600
0.79809	0.00000	4712.31600
0.80193	0.00000	4712.31600
0.80577	0.00000	4712.31600
0.80961	0.00000	4712.31600
0.81345	0.00000	4712.31600
0.81728	0.00000	4720.58800
0.82112	0.00000	4720.58800
0.82495	0.00000	4720.58800
0.82879	0.00000	4720.58800
0.83261	0.00000	4720.58800
0.83644	0.00000	4720.58800
0.84026	0.00000	4715.07300
0.84410	0.00000	4715.07300
0.84793	0.00000	4715.07300
0.85175	0.00000	4715.07300
0.85559	0.00000	4715.07300
0.85941	0.00000	4757.25400
0.86324	0.00000	4757.25400
0.86707	0.00000	4757.25400
0.87090	0.00000	4757.25400
0.87473	0.00000	4757.25400
0.87856	0.00000	4757.25400
0.88239	0.00000	4712.31600
0.88622	0.00000	4712.31600
0.89006	0.00000	4712.31600
0.89388	0.00000	4712.31600
0.89771	0.00000	4712.31600
0.90154	0.00000	4712.31600
0.90537	0.00000	4715.07300
0.90921	0.00000	4715.07300
0.91304	0.00000	4715.07300
0.91688	0.00000	4715.07300
0.92072	0.00000	4715.07300
0.92455	0.00000	4715.07300
0.92838	0.00000	4715.07300
0.93221	0.00000	4715.07300
0.93604	0.00000	4715.07300
0.93987	0.00000	4715.07300
0.94371	0.00000	4715.07300
0.94755	0.00000	4690.25700
0.95139	0.00000	4690.25700
0.95522	0.00000	4690.25700
0.95905	0.00000	4690.25700
0.96288	0.00000	4690.25700
0.96671	0.00000	4690.25700
0.97054	0.00000	4726.10300
0.97438	0.00000	4726.10300
0.97821	0.00000	4726.10300
0.98204	0.00000	4726.10300
0.98586	0.00000	4726.10300
0.98971	0.00000	4726.10300
0.99354	0.00000	4717.83100
0.99736	0.00000	4717.83100
1.00119	0.00000	4717.83100
1.00502	0.00000	4717.83100
1.00885	0.00000	4717.83100
1.01268	0.00000	4717.83100
1.01653	0.00000	4773.99500
1.02042	0.00000	4773.99500
1.02427	0.00000	4773.99500
1.02811	0.00000	4773.99500
1.03194	0.00000	4773.99500
1.03578	0.00000	4748.88400
1.03961	0.00000	4748.88400
1.04344	0.00000	4748.88400
1.04727	0.00000	4748.88400
1.05110	0.00000	4748.88400
1.05493	0.00000	4748.88400
1.05877	0.00000	4704.04400
1.06260	0.00000	4704.04400
1.06642	0.00000	4704.04400
1.07026	0.00000	4704.04400
1.07410	0.00000	4704.04400
1.07793	0.00000	4704.04400
1.08176	0.00000	4701.28600
1.08559	0.00000	4701.28600
1.08943	0.00000	4701.28600
1.09326	0.00000	4701.28600
1.09709	0.00000	4701.28600
1.10092	0.00000	4701.28600
1.10475	0.00000	4731.61700
1.10858	0.00000	4731.61700
1.11242	0.00000	4731.61700
1.11624	0.00000	4731.61700
1.12008	0.00000	4731.61700
1.12392	0.00000	4731.61700
1.12774	0.00000	4704.04400
1.13157	0.00000	4704.04400
1.13540	0.00000	4704.04400
1.13924	0.00000	4704.04400
1.14307	0.00000	4704.04400
1.14690	0.00000	4751.67400
1.15075	0.00000	4751.67400
1.15458	0.00000	4751.67400
1.15840	0.00000	4751.67400
1.16223	0.00000	4751.67400
1.16606	0.00000	4751.67400
1.16989	0.00000	4701.28600
1.17373	0.00000	4701.28600
1.17755	0.00000	4701.28600
1.18139	0.00000	4701.28600
1.18523	0.00000	4701.28600
1.18905	0.00000	4701.28600
1.19289	0.00000	4709.55900
1.19672	0.00000	4709.55900
1.20055	0.00000	4709.55900
1.20438	0.00000	4709.55900
1.20822	0.00000	4709.55900
1.21205	0.00000	4709.55900
1.21587	0.00000	4771.20500
1.21970	0.00000	4771.20500
1.22353	0.00000	4771.20500
1.22738	0.00000	4771.20500
1.23121	0.00000	4771.20500
1.23504	0.00000	4734.93300
1.23889	0.00000	4734.93300
1.24272	0.00000	4734.93300
1.24654	0.00000	4734.93300
1.25039	0.00000	4734.93300
1.25422	0.00000	4734.93300
1.25805	0.00000	4712.31600
1.26188	0.00000	4712.31600
1.26570	0.00000	4712.31600
1.26954	0.00000	4712.31600
1.27338	0.00000	4712.31600
1.27721	0.00000	4712.31600
1.28102	0.00000	4717.83100
1.28484	0.00000	4717.83100
1.28866	0.00000	4717.83100
1.29248	0.00000	4717.83100
1.29629	0.00000	4717.83100
1.30011	0.00000	4717.83100
1.30394	0.00000	4726.10300
1.30776	0.00000	4726.10300
1.31159	0.00000	4726.10300
1.31540	0.00000	4726.10300
1.31922	0.00000	4726.10300
1.32304	0.00000	4754.46400
1.32686	0.00000	4754.46400
1.33067	0.00000	4754.46400
1.33450	0.00000	4754.46400
1.33832	0.00000	4754.46400
1.34214	0.00000	4754.46400
1.34597	0.00000	4754.46400
1.34980	0.00000	4754.46400
1.35363	0.00000	4754.46400
1.35745	0.00000	4754.46400
1.36127	0.00000	4754.46400
1.36510	0.00000	4754.46400
1.36892	0.00000	4717.83100
1.37274	0.00000	4717.83100
1.37657	0.00000	4717.83100
1.38040	0.00000	4717.83100
1.38423	0.00000	4717.83100
1.38808	0.00000	4717.83100
1.39192	0.00000	4790.73600
1.39575	0.00000	4790.73600
1.39958	0.00000	4790.73600
1.40340	0.00000	4790.73600
1.40723	0.00000	4790.73600
1.41107	0.00000	4790.73600
1.41489	0.00000	4698.52900
1.41872	0.00000	4698.52900
1.42255	0.00000	4698.52900
1.42638	0.00000	4698.52900
1.43022	0.00000	4698.52900
1.43405	0.00000	4690.25700
1.43790	0.00000	4690.25700
1.44175	0.00000	4690.25700
1.44559	0.00000	4690.25700
1.44943	0.00000	4690.25700
1.45328	0.00000	4690.25700
1.45712	0.00000	4715.07300
1.46096	0.00000	4715.07300
1.46478	0.00000	4715.07300
1.46861	0.00000	4715.07300
1.47244	0.00000	4715.07300
1.47631	0.00000	4715.07300
1.48015	0.00000	4706.80200
1.48398	0.00000	4706.80200
1.48781	0.00000	4706.80200
1.49165	0.00000	4706.80200
1.49548	0.00000	4706.80200
1.49932	0.00000	4706.80200
1.50316	0.00000	4706.80200
1.50699	0.00000	4706.80200
1.51082	0.00000	4706.80200
1.51465	0.00000	4706.80200
1.51848	0.00000	4706.80200
1.52232	0.00000	4743.30300
1.52615	0.00000	4743.30300
1.52998	0.00000	4743.30300
1.53381	0.00000	4743.30300
1.53765	0.00000	4743.30300
1.54148	0.00000	4743.30300
1.54530	0.00000	4765.62500
1.54913	0.00000	4765.62500
1.55297	0.00000	4765.62500
1.55681	0.00000	4765.62500
1.56063	0.00000	4765.62500
1.56447	0.00000	4765.62500
1.56830	0.00000	4723.34500
1.57214	0.00000	4723.34500
1.57597	0.00000	4723.34500
1.57980	0.00000	4723.34500
1.58358	0.00000	4723.34500
1.58741	0.00000	4723.34500
1.59125	0.00000	4760.04500
1.59508	0.00000	4760.04500
1.59892	0.00000	4760.04500
1.60275	0.00000	4760.04500
1.60659	0.00000	4760.04500
1.61041	0.00000	4746.09400
1.61423	0.00000	4746.09400
1.61806	0.00000	4746.09400
1.62190	0.00000	4746.09400
1.62574	0.00000	4746.09400
1.62956	0.00000	4746.09400
1.63339	0.00000	4690.25700
1.63722	0.00000	4690.25700
1.64105	0.00000	4690.25700
1.64488	0.00000	4690.25700
1.64871	0.00000	4690.25700
1.65255	0.00000	4690.25700
1.65637	0.00000	4706.80200
1.66021	0.00000	4706.80200
1.66403	0.00000	4706.80200
1.66787	0.00000	4706.80200
1.67170	0.00000	4706.80200
1.67553	0.00000	4706.80200
1.67936	0.00000	4723.34500
1.68320	0.00000	4723.34500
1.68703	0.00000	4723.34500
1.69087	0.00000	4723.34500
1.69469	0.00000	4723.34500
1.69853	0.00000	4723.34500
1.70236	0.00000	4690.25700
1.70615	0.00000	4690.25700
1.70998	0.00000	4690.25700
1.71382	0.00000	4690.25700
1.71764	0.00000	4690.25700
1.72147	0.00000	4726.56200
1.72531	0.00000	4726.56200
1.72914	0.00000	4726.56200
1.73298	0.00000	4726.56200
1.73681	0.00000	4726.56200
1.74064	0.00000	4726.56200
1.74447	0.00000	4695.77200
1.74829	0.00000	4695.77200
1.75212	0.00000	4695.77200
1.75596	0.00000	4695.77200
1.75980	0.00000	4695.77200
1.76363	0.00000	4695.77200
1.76747	0.00000	4765.62500
1.77129	0.00000	4765.62500
1.77512	0.00000	4765.62500
1.77896	0.00000	4765.62500
1.78279	0.00000	4765.62500
1.78662	0.00000	4765.62500
1.79045	0.00000	4704.04400
1.79429	0.00000	4704.04400
1.79811	0.00000	4704.04400
1.80195	0.00000	4704.04400
1.80578	0.00000	4704.04400
1.80961	0.00000	4729.35200
1.81347	0.00000	4729.35200
1.81730	0.00000	4729.35200
1.82114	0.00000	4729.35200
1.82496	0.00000	4729.35200
1.82880	0.00000	4729.35200
1.83263	0.00000	4717.83100
1.83646	0.00000	4717.83100
1.84030	0.00000	4717.83100
1.84413	0.00000	4717.83100
1.84797	0.00000	4717.83100
1.85180	0.00000	4717.83100
1.85563	0.00000	4706.80200
1.85946	0.00000	4706.80200
1.86329	0.00000	4706.80200
1.86711	0.00000	4706.80200
1.87095	0.00000	4706.80200
1.87479	0.00000	4706.80200
1.87862	0.00000	4706.80200
1.88247	0.00000	4706.80200
1.88630	0.00000	4706.80200
1.89013	0.00000	4706.80200
1.89397	0.00000	4706.80200
1.89779	0.00000	4732.14200
1.90164	0.00000	4732.14200
1.90547	0.00000	4732.14200
1.90931	0.00000	4732.14200
1.91313	0.00000	4732.14200
1.91697	0.00000	4732.14200
1.92080	0.00000	4751.67400
1.92464	0.00000	4751.67400
1.92848	0.00000	4751.67400
1.93231	0.00000	4751.67400
1.93615	0.00000	4751.67400
1.93998	0.00000	4751.67400
1.94381	0.00000	4709.55900
1.94764	0.00000	4709.55900
1.95147	0.00000	4709.55900
1.95530	0.00000	4709.55900
1.95913	0.00000	4709.55900
1.96297	0.00000	4709.55900
1.96680	0.00000	4706.80200
1.97063	0.00000	4706.80200
1.97447	0.00000	4706.80200
1.97830	0.00000	4706.80200
1.98213	0.00000	4706.80200
1.98597	0.00000	4729.35200
1.98983	0.00000	4729.35200
1.99367	0.00000	4729.35200
1.99751	0.00000	4729.35200
2.00133	0.00000	4729.35200
2.00517	0.00000	4729.35200
2.00900	0.00000	4757.25400
2.01284	0.00000	4757.25400
2.01667	0.00000	4757.25400
2.02050	0.00000	4757.25400
2.02432	0.00000	4757.25400
2.02816	0.00000	4757.25400
2.03200	0.00000	4723.34500
2.03583	0.00000	4723.34500
2.03967	0.00000	4723.34500
2.04350	0.00000	4723.34500
2.04733	0.00000	4723.34500
2.05117	0.00000	4723.34500
2.05499	0.00000	4717.83100
2.05882	0.00000	4717.83100
2.06265	0.00000	4717.83100
2.06648	0.00000	4717.83100
2.07031	0.00000	4717.83100
2.07414	0.00000	4737.72300
2.07797	0.00000	4737.72300
2.08180	0.00000	4737.72300
2.08565	0.00000	4737.72300
2.08948	0.00000	4737.72300
2.09330	0.00000	4737.72300
2.09714	0.00000	4698.52900
2.10098	0.00000	4698.52900
2.10481	0.00000	4698.52900
2.10865	0.00000	4698.52900
2.11249	0.00000	4698.52900
2.11632	0.00000	4698.52900
2.12016	0.00000	4717.83100
2.12399	0.00000	4717.83100
2.12783	0.00000	4717.83100
2.13167	0.00000	4717.83100
2.13550	0.00000	4717.83100
2.13933	0.00000	4717.83100
2.14316	0.00000	4765.62500
2.14699	0.00000	4765.62500
2.15082	0.00000	4765.62500
2.15465	0.00000	4765.62500
2.15848	0.00000	4765.62500
2.16230	0.00000	4765.62500
2.16613	0.00000	4701.28600
2.16996	0.00000	4701.28600
2.17381	0.00000	4701.28600
2.17763	0.00000	4701.28600
2.18146	0.00000	4701.28600
2.18528	0.00000	4740.51300
2.18912	0.00000	4740.51300
2.19295	0.00000	4740.51300
2.19679	0.00000	4740.51300
2.20062	0.00000	4740.51300
2.20445	0.00000	4740.51300
2.20829	0.00000	4709.55900
2.21211	0.00000	4709.55900
2.21594	0.00000	4709.55900
2.21977	0.00000	4709.55900
2.22358	0.00000	4709.55900
2.22742	0.00000	4709.55900
2.23126	0.00000	4706.80200
2.23509	0.00000	4706.80200
2.23893	0.00000	4706.80200
2.24276	0.00000	4706.80200
2.24658	0.00000	4706.80200
2.25042	0.00000	4706.80200
2.25425	0.00000	4712.31600
2.25809	0.00000	4712.31600
2.26191	0.00000	4712.31600
2.26575	0.00000	4712.31600
2.26958	0.00000	4712.31600
2.27341	0.00000	4726.56200
2.27726	0.00000	4726.56200
2.28109	0.00000	4726.56200
2.28492	0.00000	4726.56200
2.28875	0.00000	4726.56200
2.29258	0.00000	4726.56200
2.29641	0.00000	4757.25400
2.30023	0.00000	4757.25400
2.30406	0.00000	4757.25400
2.30789	0.00000	4757.25400
2.31172	0.00000	4757.25400
2.31554	0.00000	4757.25400
2.31937	0.00000	4706.80200
2.32320	0.00000	4706.80200
2.32704	0.00000	4706.80200
2.33087	0.00000	4706.80200
2.33470	0.00000	4706.80200
2.33854	0.00000	4706.80200
2.34237	0.00000	4704.04400
2.34615	0.00000	4704.04400
2.34998	0.00000	4704.04400
2.35382	0.00000	4704.04400
2.35765	0.00000	4704.04400
2.36147	0.00000	4734.93300
2.36529	0.00000	4734.93300
2.36913	0.00000	4734.93300
2.37300	0.00000	4734.93300
2.37685	0.00000	4734.93300
2.38069	0.00000	4734.93300
2.38452	0.00000	4746.09400
2.38836	0.00000	4746.09400
2.39220	0.00000	4746.09400
2.39604	0.00000	4746.09400
2.39988	0.00000	4746.09400
2.40371	0.00000	4746.09400
2.40754	0.00000	4698.52900
2.41138	0.00000	4698.52900
2.41520	0.00000	4698.52900
2.41904	0.00000	4698.52900
2.42287	0.00000	4698.52900
2.42670	0.00000	4698.52900
2.43053	0.00000	4717.83100
2.43436	0.00000	4717.83100
2.43815	0.00000	4717.83100
2.44201	0.00000	4717.83100
2.44584	0.00000	4717.83100
2.44967	0.00000	4734.93300
2.45349	0.00000	4734.93300
2.45731	0.00000	4734.93300
2.46115	0.00000	4734.93300
2.46498	0.00000	4734.93300
2.46881	0.00000	4734.93300
2.47265	0.00000	4723.77200
2.47648	0.00000	4723.77200
2.48030	0.00000	4723.77200
2.48413	0.00000	4723.77200
2.48796	0.00000	4723.77200
2.49180	0.00000	4723.77200
2.49563	0.00000	4751.67400
2.49947	0.00000	4751.67400
2.50331	0.00000	4751.67400
2.50714	0.00000	4751.67400
2.51098	0.00000	4751.67400
2.51481	0.00000	4751.67400
2.51864	0.00000	4701.28600
2.52248	0.00000	4701.28600
2.52632	0.00000	4701.28600
2.53015	0.00000	4701.28600
2.53399	0.00000	4701.28600
2.53782	0.00000	4701.28600
2.54165	0.00000	4693.01400
2.54549	0.00000	4693.01400
2.54932	0.00000	4693.01400
2.55316	0.00000	4693.01400
2.55699	0.00000	4693.01400
2.56082	0.00000	4737.72300
2.56466	0.00000	4737.72300
2.56850	0.00000	4737.72300
2.57233	0.00000	4737.72300
2.57619	0.00000	4737.72300
2.58004	0.00000	4737.72300
2.58388	0.00000	4773.99500
2.58771	0.00000	4773.99500
2.59155	0.00000	4773.99500
2.59538	0.00000	4773.99500
2.59921	0.00000	4773.99500
2.60303	0.00000	4773.99500
2.60687	0.00000	4695.77200
2.61070	0.00000	4695.77200
2.61454	0.00000	4695.77200
2.61837	0.00000	4695.77200
2.62222	0.00000	4695.77200
2.62606	0.00000	4695.77200
2.62988	0.00000	4690.25700
2.63371	0.00000	4690.25700
2.63754	0.00000	4690.25700
2.64137	0.00000	4690.25700
2.64519	0.00000	4690.25700
2.64902	0.00000	4726.56200
2.65286	0.00000	4726.56200
2.65669	0.00000	4726.56200
2.66052	0.00000	4726.56200
2.66435	0.00000	4726.56200
2.66818	0.00000	4726.56200
2.67202	0.00000	4712.31600
2.67585	0.00000	4712.31600
2.67968	0.00000	4712.31600
2.68351	0.00000	4712.31600
2.68734	0.00000	4712.31600
2.69117	0.00000	4712.31600
2.69501	0.00000	4709.55900
2.69884	0.00000	4709.55900
2.70267	0.00000	4709.55900
2.70651	0.00000	4709.55900
2.71034	0.00000	4709.55900
2.71415	0.00000	4709.55900
2.71798	0.00000	4695.77200
2.72181	0.00000	4695.77200
2.72564	0.00000	4695.77200
2.72947	0.00000	4695.77200
2.73330	0.00000	4695.77200
2.73712	0.00000	4726.56200
2.74096	0.00000	4726.56200
2.74478	0.00000	4726.56200
2.74861	0.00000	4726.56200
2.75243	0.00000	4726.56200
2.75627	0.00000	4726.56200
2.76010	0.00000	4698.52900
2.76393	0.00000	4698.52900
2.76776	0.00000	4698.52900
2.77160	0.00000	4698.52900
2.77544	0.00000	4698.52900
2.77928	0.00000	4698.52900
2.78311	0.00000	4762.83500
2.78694	0.00000	4762.83500
2.79077	0.00000	4762.83500
2.79460	0.00000	4762.83500
2.79842	0.00000	4762.83500
2.80226	0.00000	4762.83500
2.80610	0.00000	4706.80200
2.80995	0.00000	4706.80200
2.81378	0.00000	4706.80200
2.81761	0.00000	4706.80200
2.82145	0.00000	4706.80200
2.82528	0.00000	4754.46400
2.82912	0.00000	4754.46400
2.83295	0.00000	4754.46400
2.83678	0.00000	4754.46400
2.84061	0.00000	4754.46400
2.84444	0.00000	4754.46400
2.84828	0.00000	4737.72300
2.85212	0.00000	4737.72300
2.85596	0.00000	4737.72300
2.85980	0.00000	4737.72300
2.86364	0.00000	4737.72300
2.86746	0.00000	4737.72300
2.87130	0.00000	4712.31600
2.87513	0.00000	4712.31600
2.87896	0.00000	4712.31600
2.88280	0.00000	4712.31600
2.88664	0.00000	4712.31600
2.89047	0.00000	4712.31600
2.89430	0.00000	4695.77200
2.89812	0.00000	4695.77200
2.90196	0.00000	4695.77200
2.90579	0.00000	4695.77200
2.90962	0.00000	4695.77200
2.91346	0.00000	4720.98200
2.91730	0.00000	4720.98200
2.92113	0.00000	4720.98200
2.92497	0.00000	4720.98200
2.92879	0.00000	4720.98200
2.93262	0.00000	4720.98200
2.93645	0.00000	4740.51300
2.94029	0.00000	4740.51300
2.94412	0.00000	4740.51300
2.94794	0.00000	4740.51300
2.95177	0.00000	4740.51300
2.95560	0.00000	4740.51300
2.95943	0.00000	4757.25400
2.96327	0.00000	4757.25400
2.96710	0.00000	4757.25400
2.97094	0.00000	4757.25400
2.97477	0.00000	4757.25400
2.97860	0.00000	4757.25400
2.98244	0.00000	4695.77200
2.98627	0.00000	4695.77200
2.99011	0.00000	4695.77200
2.99395	0.00000	4695.77200
2.99780	0.00000	4695.77200
3.00163	0.00000	4726.56200
3.00546	0.00000	4726.56200
3.00930	0.00000	4726.56200
3.01313	0.00000	4726.56200
3.01696	0.00000	4726.56200
3.02078	0.00000	4726.56200
3.02461	0.00000	4726.56200
3.02846	0.00000	4726.56200
3.03229	0.00000	4726.56200
3.03613	0.00000	4726.56200
3.03996	0.00000	4726.56200
3.04379	0.00000	4726.56200
3.04762	0.00000	4709.55900
3.05145	0.00000	4709.55900
3.05527	0.00000	4709.55900
3.05910	0.00000	4709.55900
3.06293	0.00000	4709.55900
3.06676	0.00000	4709.55900
3.07061	0.00000	4771.20500
3.07444	0.00000	4771.20500
3.07827	0.00000	4771.20500
3.08210	0.00000	4771.20500
3.08593	0.00000	4771.20500
3.08977	0.00000	4740.51300
3.09359	0.00000	4740.51300
3.09743	0.00000	4740.51300
3.10127	0.00000	4740.51300
3.10510	0.00000	4740.51300
3.10893	0.00000	4740.51300
3.11277	0.00000	4732.14200
3.11660	0.00000	4732.14200
3.12044	0.00000	4732.14200
3.12427	0.00000	4732.14200
3.12810	0.00000	4732.14200
3.13192	0.00000	4732.14200
3.13575	0.00000	4701.28600
3.13959	0.00000	4701.28600
3.14342	0.00000	4701.28600
3.14726	0.00000	4701.28600
3.15110	0.00000	4701.28600
3.15493	0.00000	4701.28600
3.15877	0.00000	4704.04400
3.16260	0.00000	4704.04400
3.16643	0.00000	4704.04400
3.17026	0.00000	4704.04400
3.17410	0.00000	4704.04400
3.17794	0.00000	4704.04400
3.18176	0.00000	4748.88400
3.18559	0.00000	4748.88400
3.18942	0.00000	4748.88400
3.19325	0.00000	4748.88400
3.19709	0.00000	4748.88400
3.20093	0.00000	4720.98200
3.20475	0.00000	4720.98200
3.20859	0.00000	4720.98200
3.21243	0.00000	4720.98200
3.21625	0.00000	4720.98200
3.22008	0.00000	4720.98200
3.22391	0.00000	4698.52900
3.22774	0.00000	4698.52900
3.23158	0.00000	4698.52900
3.23542	0.00000	4698.52900
3.23926	0.00000	4698.52900
3.24309	0.00000	4698.52900
3.24692	0.00000	4704.04400
3.25076	0.00000	4704.04400
3.25459	0.00000	4704.04400
3.25841	0.00000	4704.04400
3.26225	0.00000	4704.04400
3.26610	0.00000	4704.04400
3.26993	0.00000	4754.46400
3.27378	0.00000	4754.46400
3.27761	0.00000	4754.46400
3.28143	0.00000	4754.46400
3.28527	0.00000	4754.46400
3.28909	0.00000	4740.51300
3.29294	0.00000	4740.51300
3.29677	0.00000	4740.51300
3.30060	0.00000	4740.51300
3.30443	0.00000	4740.51300
3.30826	0.00000	4740.51300
3.31209	0.00000	4754.46400
3.31591	0.00000	4754.46400
3.31976	0.00000	4754.46400
3.32358	0.00000	4754.46400
3.32742	0.00000	4754.46400
3.33125	0.00000	4754.46400
3.33508	0.00000	4693.01400
3.33891	0.00000	4693.01400
3.34274	0.00000	4693.01400
3.34658	0.00000	4693.01400
3.35041	0.00000	4693.01400
3.35423	0.00000	4693.01400
3.35806	0.00000	4698.52900
3.36189	0.00000	4698.52900
3.36573	0.00000	4698.52900
3.36957	0.00000	4698.52900
3.37339	0.00000	4698.52900
3.37722	0.00000	4726.56200
3.38105	0.00000	4726.56200
3.38488	0.00000	4726.56200
3.38871	0.00000	4726.56200
3.39256	0.00000	4726.56200
3.39639	0.00000	4726.56200
3.40021	0.00000	4748.88400
3.40405	0.00000	4748.88400
3.40788	0.00000	4748.88400
3.41172	0.00000	4748.88400
3.41555	0.00000	4748.88400
3.41937	0.00000	4748.88400
3.42320	0.00000	4698.52900
3.42703	0.00000	4698.52900
3.43085	0.00000	4698.52900
3.43468	0.00000	4698.52900
3.43852	0.00000	4698.52900
3.44238	0.00000	4698.52900
3.44622	0.00000	4704.04400
3.45005	0.00000	4704.04400
3.45388	0.00000	4704.04400
3.45772	0.00000	4704.04400
3.46155	0.00000	4704.04400
3.46539	0.00000	4740.51300
3.46922	0.00000	4740.51300
3.47305	0.00000	4740.51300
3.47688	0.00000	4740.51300
3.48071	0.00000	4740.51300
3.48454	0.00000	4740.51300
3.48838	0.00000	4751.67400
3.49221	0.00000	4751.67400
3.49605	0.00000	4751.67400
3.49989	0.00000	4751.67400
3.50372	0.00000	4751.67400
3.50755	0.00000	4751.67400
3.51138	0.00000	4704.04400
3.51522	0.00000	4704.04400
3.51905	0.00000	4704.04400
3.52289	0.00000	4704.04400
3.52672	0.00000	4704.04400
3.53055	0.00000	4704.04400
3.53439	0.00000	4698.52900
3.53822	0.00000	4698.52900
3.54205	0.00000	4698.52900
3.54588	0.00000	4698.52900
3.54972	0.00000	4698.52900
3.55355	0.00000	4732.14200
3.55739	0.00000	4732.14200
3.56122	0.00000	4732.14200
3.56505	0.00000	4732.14200
3.56889	0.00000	4732.14200
3.57272	0.00000	4732.14200
3.57655	0.00000	4754.46400
3.58038	0.00000	4754.46400
3.58420	0.00000	4754.46400
3.58803	0.00000	4754.46400
3.59186	0.00000	4754.46400
3.59569	0.00000	4754.46400
3.59953	0.00000	4765.62500
3.60336	0.00000	4765.62500
3.60720	0.00000	4765.62500
3.61103	0.00000	4765.62500
3.61486	0.00000	4765.62500
3.61868	0.00000	4765.62500
3.62252	0.00000	4706.80200
3.62635	0.00000	4706.80200
3.63016	0.00000	4706.80200
3.63399	0.00000	4706.80200
3.63782	0.00000	4706.80200
3.64166	0.00000	4734.93300
3.64547	0.00000	4734.93300
3.64931	0.00000	4734.93300
3.65314	0.00000	4734.93300
3.65698	0.00000	4734.93300
3.66081	0.00000	4734.93300
3.66465	0.00000	4757.25400
3.66848	0.00000	4757.25400
3.67232	0.00000	4757.25400
3.67615	0.00000	4757.25400
3.67997	0.00000	4757.25400
3.68381	0.00000	4757.25400
3.68765	0.00000	4715.07300
3.69150	0.00000	4715.07300
3.69534	0.00000	4715.07300
3.69917	0.00000	4715.07300
3.70301	0.00000	4715.07300
3.70684	0.00000	4715.07300
3.71067	0.00000	4720.58800
3.71450	0.00000	4720.58800
3.71833	0.00000	4720.58800
3.72215	0.00000	4720.58800
3.72598	0.00000	4720.58800
3.72982	0.00000	4720.58800
3.73364	0.00000	4706.80200
3.73747	0.00000	4706.80200
3.74129	0.00000	4706.80200
3.74512	0.00000	4706.80200
3.74896	0.00000	4706.80200
3.75279	0.00000	4687.50000
3.75663	0.00000	4687.50000
3.76046	0.00000	4687.50000
3.76430	0.00000	4687.50000
3.76814	0.00000	4687.50000
3.77197	0.00000	4687.50000
3.77580	0.00000	4717.83100
3.77964	0.00000	4717.83100
3.78347	0.00000	4717.83100
3.78730	0.00000	4717.83100
3.79114	0.00000	4717.83100
3.79497	0.00000	4717.83100
3.79880	0.00000	4715.07300
3.80263	0.00000	4715.07300
3.80646	0.00000	4715.07300
3.81030	0.00000	4715.07300
3.81413	0.00000	4715.07300
3.81797	0.00000	4715.07300
3.82180	0.00000	4712.31600
3.82564	0.00000	4712.31600
3.82947	0.00000	4712.31600
3.83331	0.00000	4712.31600
3.83714	0.00000	4712.31600
3.84099	0.00000	4734.93300
3.84483	0.00000	4734.93300
3.84866	0.00000	4734.93300
3.85251	0.00000	4734.93300
3.85634	0.00000	4734.93300
3.86017	0.00000	4734.93300
3.86400	0.00000	4751.67400
3.86783	0.00000	4751.67400
3.87166	0.00000	4751.67400
3.87549	0.00000	4751.67400
3.87933	0.00000	4751.67400
3.88315	0.00000	4751.67400
3.88698	0.00000	4706.80200
3.89081	0.00000	4706.80200
3.89464	0.00000	4706.80200
3.89847	0.00000	4706.80200
3.90230	0.00000	4706.80200
3.90612	0.00000	4706.80200
3.90997	0.00000	4701.28600
3.91381	0.00000	4701.28600
3.91764	0.00000	4701.28600
3.92147	0.00000	4701.28600
3.92531	0.00000	4701.28600
3.92914	0.00000	4740.51300
3.93300	0.00000	4740.51300
3.93683	0.00000	4740.51300
3.94066	0.00000	4740.51300
3.94449	0.00000	4740.51300
3.94834	0.00000	4740.51300
3.95216	0.00000	4743.30300
3.95599	0.00000	4743.30300
3.95982	0.00000	4743.30300
3.96365	0.00000	4743.30300
3.96748	0.00000	4743.30300
3.97131	0.00000	4743.30300
3.97513	0.00000	4751.67400
3.97896	0.00000	4751.67400
3.98280	0.00000	4751.67400
3.98663	0.00000	4751.67400
3.99047	0.00000	4751.67400
3.99432	0.00000	4751.67400
3.99815	0.00000	4706.80200
4.00200	0.00000	4706.80200
4.00584	0.00000	4706.80200
4.00967	0.00000	4706.80200
4.01351	0.00000	4706.80200
4.01735	0.00000	4740.51300
4.02117	0.00000	4740.51300
4.02500	0.00000	4740.51300
4.02884	0.00000	4740.51300
4.03267	0.00000	4740.51300
4.03650	0.00000	4740.51300
4.04033	0.00000	4748.88400
4.04416	0.00000	4748.88400
4.04800	0.00000	4748.88400
4.05183	0.00000	4748.88400
4.05566	0.00000	4748.88400
4.05948	0.00000	4748.88400
4.06333	0.00000	4762.83500
4.06716	0.00000	4762.83500
4.07098	0.00000	4762.83500
4.07482	0.00000	4762.83500
4.07864	0.00000	4762.83500
4.08249	0.00000	4762.83500
4.08632	0.00000	4701.28600
4.09016	0.00000	4701.28600
4.09398	0.00000	4701.28600
4.09781	0.00000	4701.28600
4.10165	0.00000	4701.28600
4.10548	0.00000	4701.28600
4.10930	0.00000	4748.88400
4.11312	0.00000	4748.88400
4.11695	0.00000	4748.88400
4.12078	0.00000	4748.88400
4.12461	0.00000	4748.88400
4.12845	0.00000	4734.93300
4.13228	0.00000	4734.93300
4.13611	0.00000	4734.93300
4.13995	0.00000	4734.93300
4.14377	0.00000	4734.93300
4.14760	0.00000	4734.93300
4.15144	0.00000	4760.04500
4.15527	0.00000	4760.04500
4.15910	0.00000	4760.04500
4.16294	0.00000	4760.04500
4.16678	0.00000	4760.04500
4.17061	0.00000	4760.04500
4.17445	0.00000	4709.55900
4.17829	0.00000	4709.55900
4.18215	0.00000	4709.55900
4.18598	0.00000	4709.55900
4.18981	0.00000	4709.55900
4.19365	0.00000	4709.55900
4.19749	0.00000	4768.41500
4.20132	0.00000	4768.41500
4.20515	0.00000	4768.41500
4.20899	0.00000	4768.41500
4.21282	0.00000	4768.41500
4.21665	0.00000	4746.09400
4.22048	0.00000	4746.09400
4.22432	0.00000	4746.09400
4.22815	0.00000	4746.09400
4.23199	0.00000	4746.09400
4.23582	0.00000	4746.09400
4.23965	0.00000	4704.04400
4.24349	0.00000	4704.04400
4.24732	0.00000	4704.04400
4.25115	0.00000	4704.04400
4.25499	0.00000	4704.04400
4.25883	0.00000	4704.04400
4.26267	0.00000	4704.04400
4.26650	0.00000	4704.04400
4.27033	0.00000	4704.04400
4.27415	0.00000	4704.04400
4.27799	0.00000	4704.04400
4.28183	0.00000	4704.04400
4.28566	0.00000	4740.51300
4.28949	0.00000	4740.51300
4.29332	0.00000	4740.51300
4.29714	0.00000	4740.51300
4.30097	0.00000	4740.51300
4.30480	0.00000	4740.51300
4.30866	0.00000	4740.51300
4.31249	0.00000	4740.51300
4.31633	0.00000	4740.51300
4.32017	0.00000	4740.51300
4.32400	0.00000	4740.51300
4.32784	0.00000	4751.67400
4.33168	0.00000	4751.67400
4.33551	0.00000	4751.67400
4.33935	0.00000	4751.67400
4.34319	0.00000	4751.67400
4.34702	0.00000	4751.67400
4.35086	0.00000	4709.55900
4.35469	0.00000	4709.55900
4.35853	0.00000	4709.55900
4.36237	0.00000	4709.55900
4.36624	0.00000	4709.55900
4.37022	0.00000	4709.55900
4.37407	0.00000	4743.30300
4.37791	0.00000	4743.30300
4.38174	0.00000	4743.30300
4.38557	0.00000	4743.30300
4.38941	0.00000	4743.30300
4.39324	0.00000	4718.19200
4.39708	0.00000	4718.19200
4.40091	0.00000	4718.19200
4.40478	0.00000	4718.19200
4.40862	0.00000	4718.19200
4.41245	0.00000	4718.19200
4.41628	0.00000	4751.67400
4.42013	0.00000	4751.67400
4.42397	0.00000	4751.67400
4.42780	0.00000	4751.67400
4.43164	0.00000	4751.67400
4.43549	0.00000	4751.67400
4.43934	0.00000	4715.07300
4.44319	0.00000	4715.07300
4.44704	0.00000	4715.07300
4.45087	0.00000	4715.07300
4.45470	0.00000	4715.07300
4.45854	0.00000	4715.07300
4.46237	0.00000	4698.52900
4.46622	0.00000	4698.52900
4.47011	0.00000	4698.52900
4.47398	0.00000	4698.52900
4.47782	0.00000	4698.52900
4.48165	0.00000	4732.14200
4.48551	0.00000	4732.14200
4.48936	0.00000	4732.14200
4.49319	0.00000	4732.14200
4.49701	0.00000	4732.14200
4.50084	0.00000	4732.14200
4.50468	0.00000	4760.04500
4.50851	0.00000	4760.04500
4.51234	0.00000	4760.04500
4.51617	0.00000	4760.04500
4.52000	0.00000	4760.04500
4.52384	0.00000	4760.04500
4.52767	0.00000	4695.77200
4.53150	0.00000	4695.77200
4.53534	0.00000	4695.77200
4.53916	0.00000	4695.77200
4.54300	0.00000	4695.77200
4.54683	0.00000	4695.77200
4.55066	0.00000	4701.28600
4.55449	0.00000	4701.28600
4.55833	0.00000	4701.28600
4.56216	0.00000	4701.28600
4.56598	0.00000	4701.28600
4.56982	0.00000	4729.35200
4.57366	0.00000	4729.35200
4.57749	0.00000	4729.35200
4.58132	0.00000	4729.35200
4.58514	0.00000	4729.35200
4.58898	0.00000	4729.35200
4.59281	0.00000	4706.80200
4.59665	0.00000	4706.80200
4.60048	0.00000	4706.80200
4.60432	0.00000	4706.80200
4.60815	0.00000	4706.80200
4.61198	0.00000	4706.80200
4.61581	0.00000	4709.55900
4.61965	0.00000	4709.55900
4.62349	0.00000	4709.55900
4.62732	0.00000	4709.55900
4.63116	0.00000	4709.55900
4.63499	0.00000	4709.55900
4.63882	0.00000	4704.04400
4.64266	0.00000	4704.04400
4.64649	0.00000	4704.04400
4.65033	0.00000	4704.04400
4.65415	0.00000	4704.04400
4.65799	0.00000	4726.56200
4.66182	0.00000	4726.56200
4.66565	0.00000	4726.56200
4.66947	0.00000	4726.56200
4.67330	0.00000	4726.56200
4.67713	0.00000	4726.56200
4.68097	0.00000	4754.46400
4.68479	0.00000	4754.46400
4.68864	0.00000	4754.46400
4.69247	0.00000	4754.46400
4.69630	0.00000	4754.46400
4.70013	0.00000	4754.46400
4.70396	0.00000	4706.80200
4.70778	0.00000	4706.80200
4.71163	0.00000	4706.80200
4.71546	0.00000	4706.80200
4.71929	0.00000	4706.80200
4.72312	0.00000	4706.80200
4.72695	0.00000	4701.28600
4.73078	0.00000	4701.28600
4.73462	0.00000	4701.28600
4.73846	0.00000	4701.28600
4.74232	0.00000	4701.28600
4.74616	0.00000	4737.72300
4.75000	0.00000	4737.72300
4.75383	0.00000	4737.72300
4.75766	0.00000	4737.72300
4.76149	0.00000	4737.72300
4.76532	0.00000	4737.72300
4.76915	0.00000	4746.09400
4.77300	0.00000	4746.09400
4.77682	0.00000	4746.09400
4.78065	0.00000	4746.09400
4.78449	0.00000	4746.09400
4.78832	0.00000	4746.09400
4.79216	0.00000	4751.67400
4.79599	0.00000	4751.67400
4.79983	0.00000	4751.67400
4.80366	0.00000	4751.67400
4.80749	0.00000	4751.67400
4.81132	0.00000	4751.67400
4.81515	0.00000	4701.28600
4.81899	0.00000	4701.28600
4.82283	0.00000	4701.28600
4.82667	0.00000	4701.28600
4.83049	0.00000	4701.28600
4.83432	0.00000	4681.98500
4.83815	0.00000	4681.98500
4.84198	0.00000	4681.98500
4.84582	0.00000	4681.98500
4.84966	0.00000	4681.98500
4.85349	0.00000	4681.98500
4.85732	0.00000	4737.72300
4.86116	0.00000	4737.72300
4.86499	0.00000	4737.72300
4.86882	0.00000	4737.72300
4.87266	0.00000	4737.72300
4.87649	0.00000	4737.72300
4.88032	0.00000	4760.04500
4.88415	0.00000	4760.04500
4.88798	0.00000	4760.04500
4.89182	0.00000	4760.04500
4.89565	0.00000	4760.04500
4.89950	0.00000	4760.04500
4.90333	0.00000	4709.55900
4.90716	0.00000	4709.55900
4.91099	0.00000	4709.55900
4.91482	0.00000	4709.55900
4.91865	0.00000	4709.55900
4.92248	0.00000	4670.95500
4.92630	0.00000	4670.95500
4.93013	0.00000	4670.95500
4.93397	0.00000	4670.95500
4.93780	0.00000	4670.95500
4.94163	0.00000	4670.95500
4.94546	0.00000	4690.25700
4.94929	0.00000	4690.25700
4.95312	0.00000	4690.25700
4.95695	0.00000	4690.25700
4.96078	0.00000	4690.25700
4.96461	0.00000	4690.25700
4.96844	0.00000	4706.80200
4.97228	0.00000	4706.80200
4.97611	0.00000	4706.80200
4.97995	0.00000	4706.80200
4.98377	0.00000	4706.80200
4.98760	0.00000	4706.80200
4.99143	0.00000	4701.28600
4.99527	0.00000	4701.28600
4.99909	0.00000	4701.28600
5.00342	0.00000	4701.28600
5.00730	0.00000	4701.28600
5.01115	0.00000	4718.19200
5.01501	0.00000	4718.19200
5.01890	0.00000	4718.19200
5.02277	0.00000	4718.19200
5.02663	0.00000	4718.19200
5.03047	0.00000	4718.19200
5.03438	0.00000	4786.76400
5.03826	0.00000	4786.76400
5.04209	0.00000	4786.76400
5.04591	0.00000	4786.76400
5.04975	0.00000	4786.76400
5.05359	0.00000	4786.76400
5.05743	0.00000	5060.95400
5.06127	0.00000	5060.95400
5.06512	0.00000	5060.95400
5.06897	0.00000	5060.95400
5.07282	0.00000	5060.95400
5.07667	0.00000	5060.95400
5.08050	0.00000	5060.95400
5.08435	0.00000	5249.52100
5.08818	0.00000	5249.52100
5.09203	0.00000	5249.52100
5.09586	0.00000	5249.52100
5.09970	0.00000	5249.52100
5.10354	0.00000	5249.52100
5.10738	0.00000	5249.52100
5.11122	0.00000	5429.68700
5.11506	0.00000	5429.68700
5.11889	0.00000	5429.68700
5.12273	0.00000	5429.68700
5.12657	0.00000	5429.68700
5.13042	0.00000	5429.68700
5.13425	0.00000	5429.68700
5.13811	0.00000	5551.33900
5.14195	0.00000	5551.33900
5.14578	0.00000	5551.33900
5.14961	0.00000	5551.33900
5.15345	0.00000	5551.33900
5.15729	0.00000	5551.33900
5.16114	0.00000	5551.33900
5.16498	0.00000	5622.80900
5.16884	0.00000	5622.80900
5.17267	0.00000	5622.80900
5.17650	0.00000	5622.80900
5.18034	0.00000	5622.80900
5.18420	0.00000	5622.80900
5.18805	0.00000	5622.80900
5.19192	0.00000	5685.76400
5.19576	0.00000	5685.76400
5.19961	0.00000	5685.76400
5.20346	0.00000	5685.76400
5.20730	0.00000	5685.76400
5.21115	0.00000	5685.76400
5.21500	0.00000	5685.76400
5.21884	0.00000	5685.76400
5.22269	0.00000	5713.15900
5.22653	0.00000	5713.15900
5.23038	0.00000	5713.15900
5.23421	0.00000	5713.15900
5.23805	0.00000	5713.15900
5.24188	0.00000	5713.15900
5.24574	0.00000	5713.15900
5.24958	0.00000	5710.22700
5.25344	0.00000	5710.22700
5.25730	0.00000	5710.22700
5.26115	0.00000	5710.22700
5.26498	0.00000	5710.22700
5.26883	0.00000	5710.22700
5.27267	0.00000	5710.22700
5.27651	0.00000	5710.22700
5.28038	0.00000	5761.36300
5.28424	0.00000	5761.36300
5.28808	0.00000	5761.36300
5.29192	0.00000	5761.36300
5.29577	0.00000	5761.36300
5.29962	0.00000	5761.36300
5.30347	0.00000	5761.36300
5.30732	0.00000	5730.57400
5.31118	0.00000	5730.57400
5.31502	0.00000	5730.57400
5.31887	0.00000	5730.57400
5.32271	0.00000	5730.57400
5.32655	0.00000	5730.57400
5.33040	0.00000	5730.57400
5.33425	0.00000	5730.57400
5.33810	0.00000	5751.68900
5.34195	0.00000	5751.68900
5.34579	0.00000	5751.68900
5.34964	0.00000	5751.68900
5.35348	0.00000	5751.68900
5.35731	0.00000	5751.68900
5.36116	0.00000	5751.68900
5.36500	0.00000	5767.75600
5.36885	0.00000	5767.75600
5.37273	0.00000	5767.75600
5.37658	0.00000	5767.75600
5.38043	0.00000	5767.75600
5.38428	0.00000	5767.75600
5.38814	0.00000	5767.75600
5.39199	0.00000	5767.75600
5.39584	0.00000	5764.35800
5.39971	0.00000	5764.35800
5.40355	0.00000	5764.35800
5.40740	0.00000	5764.35800
5.41124	0.00000	5764.35800
5.41511	0.00000	5764.35800
5.41896	0.00000	5764.35800
5.42280	0.00000	5759.23300
5.42666	0.00000	5759.23300
5.43050	0.00000	5759.23300
5.43434	0.00000	5759.23300
5.43816	0.00000	5759.23300
5.44201	0.00000	5759.23300
5.44585	0.00000	5759.23300
5.44969	0.00000	5759.23300
5.45353	0.00000	5764.35800
5.45737	0.00000	5764.35800
5.46121	0.00000	5764.35800
5.46505	0.00000	5764.35800
5.46891	0.00000	5764.35800
5.47275	0.00000	5764.35800
5.47659	0.00000	5764.35800
5.48045	0.00000	5711.57100
5.48429	0.00000	5711.57100
5.48814	0.00000	5711.57100
5.49199	0.00000	5711.57100
5.49583	0.00000	5711.57100
5.49968	0.00000	5711.57100
5.50352	0.00000	5711.57100
5.50737	0.00000	5711.57100
5.51121	0.00000	5753.80100
5.51507	0.00000	5753.80100
5.51891	0.00000	5753.80100
5.52276	0.00000	5753.80100
5.52660	0.00000	5753.80100
5.53045	0.00000	5753.80100
5.53429	0.00000	5753.80100
5.53813	0.00000	5709.45900
5.54199	0.00000	5709.45900
5.54583	0.00000	5709.45900
5.54966	0.00000	5709.45900
5.55350	0.00000	5709.45900
5.55735	0.00000	5709.45900
5.56120	0.00000	5709.45900
5.56504	0.00000	5709.45900
5.56887	0.00000	5698.24200
5.57272	0.00000	5698.24200
5.57656	0.00000	5698.24200
5.58039	0.00000	5698.24200
5.58423	0.00000	5698.24200
5.58807	0.00000	5698.24200
5.59191	0.00000	5698.24200
5.59576	0.00000	5715.79400
5.59960	0.00000	5715.79400
5.60346	0.00000	5715.79400
5.60729	0.00000	5715.79400
5.61113	0.00000	5715.79400
5.61497	0.00000	5715.79400
5.61881	0.00000	5715.79400
5.62264	0.00000	5715.79400
5.62649	0.00000	5704.52000
5.63034	0.00000	5704.52000
5.63422	0.00000	5704.52000
5.63807	0.00000	5704.52000
5.64192	0.00000	5704.52000
5.64576	0.00000	5704.52000
5.64961	0.00000	5704.52000
5.65345	0.00000	5715.79400
5.65729	0.00000	5715.79400
5.66113	0.00000	5715.79400
5.66498	0.00000	5715.79400
5.66883	0.00000	5715.79400
5.67267	0.00000	5715.79400
5.67652	0.00000	5715.79400
5.68036	0.00000	5715.79400
5.68420	0.00000	5751.68900
5.68804	0.00000	5751.68900
5.69188	0.00000	5751.68900
5.69571	0.00000	5751.68900
5.69955	0.00000	5751.68900
5.70339	0.00000	5751.68900
5.70724	0.00000	5751.68900
5.71108	0.00000	5769.88600
5.71493	0.00000	5769.88600
5.71877	0.00000	5769.88600
5.72262	0.00000	5769.88600
5.72646	0.00000	5769.88600
5.73032	0.00000	5769.88600
5.73416	0.00000	5769.88600
5.73800	0.00000	5769.88600
5.74184	0.00000	5747.46600
5.74569	0.00000	5747.46600
5.74953	0.00000	5747.46600
5.75337	0.00000	5747.46600
5.75721	0.00000	5747.46600
5.76105	0.00000	5747.46600
5.76488	0.00000	5747.46600
5.76872	0.00000	5774.14800
5.77258	0.00000	5774.14800
5.77642	0.00000	5774.14800
5.78026	0.00000	5774.14800
5.78411	0.00000	5774.14800
5.78795	0.00000	5774.14800
5.79180	0.00000	5774.14800
5.79564	0.00000	5774.14800
5.79948	0.00000	5747.46600
5.80333	0.00000	5747.46600
5.80717	0.00000	5747.46600
5.81103	0.00000	5747.46600
5.81487	0.00000	5747.46600
5.81871	0.00000	5747.46600
5.82256	0.00000	5747.46600
5.82640	0.00000	5724.23900
5.83024	0.00000	5724.23900
5.83408	0.00000	5724.23900
5.83792	0.00000	5724.23900
5.84176	0.00000	5724.23900
5.84560	0.00000	5724.23900
5.84945	0.00000	5724.23900
5.85329	0.00000	5724.23900
5.85714	0.00000	5698.24200
5.86098	0.00000	5698.24200
5.86482	0.00000	5698.24200
5.86867	0.00000	5698.24200
5.87251	0.00000	5698.24200
5.87634	0.00000	5698.24200
5.88018	0.00000	5698.24200
5.88403	0.00000	5722.12800
5.88789	0.00000	5722.12800
5.89174	0.00000	5722.12800
5.89558	0.00000	5722.12800
5.89942	0.00000	5722.12800
5.90326	0.00000	5722.12800
5.90710	0.00000	5722.12800
5.91094	0.00000	5722.12800
5.91479	0.00000	5689.87100
5.91863	0.00000	5689.87100
5.92247	0.00000	5689.87100
5.92632	0.00000	5689.87100
5.93015	0.00000	5689.87100
5.93401	0.00000	5689.87100
5.93785	0.00000	5689.87100
5.94169	0.00000	5724.23900
5.94552	0.00000	5724.23900
5.94937	0.00000	5724.23900
5.95322	0.00000	5724.23900
5.95706	0.00000	5724.23900
5.96090	0.00000	5724.23900
5.96476	0.00000	5724.23900
5.96860	0.00000	5724.23900
5.97245	0.00000	5745.35500
5.97630	0.00000	5745.35500
5.98014	0.00000	5745.35500
5.98397	0.00000	5745.35500
5.98781	0.00000	5745.35500
5.99167	0.00000	5745.35500
5.99552	0.00000	5745.35500
5.99936	0.00000	5776.27800
6.00321	0.00000	5776.27800
6.00706	0.00000	5776.27800
6.01092	0.00000	5776.27800
6.01475	0.00000	5776.27800
6.01860	0.00000	5776.27800
6.02244	0.00000	5776.27800
6.02628	0.00000	5776.27800
6.03012	0.00000	5751.68900
6.03398	0.00000	5751.68900
6.03782	0.00000	5751.68900
6.04165	0.00000	5751.68900
6.04549	0.00000	5751.68900
6.04933	0.00000	5751.68900
6.05317	0.00000	5751.68900
6.05702	0.00000	5767.75600
6.06086	0.00000	5767.75600
6.06470	0.00000	5767.75600
6.06855	0.00000	5767.75600
6.07240	0.00000	5767.75600
6.07626	0.00000	5767.75600
6.08010	0.00000	5767.75600
6.08395	0.00000	5767.75600
6.08779	0.00000	5755.91200
6.09163	0.00000	5755.91200
6.09546	0.00000	5755.91200
6.09931	0.00000	5755.91200
6.10315	0.00000	5755.91200
6.10699	0.00000	5755.91200
6.11084	0.00000	5755.91200
6.11469	0.00000	5713.68200
6.11855	0.00000	5713.68200
6.12239	0.00000	5713.68200
6.12623	0.00000	5713.68200
6.13007	0.00000	5713.68200
6.13391	0.00000	5713.68200
6.13775	0.00000	5713.68200
6.14159	0.00000	5713.68200
6.14544	0.00000	5753.80100
6.14929	0.00000	5753.80100
6.15314	0.00000	5753.80100
6.15698	0.00000	5753.80100
6.16082	0.00000	5753.80100
6.16466	0.00000	5753.80100
6.16850	0.00000	5753.80100
6.17235	0.00000	5711.57100
6.17620	0.00000	5711.57100
6.18004	0.00000	5711.57100
6.18388	0.00000	5711.57100
6.18773	0.00000	5711.57100
6.19158	0.00000	5711.57100
6.19542	0.00000	5711.57100
6.19926	0.00000	5711.57100
6.20309	0.00000	5708.70500
6.20693	0.00000	5708.70500
6.21078	0.00000	5708.70500
6.21462	0.00000	5708.70500
6.21847	0.00000	5708.70500
6.22232	0.00000	5708.70500
6.22616	0.00000	5708.70500
6.23000	0.00000	5713.68200
6.23383	0.00000	5713.68200
6.23767	0.00000	5713.68200
6.24152	0.00000	5713.68200
6.24536	0.00000	5713.68200
6.24921	0.00000	5713.68200
6.25306	0.00000	5713.68200
6.25691	0.00000	5713.68200
6.26075	0.00000	5758.02400
6.26460	0.00000	5758.02400
6.26844	0.00000	5758.02400
6.27228	0.00000	5758.02400
6.27611	0.00000	5758.02400
6.27996	0.00000	5758.02400
6.28379	0.00000	5758.02400
6.28764	0.00000	5761.36300
6.29149	0.00000	5761.36300
6.29533	0.00000	5761.36300
6.29918	0.00000	5761.36300
6.30302	0.00000	5761.36300
6.30685	0.00000	5761.36300
6.31070	0.00000	5761.36300
6.31454	0.00000	5761.36300
6.31838	0.00000	5762.24600
6.32224	0.00000	5762.24600
6.32609	0.00000	5762.24600
6.32992	0.00000	5762.24600
6.33377	0.00000	5762.24600
6.33761	0.00000	5762.24600
6.34144	0.00000	5762.24600
6.34529	0.00000	5763.49400
6.34912	0.00000	5763.49400
6.35297	0.00000	5763.49400
6.35681	0.00000	5763.49400
6.36066	0.00000	5763.49400
6.36451	0.00000	5763.49400
6.36837	0.00000	5763.49400
6.37225	0.00000	5763.49400
6.37609	0.00000	5755.91200
6.37994	0.00000	5755.91200
6.38379	0.00000	5755.91200
6.38763	0.00000	5755.91200
6.39147	0.00000	5755.91200
6.39532	0.00000	5755.91200
6.39918	0.00000	5755.91200
6.40304	0.00000	5713.68200
6.40688	0.00000	5713.68200
6.41073	0.00000	5713.68200
6.41459	0.00000	5713.68200
6.41844	0.00000	5713.68200
6.42228	0.00000	5713.68200
6.42612	0.00000	5713.68200
6.42997	0.00000	5713.68200
6.43381	0.00000	5708.70500
6.43766	0.00000	5708.70500
6.44154	0.00000	5708.70500
6.44538	0.00000	5708.70500
6.44923	0.00000	5708.70500
6.45307	0.00000	5708.70500
6.45691	0.00000	5708.70500
6.46075	0.00000	5713.68200
6.46458	0.00000	5713.68200
6.46843	0.00000	5713.68200
6.47227	0.00000	5713.68200
6.47611	0.00000	5713.68200
6.47996	0.00000	5713.68200
6.48381	0.00000	5713.68200
6.48765	0.00000	5713.68200
6.49149	0.00000	5706.61300
6.49533	0.00000	5706.61300
6.49917	0.00000	5706.61300
6.50301	0.00000	5706.61300
6.50686	0.00000	5706.61300
6.51070	0.00000	5706.61300
6.51454	0.00000	5706.61300
6.51839	0.00000	5703.12500
6.52224	0.00000	5703.12500
6.52609	0.00000	5703.12500
6.52997	0.00000	5703.12500
6.53382	0.00000	5703.12500
6.53767	0.00000	5703.12500
6.54150	0.00000	5703.12500
6.54535	0.00000	5703.12500
6.54921	0.00000	5760.13500
6.55306	0.00000	5760.13500
6.55691	0.00000	5760.13500
6.56075	0.00000	5760.13500
6.56460	0.00000	5760.13500
6.56844	0.00000	5760.13500
6.57230	0.00000	5760.13500
6.57614	0.00000	5763.49400
6.57998	0.00000	5763.49400
6.58383	0.00000	5763.49400
6.58769	0.00000	5763.49400
6.59153	0.00000	5763.49400
6.59537	0.00000	5763.49400
6.59922	0.00000	5763.49400
6.60307	0.00000	5763.49400
6.60690	0.00000	5760.13500
6.61074	0.00000	5760.13500
6.61457	0.00000	5760.13500
6.61841	0.00000	5760.13500
6.62226	0.00000	5760.13500
6.62610	0.00000	5760.13500
6.62996	0.00000	5760.13500
6.63380	0.00000	5761.36300
6.63764	0.00000	5761.36300
6.64148	0.00000	5761.36300
6.64532	0.00000	5761.36300
6.64916	0.00000	5761.36300
6.65300	0.00000	5761.36300
6.65685	0.00000	5761.36300
6.66069	0.00000	5761.36300
6.66453	0.00000	5758.02400
6.66838	0.00000	5758.02400
6.67222	0.00000	5758.02400
6.67606	0.00000	5758.02400
6.67990	0.00000	5758.02400
6.68374	0.00000	5758.02400
6.68759	0.00000	5758.02400
6.69142	0.00000	5763.49400
6.69527	0.00000	5763.49400
6.69912	0.00000	5763.49400
6.70297	0.00000	5763.49400
6.70682	0.00000	5763.49400
6.71067	0.00000	5763.49400
6.71451	0.00000	5763.49400
6.71835	0.00000	5763.49400
6.72215	0.00000	5753.80100
6.72600	0.00000	5753.80100
6.72984	0.00000	5753.80100
6.73369	0.00000	5753.80100
6.73753	0.00000	5753.80100
6.74138	0.00000	5753.80100
6.74522	0.00000	5753.80100
6.74907	0.00000	5711.57100
6.75291	0.00000	5711.57100
6.75674	0.00000	5711.57100
6.76059	0.00000	5711.57100
6.76444	0.00000	5711.57100
6.76829	0.00000	5711.57100
6.77214	0.00000	5711.57100
6.77598	0.00000	5711.57100
6.77983	0.00000	5706.61300
6.78367	0.00000	5706.61300
6.78751	0.00000	5706.61300
6.79135	0.00000	5706.61300
6.79520	0.00000	5706.61300
6.79903	0.00000	5706.61300
6.80288	0.00000	5706.61300
6.80675	0.00000	5713.68200
6.81062	0.00000	5713.68200
6.81447	0.00000	5713.68200
6.81832	0.00000	5713.68200
6.82216	0.00000	5713.68200
6.82600	0.00000	5713.68200
6.82983	0.00000	5713.68200
6.83367	0.00000	5713.68200
6.83751	0.00000	5708.70500
6.84136	0.00000	5708.70500
6.84521	0.00000	5708.70500
6.84906	0.00000	5708.70500
6.85291	0.00000	5708.70500
6.85675	0.00000	5708.70500
6.86060	0.00000	5708.70500
6.86444	0.00000	5757.10200
6.86828	0.00000	5757.10200
6.87211	0.00000	5757.10200
6.87596	0.00000	5757.10200
6.87981	0.00000	5757.10200
6.88366	0.00000	5757.10200
6.88752	0.00000	5757.10200
6.89137	0.00000	5757.10200
6.89522	0.00000	5755.91200
6.89905	0.00000	5755.91200
6.90288	0.00000	5755.91200
6.90672	0.00000	5755.91200
6.91056	0.00000	5755.91200
6.91440	0.00000	5755.91200
6.91824	0.00000	5755.91200
6.92209	0.00000	5763.49400
6.92594	0.00000	5763.49400
6.92978	0.00000	5763.49400
6.93362	0.00000	5763.49400
6.93746	0.00000	5763.49400
6.94130	0.00000	5763.49400
6.94514	0.00000	5763.49400
6.94898	0.00000	5763.49400
6.95283	0.00000	5758.02400
6.95668	0.00000	5758.02400
6.96054	0.00000	5758.02400
6.96438	0.00000	5758.02400
6.96822	0.00000	5758.02400
6.97206	0.00000	5758.02400
6.97590	0.00000	5758.02400
6.97974	0.00000	5765.62500
6.98359	0.00000	5765.62500
6.98744	0.00000	5765.62500
6.99128	0.00000	5765.62500
6.99513	0.00000	5765.62500
6.99898	0.00000	5765.62500
7.00283	0.00000	5765.62500
7.00667	0.00000	5765.62500
7.01051	0.00000	5749.57700
7.01434	0.00000	5749.57700
7.01815	0.00000	5749.57700
7.02200	0.00000	5749.57700
7.02585	0.00000	5749.57700
7.02970	0.00000	5749.57700
7.03355	0.00000	5749.57700
7.03739	0.00000	5728.46200
7.04123	0.00000	5728.46200
7.04507	0.00000	5728.46200
7.04889	0.00000	5728.46200
7.05274	0.00000	5728.46200
7.05659	0.00000	5728.46200
7.06044	0.00000	5728.46200
7.06428	0.00000	5728.46200
7.06813	0.00000	5741.13200
7.07198	0.00000	5741.13200
7.07581	0.00000	5741.13200
7.07965	0.00000	5741.13200
7.08349	0.00000	5741.13200
7.08733	0.00000	5741.13200
7.09116	0.00000	5741.13200
7.09501	0.00000	5720.01600
7.09886	0.00000	5720.01600
7.10271	0.00000	5720.01600
7.10658	0.00000	5720.01600
7.11042	0.00000	5720.01600
7.11426	0.00000	5720.01600
7.11810	0.00000	5720.01600
7.12194	0.00000	5720.01600
7.12578	0.00000	5689.87100
7.12963	0.00000	5689.87100
7.13349	0.00000	5689.87100
7.13734	0.00000	5689.87100
7.14119	0.00000	5689.87100
7.14503	0.00000	5689.87100
7.14887	0.00000	5689.87100
7.15270	0.00000	5726.35100
7.15655	0.00000	5726.35100
7.16039	0.00000	5726.35100
7.16423	0.00000	5726.35100
7.16808	0.00000	5726.35100
7.17193	0.00000	5726.35100
7.17577	0.00000	5726.35100
7.17961	0.00000	5726.35100
7.18345	0.00000	5747.46600
7.18729	0.00000	5747.46600
7.19112	0.00000	5747.46600
7.19496	0.00000	5747.46600
7.19880	0.00000	5747.46600
7.20264	0.00000	5747.46600
7.20648	0.00000	5747.46600
7.21033	0.00000	5726.35100
7.21415	0.00000	5726.35100
7.21800	0.00000	5726.35100
7.22184	0.00000	5726.35100
7.22567	0.00000	5726.35100
7.22951	0.00000	5726.35100
7.23336	0.00000	5726.35100
7.23721	0.00000	5726.35100
7.24106	0.00000	5743.24300
7.24492	0.00000	5743.24300
7.24876	0.00000	5743.24300
7.25260	0.00000	5743.24300
7.25643	0.00000	5743.24300
7.26028	0.00000	5743.24300
7.26411	0.00000	5743.24300
7.26794	0.00000	5774.14800
7.27178	0.00000	5774.14800
7.27564	0.00000	5774.14800
7.27948	0.00000	5774.14800
7.28333	0.00000	5774.14800
7.28716	0.00000	5774.14800
7.29101	0.00000	5774.14800
7.29484	0.00000	5774.14800
7.29868	0.00000	5743.24300
7.30252	0.00000	5743.24300
7.30637	0.00000	5743.24300
7.31021	0.00000	5743.24300
7.31405	0.00000	5743.24300
7.31790	0.00000	5743.24300
7.32174	0.00000	5743.24300
7.32558	0.00000	5778.40900
7.32942	0.00000	5778.40900
7.33327	0.00000	5778.40900
7.33712	0.00000	5778.40900
7.34095	0.00000	5778.40900
7.34479	0.00000	5778.40900
7.34865	0.00000	5778.40900
7.35249	0.00000	5778.40900
7.35635	0.00000	5745.35500
7.36018	0.00000	5745.35500
7.36402	0.00000	5745.35500
7.36786	0.00000	5745.35500
7.37171	0.00000	5745.35500
7.37555	0.00000	5745.35500
7.37939	0.00000	5745.35500
7.38323	0.00000	5722.12800
7.38708	0.00000	5722.12800
7.39093	0.00000	5722.12800
7.39477	0.00000	5722.12800
7.39861	0.00000	5722.12800
7.40245	0.00000	5722.12800
7.40630	0.00000	5722.12800
7.41014	0.00000	5722.12800
7.41400	0.00000	5698.24200
7.41784	0.00000	5698.24200
7.42169	0.00000	5698.24200
7.42554	0.00000	5698.24200
7.42939	0.00000	5698.24200
7.43325	0.00000	5698.24200
7.43709	0.00000	5698.24200
7.44093	0.00000	5720.01600
7.44479	0.00000	5720.01600
7.44864	0.00000	5720.01600
7.45248	0.00000	5720.01600
7.45633	0.00000	5720.01600
7.46019	0.00000	5720.01600
7.46403	0.00000	5720.01600
7.46787	0.00000	5720.01600
7.47171	0.00000	5694.05700
7.47555	0.00000	5694.05700
7.47939	0.00000	5694.05700
7.48323	0.00000	5694.05700
7.48707	0.00000	5694.05700
7.49092	0.00000	5694.05700
7.49477	0.00000	5694.05700
7.49862	0.00000	5713.68200
7.50246	0.00000	5713.68200
7.50631	0.00000	5713.68200
7.51016	0.00000	5713.68200
7.51399	0.00000	5713.68200
7.51783	0.00000	5713.68200
7.52167	0.00000	5713.68200
7.52552	0.00000	5713.68200
7.52936	0.00000	5758.02400
7.53321	0.00000	5758.02400
7.53705	0.00000	5758.02400
7.54089	0.00000	5758.02400
7.54473	0.00000	5758.02400
7.54858	0.00000	5758.02400
7.55242	0.00000	5758.02400
7.55626	0.00000	5763.49400
7.56010	0.00000	5763.49400
7.56394	0.00000	5763.49400
7.56779	0.00000	5763.49400
7.57164	0.00000	5763.49400
7.57548	0.00000	5763.49400
7.57933	0.00000	5763.49400
7.58317	0.00000	5763.49400
7.58701	0.00000	5760.13500
7.59086	0.00000	5760.13500
7.59470	0.00000	5760.13500
7.59854	0.00000	5760.13500
7.60239	0.00000	5760.13500
7.60623	0.00000	5760.13500
7.61008	0.00000	5760.13500
7.61394	0.00000	5769.88600
7.61778	0.00000	5769.88600
7.62162	0.00000	5769.88600
7.62546	0.00000	5769.88600
7.62931	0.00000	5769.88600
7.63315	0.00000	5769.88600
7.63700	0.00000	5769.88600
7.64084	0.00000	5769.88600
7.64468	0.00000	5755.91200
7.64852	0.00000	5755.91200
7.65238	0.00000	5755.91200
7.65621	0.00000	5755.91200
7.66005	0.00000	5755.91200
7.66389	0.00000	5755.91200
7.66772	0.00000	5755.91200
7.67156	0.00000	5759.23300
7.67540	0.00000	5759.23300
7.67925	0.00000	5759.23300
7.68309	0.00000	5759.23300
7.68693	0.00000	5759.23300
7.69077	0.00000	5759.23300
7.69462	0.00000	5759.23300
7.69845	0.00000	5759.23300
7.70229	0.00000	5706.61300
7.70613	0.00000	5706.61300
7.70998	0.00000	5706.61300
7.71383	0.00000	5706.61300
7.71766	0.00000	5706.61300
7.72150	0.00000	5706.61300
7.72534	0.00000	5706.61300
7.72918	0.00000	5709.45900
7.73303	0.00000	5709.45900
7.73687	0.00000	5709.45900
7.74072	0.00000	5709.45900
7.74457	0.00000	5709.45900
7.74842	0.00000	5709.45900
7.75227	0.00000	5709.45900
7.75612	0.00000	5709.45900
7.75996	0.00000	5706.61300
7.76380	0.00000	5706.61300
7.76763	0.00000	5706.61300
7.77148	0.00000	5706.61300
7.77532	0.00000	5706.61300
7.77917	0.00000	5706.61300
7.78302	0.00000	5706.61300
7.78687	0.00000	5715.79400
7.79071	0.00000	5715.79400
7.79456	0.00000	5715.79400
7.79840	0.00000	5715.79400
7.80223	0.00000	5715.79400
7.80608	0.00000	5715.79400
7.80991	0.00000	5715.79400
7.81375	0.00000	5715.79400
7.81759	0.00000	5753.80100
7.82144	0.00000	5753.80100
7.82529	0.00000	5753.80100
7.82914	0.00000	5753.80100
7.83298	0.00000	5753.80100
7.83683	0.00000	5753.80100
7.84067	0.00000	5753.80100
7.84452	0.00000	5765.62500
7.84836	0.00000	5765.62500
7.85220	0.00000	5765.62500
7.85605	0.00000	5765.62500
7.85990	0.00000	5765.62500
7.86374	0.00000	5765.62500
7.86759	0.00000	5765.62500
7.87143	0.00000	5765.62500
7.87527	0.00000	5745.35500
7.87910	0.00000	5745.35500
7.88294	0.00000	5745.35500
7.88679	0.00000	5745.35500
7.89063	0.00000	5745.35500
7.89449	0.00000	5745.35500
7.89834	0.00000	5745.35500
7.90216	0.00000	5776.27800
7.90600	0.00000	5776.27800
7.90985	0.00000	5776.27800
7.91369	0.00000	5776.27800
7.91752	0.00000	5776.27800
7.92137	0.00000	5776.27800
7.92522	0.00000	5776.27800
7.92906	0.00000	5776.27800
7.93290	0.00000	5749.57700
7.93676	0.00000	5749.57700
7.94060	0.00000	5749.57700
7.94446	0.00000	5749.57700
7.94830	0.00000	5749.57700
7.95213	0.00000	5749.57700
7.95597	0.00000	5749.57700
7.95981	0.00000	5772.01700
7.96366	0.00000	5772.01700
7.96750	0.00000	5772.01700
7.97135	0.00000	5772.01700
7.97519	0.00000	5772.01700
7.97904	0.00000	5772.01700
7.98288	0.00000	5772.01700
7.98672	0.00000	5772.01700
7.99056	0.00000	5743.24300
7.99440	0.00000	5743.24300
7.99824	0.00000	5743.24300
8.00209	0.00000	5743.24300
8.00594	0.00000	5743.24300
8.00978	0.00000	5743.24300
8.01363	0.00000	5743.24300
8.01747	0.00000	5730.57400
8.02131	0.00000	5730.57400
8.02517	0.00000	5730.57400
8.02901	0.00000	5730.57400
8.03285	0.00000	5730.57400
8.03670	0.00000	5730.57400
8.04054	0.00000	5730.57400
8.04439	0.00000	5730.57400
8.04823	0.00000	5694.05700
8.05208	0.00000	5694.05700
8.05592	0.00000	5694.05700
8.05976	0.00000	5694.05700
8.06360	0.00000	5694.05700
8.06745	0.00000	5694.05700
8.07129	0.00000	5694.05700
8.07515	0.00000	5720.01600
8.07899	0.00000	5720.01600
8.08283	0.00000	5720.01600
8.08668	0.00000	5720.01600
8.09052	0.00000	5720.01600
8.09436	0.00000	5720.01600
8.09821	0.00000	5720.01600
8.10204	0.00000	5720.01600
8.10588	0.00000	5743.24300
8.10972	0.00000	5743.24300
8.11356	0.00000	5743.24300
8.11780	0.00000	5743.24300
8.12175	0.00000	5743.24300
8.12562	0.00000	5743.24300
8.12949	0.00000	5743.24300
8.13340	0.00000	5724.23900
8.13734	0.00000	5724.23900
8.14120	0.00000	5724.23900
8.14505	0.00000	5724.23900
8.14890	0.00000	5724.23900
8.15275	0.00000	5724.23900
8.15660	0.00000	5724.23900
8.16044	0.00000	5774.14800
8.16427	0.00000	5774.14800
8.16811	0.00000	5774.14800
8.17195	0.00000	5774.14800
8.17580	0.00000	5774.14800
8.17965	0.00000	5774.14800
8.18349	0.00000	5774.14800
8.18734	0.00000	5774.14800
8.19118	0.00000	5732.68500
8.19503	0.00000	5732.68500
8.19888	0.00000	5732.68500
8.20274	0.00000	5732.68500
8.20657	0.00000	5732.68500
8.21042	0.00000	5732.68500
8.21426	0.00000	5732.68500
8.21810	0.00000	5774.14800
8.22194	0.00000	5774.14800
8.22579	0.00000	5774.14800
8.22963	0.00000	5774.14800
8.23347	0.00000	5774.14800
8.23731	0.00000	5774.14800
8.24115	0.00000	5774.14800
8.24499	0.00000	5774.14800
8.24882	0.00000	5728.46200
8.25267	0.00000	5728.46200
8.25651	0.00000	5728.46200
8.26035	0.00000	5728.46200
8.26420	0.00000	5728.46200
8.26805	0.00000	5728.46200
8.27189	0.00000	5728.46200
8.27573	0.00000	5774.14800
8.27957	0.00000	5774.14800
8.28341	0.00000	5774.14800
8.28725	0.00000	5774.14800
8.29109	0.00000	5774.14800
8.29494	0.00000	5774.14800
8.29879	0.00000	5774.14800
8.30263	0.00000	5774.14800
8.30648	0.00000	5724.23900
8.31033	0.00000	5724.23900
8.31415	0.00000	5724.23900
8.31800	0.00000	5724.23900
8.32183	0.00000	5724.23900
8.32567	0.00000	5724.23900
8.32951	0.00000	5724.23900
8.33337	0.00000	5774.14800
8.33722	0.00000	5774.14800
8.34107	0.00000	5774.14800
8.34492	0.00000	5774.14800
8.34878	0.00000	5774.14800
8.35262	0.00000	5774.14800
8.35646	0.00000	5774.14800
8.36030	0.00000	5774.14800
8.36414	0.00000	5739.02000
8.36799	0.00000	5739.02000
8.37184	0.00000	5739.02000
8.37570	0.00000	5739.02000
8.37955	0.00000	5739.02000
8.38340	0.00000	5739.02000
8.38725	0.00000	5739.02000
8.39109	0.00000	5774.14800
8.39495	0.00000	5774.14800
8.39879	0.00000	5774.14800
8.40263	0.00000	5774.14800
8.40648	0.00000	5774.14800
8.41033	0.00000	5774.14800
8.41416	0.00000	5774.14800
8.41800	0.00000	5774.14800
8.42184	0.00000	5747.46600
8.42568	0.00000	5747.46600
8.42952	0.00000	5747.46600
8.43336	0.00000	5747.46600
8.43721	0.00000	5747.46600
8.44106	0.00000	5747.46600
8.44494	0.00000	5747.46600
8.44879	0.00000	5769.88600
8.45266	0.00000	5769.88600
8.45650	0.00000	5769.88600
8.46035	0.00000	5769.88600
8.46420	0.00000	5769.88600
8.46804	0.00000	5769.88600
8.47188	0.00000	5769.88600
8.47572	0.00000	5769.88600
8.47956	0.00000	5749.57700
8.48339	0.00000	5749.57700
8.48724	0.00000	5749.57700
8.49108	0.00000	5749.57700
8.49493	0.00000	5749.57700
8.49877	0.00000	5749.57700
8.50261	0.00000	5749.57700
8.50645	0.00000	5715.79400
8.51031	0.00000	5715.79400
8.51415	0.00000	5715.79400
8.51799	0.00000	5715.79400
8.52184	0.00000	5715.79400
8.52569	0.00000	5715.79400
8.52953	0.00000	5715.79400
8.53339	0.00000	5715.79400
8.53723	0.00000	5704.52000
8.54106	0.00000	5704.52000
8.54490	0.00000	5704.52000
8.54874	0.00000	5704.52000
8.55259	0.00000	5704.52000
8.55642	0.00000	5704.52000
8.56027	0.00000	5704.52000
8.56412	0.00000	5713.68200
8.56798	0.00000	5713.68200
8.57183	0.00000	5713.68200
8.57566	0.00000	5713.68200
8.57950	0.00000	5713.68200
8.58334	0.00000	5713.68200
8.58718	0.00000	5713.68200
8.59103	0.00000	5713.68200
8.59487	0.00000	5704.52000
8.59872	0.00000	5704.52000
8.60257	0.00000	5704.52000
8.60641	0.00000	5704.52000
8.61026	0.00000	5704.52000
8.61410	0.00000	5704.52000
8.61794	0.00000	5704.52000
8.62178	0.00000	5717.90500
8.62564	0.00000	5717.90500
8.62948	0.00000	5717.90500
8.63332	0.00000	5717.90500
8.63717	0.00000	5717.90500
8.64100	0.00000	5717.90500
8.64484	0.00000	5717.90500
8.64868	0.00000	5717.90500
8.65251	0.00000	5758.02400
8.65635	0.00000	5758.02400
8.66020	0.00000	5758.02400
8.66405	0.00000	5758.02400
8.66789	0.00000	5758.02400
8.67173	0.00000	5758.02400
8.67557	0.00000	5758.02400
8.67942	0.00000	5765.62500
8.68330	0.00000	5765.62500
8.68714	0.00000	5765.62500
8.69098	0.00000	5765.62500
8.69482	0.00000	5765.62500
8.69866	0.00000	5765.62500
8.70251	0.00000	5765.62500
8.70637	0.00000	5765.62500
8.71022	0.00000	5749.57700
8.71406	0.00000	5749.57700
8.71791	0.00000	5749.57700
8.72175	0.00000	5749.57700
8.72559	0.00000	5749.57700
8.72944	0.00000	5749.57700
8.73328	0.00000	5749.57700
8.73712	0.00000	5774.14800
8.74099	0.00000	5774.14800
8.74483	0.00000	5774.14800
8.74868	0.00000	5774.14800
8.75252	0.00000	5774.14800
8.75636	0.00000	5774.14800
8.76020	0.00000	5774.14800
8.76404	0.00000	5774.14800
8.76788	0.00000	5749.57700
8.77172	0.00000	5749.57700
8.77556	0.00000	5749.57700
8.77941	0.00000	5749.57700
8.78326	0.00000	5749.57700
8.78711	0.00000	5749.57700
8.79095	0.00000	5749.57700
8.79478	0.00000	5726.35100
8.79864	0.00000	5726.35100
8.80248	0.00000	5726.35100
8.80631	0.00000	5726.35100
8.81016	0.00000	5726.35100
8.81401	0.00000	5726.35100
8.81786	0.00000	5726.35100
8.82171	0.00000	5726.35100
8.82554	0.00000	5689.87100
8.82938	0.00000	5689.87100
8.83322	0.00000	5689.87100
8.83706	0.00000	5689.87100
8.84090	0.00000	5689.87100
8.84474	0.00000	5689.87100
8.84858	0.00000	5689.87100
8.85243	0.00000	5726.35100
8.85629	0.00000	5726.35100
8.86014	0.00000	5726.35100
8.86399	0.00000	5726.35100
8.86784	0.00000	5726.35100
8.87168	0.00000	5726.35100
8.87551	0.00000	5726.35100
8.87935	0.00000	5726.35100
8.88319	0.00000	5741.13200
8.88703	0.00000	5741.13200
8.89088	0.00000	5741.13200
8.89472	0.00000	5741.13200
8.89857	0.00000	5741.13200
8.90241	0.00000	5741.13200
8.90624	0.00000	5741.13200
8.91008	0.00000	5720.01600
8.91394	0.00000	5720.01600
8.91778	0.00000	5720.01600
8.92162	0.00000	5720.01600
8.92547	0.00000	5720.01600
8.92932	0.00000	5720.01600
8.93317	0.00000	5720.01600
8.93701	0.00000	5720.01600
8.94085	0.00000	5745.35500
8.94469	0.00000	5745.35500
8.94853	0.00000	5745.35500
8.95237	0.00000	5745.35500
8.95622	0.00000	5745.35500
8.96006	0.00000	5745.35500
8.96392	0.00000	5745.35500
8.96776	0.00000	5774.14800
8.97165	0.00000	5774.14800
8.97551	0.00000	5774.14800
8.97935	0.00000	5774.14800
8.98319	0.00000	5774.14800
8.98702	0.00000	5774.14800
8.99086	0.00000	5774.14800
8.99470	0.00000	5774.14800
8.99854	0.00000	5755.91200
9.00239	0.00000	5755.91200
9.00624	0.00000	5755.91200
9.01008	0.00000	5755.91200
9.01392	0.00000	5755.91200
9.01777	0.00000	5755.91200
9.02164	0.00000	5755.91200
9.02549	0.00000	5763.49400
9.02935	0.00000	5763.49400
9.03319	0.00000	5763.49400
9.03705	0.00000	5763.49400
9.04089	0.00000	5763.49400
9.04475	0.00000	5763.49400
9.04859	0.00000	5763.49400
9.05244	0.00000	5763.49400
9.05628	0.00000	5755.91200
9.06012	0.00000	5755.91200
9.06396	0.00000	5755.91200
9.06780	0.00000	5755.91200
9.07165	0.00000	5755.91200
9.07549	0.00000	5755.91200
9.07935	0.00000	5755.91200
9.08319	0.00000	5759.23300
9.08705	0.00000	5759.23300
9.09089	0.00000	5759.23300
9.09473	0.00000	5759.23300
9.09857	0.00000	5759.23300
9.10240	0.00000	5759.23300
9.10625	0.00000	5759.23300
9.11009	0.00000	5759.23300
9.11396	0.00000	5760.13500
9.11781	0.00000	5760.13500
9.12165	0.00000	5760.13500
9.12548	0.00000	5760.13500
9.12932	0.00000	5760.13500
9.13316	0.00000	5760.13500
9.13699	0.00000	5760.13500
9.14083	0.00000	5717.90500
9.14468	0.00000	5717.90500
9.14853	0.00000	5717.90500
9.15237	0.00000	5717.90500
9.15623	0.00000	5717.90500
9.16007	0.00000	5717.90500
9.16391	0.00000	5717.90500
9.16775	0.00000	5717.90500
9.17159	0.00000	5694.05700
9.17543	0.00000	5694.05700
9.17927	0.00000	5694.05700
9.18312	0.00000	5694.05700
9.18697	0.00000	5694.05700
9.19080	0.00000	5694.05700
9.19466	0.00000	5694.05700
9.19850	0.00000	5730.57400
9.20234	0.00000	5730.57400
9.20615	0.00000	5730.57400
9.20999	0.00000	5730.57400
9.21382	0.00000	5730.57400
9.21767	0.00000	5730.57400
9.22152	0.00000	5730.57400
9.22535	0.00000	5730.57400
9.22919	0.00000	5743.24300
9.23304	0.00000	5743.24300
9.23687	0.00000	5743.24300
9.24071	0.00000	5743.24300
9.24455	0.00000	5743.24300
9.24840	0.00000	5743.24300
9.25225	0.00000	5743.24300
9.25610	0.00000	5778.40900
9.25997	0.00000	5778.40900
9.26381	0.00000	5778.40900
9.26767	0.00000	5778.40900
9.27151	0.00000	5778.40900
9.27535	0.00000	5778.40900
9.27918	0.00000	5778.40900
9.28303	0.00000	5778.40900
9.28687	0.00000	5751.68900
9.29072	0.00000	5751.68900
9.29456	0.00000	5751.68900
9.29841	0.00000	5751.68900
9.30225	0.00000	5751.68900
9.30609	0.00000	5751.68900
9.30995	0.00000	5751.68900
9.31380	0.00000	5767.75600
9.31765	0.00000	5767.75600
9.32148	0.00000	5767.75600
9.32533	0.00000	5767.75600
9.32918	0.00000	5767.75600
9.33302	0.00000	5767.75600
9.33687	0.00000	5767.75600
9.34072	0.00000	5767.75600
9.34456	0.00000	5764.35800
9.34840	0.00000	5764.35800
9.35224	0.00000	5764.35800
9.35607	0.00000	5764.35800
9.35992	0.00000	5764.35800
9.36377	0.00000	5764.35800
9.36762	0.00000	5764.35800
9.37147	0.00000	5711.57100
9.37531	0.00000	5711.57100
9.37916	0.00000	5711.57100
9.38299	0.00000	5711.57100
9.38683	0.00000	5711.57100
9.39067	0.00000	5711.57100
9.39451	0.00000	5711.57100
9.39835	0.00000	5711.57100
9.40215	0.00000	5706.61300
9.40601	0.00000	5706.61300
9.40985	0.00000	5706.61300
9.41371	0.00000	5706.61300
9.41754	0.00000	5706.61300
9.42139	0.00000	5706.61300
9.42522	0.00000	5706.61300
9.42907	0.00000	5711.57100
9.43292	0.00000	5711.57100
9.43676	0.00000	5711.57100
9.44061	0.00000	5711.57100
9.44448	0.00000	5711.57100
9.44833	0.00000	5711.57100
9.45217	0.00000	5711.57100
9.45601	0.00000	5711.57100
9.45985	0.00000	5743.24300
9.46369	0.00000	5743.24300
9.46754	0.00000	5743.24300
9.47138	0.00000	5743.24300
9.47523	0.00000	5743.24300
9.47909	0.00000	5743.24300
9.48294	0.00000	5743.24300
9.48679	0.00000	5724.23900
9.49064	0.00000	5724.23900
9.49448	0.00000	5724.23900
9.49832	0.00000	5724.23900
9.50216	0.00000	5724.23900
9.50601	0.00000	5724.23900
9.50985	0.00000	5724.23900
9.51370	0.00000	5724.23900
9.51755	0.00000	5751.68900
9.52140	0.00000	5751.68900
9.52525	0.00000	5751.68900
9.52908	0.00000	5751.68900
9.53292	0.00000	5751.68900
9.53677	0.00000	5751.68900
9.54061	0.00000	5751.68900
9.54446	0.00000	5769.88600
9.54833	0.00000	5769.88600
9.55218	0.00000	5769.88600
9.55603	0.00000	5769.88600
9.55988	0.00000	5769.88600
9.56373	0.00000	5769.88600
9.56757	0.00000	5769.88600
9.57142	0.00000	5769.88600
9.57525	0.00000	5753.80100
9.57909	0.00000	5753.80100
9.58293	0.00000	5753.80100
9.58678	0.00000	5753.80100
9.59062	0.00000	5753.80100
9.59447	0.00000	5753.80100
9.59831	0.00000	5753.80100
9.60215	0.00000	5774.14800
9.60602	0.00000	5774.14800
9.60986	0.00000	5774.14800
9.61369	0.00000	5774.14800
9.61753	0.00000	5774.14800
9.62137	0.00000	5774.14800
9.62522	0.00000	5774.14800
9.62906	0.00000	5774.14800
9.63291	0.00000	5745.35500
9.63675	0.00000	5745.35500
9.64060	0.00000	5745.35500
9.64443	0.00000	5745.35500
9.64827	0.00000	5745.35500
9.65211	0.00000	5745.35500
9.65596	0.00000	5745.35500
9.65981	0.00000	5715.79400
9.66368	0.00000	5715.79400
9.66753	0.00000	5715.79400
9.67138	0.00000	5715.79400
9.67523	0.00000	5715.79400
9.67906	0.00000	5715.79400
9.68290	0.00000	5715.79400
9.68674	0.00000	5715.79400
9.69058	0.00000	5700.33500
9.69442	0.00000	5700.33500
9.69826	0.00000	5700.33500
9.70210	0.00000	5700.33500
9.70597	0.00000	5700.33500
9.70983	0.00000	5700.33500
9.71367	0.00000	5700.33500
9.71751	0.00000	5717.90500
9.72137	0.00000	5717.90500
9.72522	0.00000	5717.90500
9.72906	0.00000	5717.90500
9.73291	0.00000	5717.90500
9.73676	0.00000	5717.90500
9.74060	0.00000	5717.90500
9.74446	0.00000	5717.90500
9.74830	0.00000	5698.24200
9.75214	0.00000	5698.24200
9.75598	0.00000	5698.24200
9.75983	0.00000	5698.24200
9.76368	0.00000	5698.24200
9.76752	0.00000	5698.24200
9.77135	0.00000	5698.24200
9.77520	0.00000	5720.01600
9.77905	0.00000	5720.01600
9.78290	0.00000	5720.01600
9.78674	0.00000	5720.01600
9.79058	0.00000	5720.01600
9.79442	0.00000	5720.01600
9.79826	0.00000	5720.01600
9.80210	0.00000	5720.01600
9.80594	0.00000	5751.68900
9.80978	0.00000	5751.68900
9.81362	0.00000	5751.68900
9.81748	0.00000	5751.68900
9.82132	0.00000	5751.68900
9.82517	0.00000	5751.68900
9.82901	0.00000	5751.68900
9.83286	0.00000	5767.75600
9.83670	0.00000	5767.75600
9.84054	0.00000	5767.75600
9.84437	0.00000	5767.75600
9.84822	0.00000	5767.75600
9.85207	0.00000	5767.75600
9.85592	0.00000	5767.75600
9.85978	0.00000	5767.75600
9.86362	0.00000	5749.57700
9.86747	0.00000	5749.57700
9.87131	0.00000	5749.57700
9.87514	0.00000	5749.57700
9.87898	0.00000	5749.57700
9.88283	0.00000	5749.57700
9.88668	0.00000	5749.57700
9.89052	0.00000	5774.14800
9.89437	0.00000	5774.14800
9.89821	0.00000	5774.14800
9.90205	0.00000	5774.14800
9.90589	0.00000	5774.14800
9.90974	0.00000	5774.14800
9.91358	0.00000	5774.14800
9.91743	0.00000	5774.14800
9.92127	0.00000	5751.68900
9.92513	0.00000	5751.68900
9.92898	0.00000	5751.68900
9.93282	0.00000	5751.68900
9.93667	0.00000	5751.68900
9.94051	0.00000	5751.68900
9.94435	0.00000	5751.68900
9.94819	0.00000	5722.12800
9.95203	0.00000	5722.12800
9.95587	0.00000	5722.12800
9.95971	0.00000	5722.12800
9.96356	0.00000	5722.12800
9.96740	0.00000	5722.12800
9.97124	0.00000	5722.12800
9.97510	0.00000	5722.12800
9.97894	0.00000	5749.57700
9.98278	0.00000	5749.57700
9.98662	0.00000	5749.57700
9.99046	0.00000	5749.57700
9.99430	0.00000	5749.57700
9.99816	0.00000	5749.57700
